,Unnamed: 0,imu,server_time,arduino_time,ax,ay,az,gx,gy,gz,mx,my,mz
0,952,0,2023-03-01T18:54:59.807717,1889340,374,895,1340,-1108,-782,-245,39,183,-117
1,953,0,2023-03-01T18:54:59.813125,1889346,374,895,1340,-1108,-782,-245,39,183,-117
2,954,0,2023-03-01T18:54:59.817880,1889351,374,895,1340,-1108,-782,-245,39,183,-117
3,955,0,2023-03-01T18:54:59.823066,1889355,253,832,1704,-1270,-364,-384,39,183,-117
4,956,0,2023-03-01T18:54:59.829197,1889362,253,832,1704,-1270,-364,-384,39,183,-117
5,957,0,2023-03-01T18:54:59.834266,1889367,253,832,1704,-1270,-364,-384,39,183,-117
6,958,0,2023-03-01T18:54:59.840065,1889373,145,708,1624,-1360,-232,-486,39,183,-117
7,959,0,2023-03-01T18:54:59.845581,1889379,145,708,1624,-1360,-232,-486,39,183,-117
8,960,0,2023-03-01T18:54:59.851035,1889384,145,708,1624,-1360,-232,-486,39,183,-117
9,961,0,2023-03-01T18:54:59.856128,1889389,145,708,1624,-1360,-232,-486,39,183,-117
10,962,0,2023-03-01T18:54:59.861258,1889394,65,669,1473,-1195,-268,-487,39,183,-117
11,963,0,2023-03-01T18:54:59.865835,1889399,65,669,1473,-1195,-268,-487,39,183,-117
12,964,0,2023-03-01T18:54:59.870837,1889403,65,669,1473,-1195,-268,-487,39,183,-117
13,965,0,2023-03-01T18:54:59.875469,1889409,65,669,1473,-1195,-268,-487,39,183,-117
14,966,0,2023-03-01T18:54:59.880105,1889413,16,740,1696,-941,-452,-360,45,183,-117
15,967,0,2023-03-01T18:54:59.885616,1889419,16,740,1696,-941,-452,-360,45,183,-117
16,968,0,2023-03-01T18:54:59.891091,1889424,16,740,1696,-941,-452,-360,45,183,-117
17,969,0,2023-03-01T18:54:59.896400,1889429,16,740,1696,-941,-452,-360,45,183,-117
18,970,0,2023-03-01T18:54:59.901060,1889434,79,791,1594,-788,-762,-204,45,183,-117
19,971,0,2023-03-01T18:54:59.907374,1889440,79,791,1594,-788,-762,-204,45,183,-117
20,972,0,2023-03-01T18:54:59.911865,1889445,79,791,1594,-788,-762,-204,45,183,-117
21,973,0,2023-03-01T18:54:59.917444,1889451,79,791,1594,-788,-762,-204,45,183,-117
22,974,0,2023-03-01T18:54:59.922762,1889456,226,866,1463,-819,-928,-179,45,183,-117
23,975,0,2023-03-01T18:54:59.928780,1889462,226,866,1463,-819,-928,-179,45,183,-117
24,976,0,2023-03-01T18:54:59.933752,1889467,226,866,1463,-819,-928,-179,45,183,-117
25,977,0,2023-03-01T18:54:59.938778,1889472,226,866,1463,-819,-928,-179,45,183,-117
26,978,0,2023-03-01T18:54:59.944035,1889476,276,887,1591,-960,-787,-210,45,183,-117
27,979,0,2023-03-01T18:54:59.950396,1889483,276,887,1591,-960,-787,-210,45,183,-117
28,980,0,2023-03-01T18:54:59.955194,1889488,276,887,1591,-960,-787,-210,45,183,-117
29,981,0,2023-03-01T18:54:59.960023,1889494,266,828,1580,-1159,-571,-329,45,183,-117
30,982,0,2023-03-01T18:54:59.965911,1889499,266,828,1580,-1159,-571,-329,45,183,-117
31,983,0,2023-03-01T18:54:59.971823,1889505,266,828,1580,-1159,-571,-329,45,183,-117
32,984,0,2023-03-01T18:54:59.977123,1889510,266,828,1580,-1159,-571,-329,45,183,-117
33,985,0,2023-03-01T18:54:59.982562,1889516,222,771,1528,-1252,-397,-431,45,183,-117
34,986,0,2023-03-01T18:54:59.988522,1889521,222,771,1528,-1252,-397,-431,45,183,-117
35,987,0,2023-03-01T18:54:59.993891,1889527,222,771,1528,-1252,-397,-431,45,183,-117
36,988,0,2023-03-01T18:54:59.999813,1889532,222,771,1528,-1252,-397,-431,45,183,-117
37,989,0,2023-03-01T18:55:00.005271,1889538,101,727,1610,-1192,-250,-449,48,190,-120
38,990,0,2023-03-01T18:55:00.011387,1889545,101,727,1610,-1192,-250,-449,48,190,-120
39,991,0,2023-03-01T18:55:00.016595,1889549,101,727,1610,-1192,-250,-449,48,190,-120
40,992,0,2023-03-01T18:55:00.022360,1889555,49,733,1629,-1052,-398,-396,48,190,-120
41,993,0,2023-03-01T18:55:00.028896,1889562,49,733,1629,-1052,-398,-396,48,190,-120
42,994,0,2023-03-01T18:55:00.033940,1889566,49,733,1629,-1052,-398,-396,48,190,-120
43,995,0,2023-03-01T18:55:00.039671,1889572,49,733,1629,-1052,-398,-396,48,190,-120
44,996,0,2023-03-01T18:55:00.045067,1889577,87,771,1538,-908,-653,-286,48,190,-120
45,997,0,2023-03-01T18:55:00.051630,1889584,87,771,1538,-908,-653,-286,48,190,-120
46,998,0,2023-03-01T18:55:00.056828,1889590,87,771,1538,-908,-653,-286,48,190,-120
47,999,0,2023-03-01T18:55:00.062676,1889596,160,829,1573,-866,-778,-223,48,190,-120
48,1000,0,2023-03-01T18:55:00.068991,1889602,160,829,1573,-866,-778,-223,48,190,-120
49,1001,0,2023-03-01T18:55:00.073886,1889607,160,829,1573,-866,-778,-223,48,190,-120
50,1002,0,2023-03-01T18:55:00.079095,1889612,160,829,1573,-866,-778,-223,48,190,-120
51,1003,0,2023-03-01T18:55:00.084009,1889617,160,829,1573,-866,-778,-223,48,190,-120
52,1004,0,2023-03-01T18:55:00.089460,1889623,160,829,1573,-866,-778,-223,48,190,-120
53,1005,0,2023-03-01T18:55:00.094404,1889628,160,829,1573,-866,-778,-223,48,190,-120
54,1006,0,2023-03-01T18:55:00.099718,1889633,160,829,1573,-866,-778,-223,48,190,-120
55,1007,0,2023-03-01T18:55:00.104604,1889638,270,829,1531,-1075,-662,-290,48,190,-120
56,1008,0,2023-03-01T18:55:00.110309,1889643,270,829,1531,-1075,-662,-290,48,190,-120
57,1009,0,2023-03-01T18:55:00.115470,1889648,270,829,1531,-1075,-662,-290,48,190,-120
58,1010,0,2023-03-01T18:55:00.121626,1889654,226,795,1568,-1156,-465,-370,48,190,-120
59,1011,0,2023-03-01T18:55:00.128330,1889661,226,795,1568,-1156,-465,-370,48,190,-120
60,1012,0,2023-03-01T18:55:00.133298,1889666,226,795,1568,-1156,-465,-370,48,190,-120
61,1013,0,2023-03-01T18:55:00.138359,1889671,226,795,1568,-1156,-465,-370,48,190,-120
62,1014,0,2023-03-01T18:55:00.143488,1889676,141,759,1607,-1157,-344,-412,49,191,-121
63,1015,0,2023-03-01T18:55:00.150418,1889683,141,759,1607,-1157,-344,-412,49,191,-121
64,1016,0,2023-03-01T18:55:00.155671,1889688,141,759,1607,-1157,-344,-412,49,191,-121
65,1017,0,2023-03-01T18:55:00.161703,1889694,88,749,1571,-1097,-401,-399,49,191,-121
66,1018,0,2023-03-01T18:55:00.171159,1889704,88,749,1571,-1097,-401,-399,49,191,-121
67,1019,0,2023-03-01T18:55:00.176324,1889710,88,749,1571,-1097,-401,-399,49,191,-121
68,1020,0,2023-03-01T18:55:00.182048,1889715,87,770,1570,-984,-569,-312,49,191,-121
69,1021,0,2023-03-01T18:55:00.188280,1889721,87,770,1570,-984,-569,-312,49,191,-121
70,1022,0,2023-03-01T18:55:00.193162,1889726,87,770,1570,-984,-569,-312,49,191,-121
71,1023,0,2023-03-01T18:55:00.198235,1889731,87,770,1570,-984,-569,-312,49,191,-121
72,1024,0,2023-03-01T18:55:00.203311,1889736,139,808,1585,-919,-709,-254,49,191,-121
73,1025,0,2023-03-01T18:55:00.209952,1889742,139,808,1585,-919,-709,-254,49,191,-121
74,1026,0,2023-03-01T18:55:00.214936,1889747,139,808,1585,-919,-709,-254,49,191,-121
75,1027,0,2023-03-01T18:55:00.220790,1889754,139,808,1585,-919,-709,-254,49,191,-121
76,1028,0,2023-03-01T18:55:00.226073,1889759,209,826,1553,-957,-774,-232,49,191,-121
77,1029,0,2023-03-01T18:55:00.233033,1889766,209,826,1553,-957,-774,-232,49,191,-121
78,1030,0,2023-03-01T18:55:00.239072,1889772,209,826,1553,-957,-774,-232,49,191,-121
79,1031,0,2023-03-01T18:55:00.244054,1889777,244,822,1547,-1029,-688,-276,49,191,-121
80,1032,0,2023-03-01T18:55:00.251010,1889783,244,822,1547,-1029,-688,-276,49,191,-121
81,1033,0,2023-03-01T18:55:00.256129,1889788,244,822,1547,-1029,-688,-276,49,191,-121
82,1034,0,2023-03-01T18:55:00.262122,1889795,224,806,1579,-1095,-530,-338,42,190,-122
83,1035,0,2023-03-01T18:55:00.268393,1889802,224,806,1579,-1095,-530,-338,42,190,-122
84,1036,0,2023-03-01T18:55:00.273443,1889807,224,806,1579,-1095,-530,-338,42,190,-122
85,1037,0,2023-03-01T18:55:00.278366,1889811,224,806,1579,-1095,-530,-338,42,190,-122
86,1038,0,2023-03-01T18:55:00.283408,1889816,167,778,1574,-1114,-416,-382,42,190,-122
87,1039,0,2023-03-01T18:55:00.289833,1889823,167,778,1574,-1114,-416,-382,42,190,-122
88,1040,0,2023-03-01T18:55:00.294868,1889827,167,778,1574,-1114,-416,-382,42,190,-122
89,1041,0,2023-03-01T18:55:00.299572,1889832,167,778,1574,-1114,-416,-382,42,190,-122
90,1042,0,2023-03-01T18:55:00.304777,1889838,115,766,1570,-1082,-414,-387,42,190,-122
91,1043,0,2023-03-01T18:55:00.311202,1889844,115,766,1570,-1082,-414,-387,42,190,-122
92,1044,0,2023-03-01T18:55:00.315970,1889849,115,766,1570,-1082,-414,-387,42,190,-122
93,1045,0,2023-03-01T18:55:00.321708,1889855,97,774,1587,-1014,-523,-334,42,190,-122
94,1046,0,2023-03-01T18:55:00.327409,1889860,97,774,1587,-1014,-523,-334,42,190,-122
95,1047,0,2023-03-01T18:55:00.332230,1889865,97,774,1587,-1014,-523,-334,42,190,-122
96,1048,0,2023-03-01T18:55:00.337670,1889870,97,774,1587,-1014,-523,-334,42,190,-122
97,1049,0,2023-03-01T18:55:00.343682,1889876,132,795,1578,-975,-655,-283,42,190,-122
98,1050,0,2023-03-01T18:55:00.348827,1889882,132,795,1578,-975,-655,-283,42,190,-122
99,1051,0,2023-03-01T18:55:00.353794,1889887,132,795,1578,-975,-655,-283,42,190,-122
100,1052,0,2023-03-01T18:55:00.359356,1889892,132,795,1578,-975,-655,-283,42,190,-122
101,1053,0,2023-03-01T18:55:00.364392,1889897,185,808,1563,-973,-721,-255,42,190,-122
102,1054,0,2023-03-01T18:55:00.370458,1889903,185,808,1563,-973,-721,-255,42,190,-122
103,1055,0,2023-03-01T18:55:00.375377,1889908,185,808,1563,-973,-721,-255,42,190,-122
104,1056,0,2023-03-01T18:55:00.380589,1889913,185,808,1563,-973,-721,-255,42,190,-122
105,1057,0,2023-03-01T18:55:00.385623,1889918,224,812,1565,-1024,-678,-275,42,190,-122
106,1058,0,2023-03-01T18:55:00.391615,1889925,224,812,1565,-1024,-678,-275,42,190,-122
107,1059,0,2023-03-01T18:55:00.397424,1889930,224,812,1565,-1024,-678,-275,42,190,-122
108,1060,0,2023-03-01T18:55:00.402943,1889936,216,807,1579,-1075,-564,-323,50,184,-128
109,1061,0,2023-03-01T18:55:00.408830,1889942,216,807,1579,-1075,-564,-323,50,184,-128
110,1062,0,2023-03-01T18:55:00.413880,1889946,216,807,1579,-1075,-564,-323,50,184,-128
111,1063,0,2023-03-01T18:55:00.419948,1889953,216,807,1579,-1075,-564,-323,50,184,-128
112,1064,0,2023-03-01T18:55:00.424918,1889957,179,785,1572,-1087,-464,-365,50,184,-128
113,1065,0,2023-03-01T18:55:00.431283,1889965,179,785,1572,-1087,-464,-365,50,184,-128
114,1066,0,2023-03-01T18:55:00.436005,1889969,179,785,1572,-1087,-464,-365,50,184,-128
115,1067,0,2023-03-01T18:55:00.440746,1889974,132,775,1581,-1071,-439,-371,50,184,-128
116,1068,0,2023-03-01T18:55:00.446226,1889979,132,775,1581,-1071,-439,-371,50,184,-128
117,1069,0,2023-03-01T18:55:00.451902,1889985,132,775,1581,-1071,-439,-371,50,184,-128
118,1070,0,2023-03-01T18:55:00.456688,1889990,132,775,1581,-1071,-439,-371,50,184,-128
119,1071,0,2023-03-01T18:55:00.462219,1889995,116,781,1576,-1038,-514,-338,50,184,-128
120,1072,0,2023-03-01T18:55:00.468483,1890001,116,781,1576,-1038,-514,-338,50,184,-128
121,1073,0,2023-03-01T18:55:00.473536,1890007,116,781,1576,-1038,-514,-338,50,184,-128
122,1074,0,2023-03-01T18:55:00.479555,1890012,116,781,1576,-1038,-514,-338,50,184,-128
123,1075,0,2023-03-01T18:55:00.484895,1890018,135,785,1575,-1005,-625,-294,50,184,-128
124,1076,0,2023-03-01T18:55:00.491509,1890024,135,785,1575,-1005,-625,-294,50,184,-128
125,1077,0,2023-03-01T18:55:00.496699,1890030,135,785,1575,-1005,-625,-294,50,184,-128
126,1078,0,2023-03-01T18:55:00.501504,1890034,173,803,1566,-999,-690,-264,50,184,-128
127,1079,0,2023-03-01T18:55:00.507685,1890040,173,803,1566,-999,-690,-264,50,184,-128
128,1080,0,2023-03-01T18:55:00.512424,1890045,173,803,1566,-999,-690,-264,50,184,-128
129,1081,0,2023-03-01T18:55:00.517438,1890050,173,803,1566,-999,-690,-264,50,184,-128
130,1082,0,2023-03-01T18:55:00.522041,1890055,208,808,1572,-1015,-677,-276,48,184,-118
131,1083,0,2023-03-01T18:55:00.528731,1890062,208,808,1572,-1015,-677,-276,48,184,-118
132,1084,0,2023-03-01T18:55:00.533682,1890067,208,808,1572,-1015,-677,-276,48,184,-118
133,1085,0,2023-03-01T18:55:00.540207,1890072,208,808,1572,-1015,-677,-276,48,184,-118
134,1086,0,2023-03-01T18:55:00.545114,1890078,210,798,1570,-1044,-581,-320,48,184,-118
135,1087,0,2023-03-01T18:55:00.550969,1890084,210,798,1570,-1044,-581,-320,48,184,-118
136,1088,0,2023-03-01T18:55:00.556123,1890089,210,798,1570,-1044,-581,-320,48,184,-118
137,1089,0,2023-03-01T18:55:00.562260,1890095,182,792,1574,-1062,-494,-357,48,184,-118
138,1090,0,2023-03-01T18:55:00.569234,1890102,182,792,1574,-1062,-494,-357,48,184,-118
139,1091,0,2023-03-01T18:55:00.574308,1890107,182,792,1574,-1062,-494,-357,48,184,-118
140,1092,0,2023-03-01T18:55:00.579710,1890113,182,792,1574,-1062,-494,-357,48,184,-118
141,1093,0,2023-03-01T18:55:00.585491,1890118,144,786,1581,-1070,-464,-359,48,184,-118
142,1094,0,2023-03-01T18:55:00.591624,1890124,144,786,1581,-1070,-464,-359,48,184,-118
143,1095,0,2023-03-01T18:55:00.596373,1890129,144,786,1581,-1070,-464,-359,48,184,-118
144,1096,0,2023-03-01T18:55:00.601461,1890135,127,783,1580,-1050,-519,-341,48,184,-118
145,1097,0,2023-03-01T18:55:00.607494,1890141,127,783,1580,-1050,-519,-341,48,184,-118
146,1098,0,2023-03-01T18:55:00.612871,1890146,127,783,1580,-1050,-519,-341,48,184,-118
147,1099,0,2023-03-01T18:55:00.618657,1890152,127,783,1580,-1050,-519,-341,48,184,-118
148,1100,0,2023-03-01T18:55:00.623409,1890156,139,789,1575,-1023,-604,-302,48,184,-118
149,1101,0,2023-03-01T18:55:00.629511,1890162,139,789,1575,-1023,-604,-302,48,184,-118
150,1102,0,2023-03-01T18:55:00.634285,1890167,139,789,1575,-1023,-604,-302,48,184,-118
151,1103,0,2023-03-01T18:55:00.639984,1890172,139,789,1575,-1023,-604,-302,48,184,-118
152,1104,0,2023-03-01T18:55:00.644749,1890178,169,798,1574,-1012,-654,-282,49,191,-111
153,1105,0,2023-03-01T18:55:00.650852,1890184,169,798,1574,-1012,-654,-282,49,191,-111
154,1106,0,2023-03-01T18:55:00.655571,1890189,169,798,1574,-1012,-654,-282,49,191,-111
155,1107,0,2023-03-01T18:55:00.660609,1890193,169,798,1574,-1012,-654,-282,49,191,-111
156,1108,0,2023-03-01T18:55:00.665892,1890199,195,801,1571,-1018,-648,-288,49,191,-111
157,1109,0,2023-03-01T18:55:00.672588,1890205,195,801,1571,-1018,-648,-288,49,191,-111
158,1110,0,2023-03-01T18:55:00.677817,1890210,195,801,1571,-1018,-648,-288,49,191,-111
159,1111,0,2023-03-01T18:55:00.683825,1890216,199,800,1569,-1045,-592,-322,49,191,-111
160,1112,0,2023-03-01T18:55:00.690288,1890223,199,800,1569,-1045,-592,-322,49,191,-111
161,1113,0,2023-03-01T18:55:00.695391,1890228,199,800,1569,-1045,-592,-322,49,191,-111
162,1114,0,2023-03-01T18:55:00.701346,1890234,180,792,1571,-1065,-532,-348,49,191,-111
163,1115,0,2023-03-01T18:55:00.708537,1890240,180,792,1571,-1065,-532,-348,49,191,-111
164,1116,0,2023-03-01T18:55:00.713919,1890247,180,792,1571,-1065,-532,-348,49,191,-111
165,1117,0,2023-03-01T18:55:00.720284,1890253,180,792,1571,-1065,-532,-348,49,191,-111
166,1118,0,2023-03-01T18:55:00.725334,1890258,155,790,1577,-1056,-491,-355,49,191,-111
167,1119,0,2023-03-01T18:55:00.731603,1890265,155,790,1577,-1056,-491,-355,49,191,-111
168,1120,0,2023-03-01T18:55:00.736462,1890270,155,790,1577,-1056,-491,-355,49,191,-111
169,1121,0,2023-03-01T18:55:00.742075,1890275,135,784,1573,-1054,-530,-339,49,191,-111
170,1122,0,2023-03-01T18:55:00.748583,1890282,135,784,1573,-1054,-530,-339,49,191,-111
171,1123,0,2023-03-01T18:55:00.753988,1890286,135,784,1573,-1054,-530,-339,49,191,-111
172,1124,0,2023-03-01T18:55:00.760513,1890293,135,784,1573,-1054,-530,-339,49,191,-111
173,1125,0,2023-03-01T18:55:00.765419,1890298,143,790,1576,-1025,-591,-310,49,191,-111
174,1126,0,2023-03-01T18:55:00.771252,1890305,143,790,1576,-1025,-591,-310,49,191,-111
175,1127,0,2023-03-01T18:55:00.776241,1890310,143,790,1576,-1025,-591,-310,49,191,-111
176,1128,0,2023-03-01T18:55:00.781139,1890314,165,794,1570,-1013,-639,-297,49,191,-111
177,1129,0,2023-03-01T18:55:00.787021,1890320,165,794,1570,-1013,-639,-297,47,189,-129
178,1130,0,2023-03-01T18:55:00.792890,1890326,165,794,1570,-1013,-639,-297,47,189,-129
179,1131,0,2023-03-01T18:55:00.797768,1890330,165,794,1570,-1013,-639,-297,47,189,-129
180,1132,0,2023-03-01T18:55:00.803225,1890336,191,799,1572,-1019,-627,-297,47,189,-129
181,1133,0,2023-03-01T18:55:00.810152,1890342,191,799,1572,-1019,-627,-297,47,189,-129
182,1134,0,2023-03-01T18:55:00.815187,1890349,191,799,1572,-1019,-627,-297,47,189,-129
183,1135,0,2023-03-01T18:55:00.822434,1890355,193,797,1568,-1033,-579,-315,47,189,-129
184,1136,0,2023-03-01T18:55:00.829297,1890362,193,797,1568,-1033,-579,-315,47,189,-129
185,1137,0,2023-03-01T18:55:00.834513,1890367,193,797,1568,-1033,-579,-315,47,189,-129
186,1138,0,2023-03-01T18:55:00.839876,1890373,193,797,1568,-1033,-579,-315,47,189,-129
187,1139,0,2023-03-01T18:55:00.844580,1890377,179,799,1576,-1047,-524,-343,47,189,-129
188,1140,0,2023-03-01T18:55:00.850878,1890383,179,799,1576,-1047,-524,-343,47,189,-129
189,1141,0,2023-03-01T18:55:00.855921,1890388,179,799,1576,-1047,-524,-343,47,189,-129
190,1142,0,2023-03-01T18:55:00.860940,1890394,179,799,1576,-1047,-524,-343,47,189,-129
191,1143,0,2023-03-01T18:55:00.866136,1890399,158,793,1567,-1052,-506,-356,47,189,-129
192,1144,0,2023-03-01T18:55:00.871580,1890405,158,793,1567,-1052,-506,-356,47,189,-129
193,1145,0,2023-03-01T18:55:00.876517,1890410,158,793,1567,-1052,-506,-356,47,189,-129
194,1146,0,2023-03-01T18:55:00.881866,1890414,144,787,1570,-1047,-529,-335,47,189,-129
195,1147,0,2023-03-01T18:55:00.888118,1890421,144,787,1570,-1047,-529,-335,47,189,-129
196,1148,0,2023-03-01T18:55:00.892907,1890426,144,787,1570,-1047,-529,-335,47,189,-129
197,1149,0,2023-03-01T18:55:00.897898,1890430,144,787,1570,-1047,-529,-335,47,189,-129
198,1150,0,2023-03-01T18:55:00.902931,1890436,146,789,1580,-1033,-581,-312,47,185,-113
199,1151,0,2023-03-01T18:55:00.908600,1890442,146,789,1580,-1033,-581,-312,47,185,-113
200,1152,0,2023-03-01T18:55:00.913619,1890447,146,789,1580,-1033,-581,-312,47,185,-113
201,1153,0,2023-03-01T18:55:00.918768,1890452,146,789,1580,-1033,-581,-312,47,185,-113
202,1154,0,2023-03-01T18:55:00.923882,1890457,166,793,1572,-1028,-614,-301,47,185,-113
203,1155,0,2023-03-01T18:55:00.930007,1890463,166,793,1572,-1028,-614,-301,47,185,-113
204,1156,0,2023-03-01T18:55:00.935369,1890468,166,793,1572,-1028,-614,-301,47,185,-113
205,1157,0,2023-03-01T18:55:00.940481,1890473,166,793,1572,-1028,-614,-301,47,185,-113
206,1158,0,2023-03-01T18:55:00.945544,1890479,184,797,1577,-1033,-619,-302,47,185,-113
207,1159,0,2023-03-01T18:55:00.951743,1890485,184,797,1577,-1033,-619,-302,47,185,-113
208,1160,0,2023-03-01T18:55:00.956764,1890490,184,797,1577,-1033,-619,-302,47,185,-113
209,1161,0,2023-03-01T18:55:00.961905,1890495,188,798,1567,-1025,-589,-314,47,185,-113
210,1162,0,2023-03-01T18:55:00.967214,1890500,188,798,1567,-1025,-589,-314,47,185,-113
211,1163,0,2023-03-01T18:55:00.972489,1890505,188,798,1567,-1025,-589,-314,47,185,-113
212,1164,0,2023-03-01T18:55:00.977779,1890510,188,798,1567,-1025,-589,-314,47,185,-113
213,1165,0,2023-03-01T18:55:00.983718,1890516,188,798,1567,-1025,-589,-314,47,185,-113
214,1166,0,2023-03-01T18:55:00.990823,1890523,188,798,1567,-1025,-589,-314,47,185,-113
215,1167,0,2023-03-01T18:55:00.995919,1890529,188,798,1567,-1025,-589,-314,47,185,-113
216,1168,0,2023-03-01T18:55:01.001177,1890534,188,798,1567,-1025,-589,-314,47,185,-113
217,1169,0,2023-03-01T18:55:01.006516,1890539,157,788,1577,-1050,-517,-336,47,185,-113
218,1170,0,2023-03-01T18:55:01.013479,1890545,157,788,1577,-1050,-517,-336,47,185,-113
219,1171,0,2023-03-01T18:55:01.018849,1890551,157,788,1577,-1050,-517,-336,47,185,-113
220,1172,0,2023-03-01T18:55:01.023603,1890556,147,791,1573,-1042,-533,-331,47,185,-113
221,1173,0,2023-03-01T18:55:01.030125,1890563,147,791,1573,-1042,-533,-331,47,185,-113
222,1174,0,2023-03-01T18:55:01.035243,1890568,147,791,1573,-1042,-533,-331,47,185,-113
223,1175,0,2023-03-01T18:55:01.042655,1890575,149,792,1576,-1040,-574,-325,45,193,-117
224,1176,0,2023-03-01T18:55:01.049492,1890582,149,792,1576,-1040,-574,-325,45,193,-117
225,1177,0,2023-03-01T18:55:01.055254,1890588,149,792,1576,-1040,-574,-325,45,193,-117
226,1178,0,2023-03-01T18:55:01.061708,1890594,149,792,1576,-1040,-574,-325,45,193,-117
227,1179,0,2023-03-01T18:55:01.067091,1890599,166,792,1570,-1025,-610,-305,45,193,-117
228,1180,0,2023-03-01T18:55:01.073880,1890607,166,792,1570,-1025,-610,-305,45,193,-117
229,1181,0,2023-03-01T18:55:01.079210,1890612,166,792,1570,-1025,-610,-305,45,193,-117
230,1182,0,2023-03-01T18:55:01.084623,1890617,180,795,1575,-1025,-610,-300,45,193,-117
231,1183,0,2023-03-01T18:55:01.091874,1890625,180,795,1575,-1025,-610,-300,45,193,-117
232,1184,0,2023-03-01T18:55:01.097435,1890630,180,795,1575,-1025,-610,-300,45,193,-117
233,1185,0,2023-03-01T18:55:01.103361,1890636,186,797,1570,-1035,-588,-314,45,193,-117
234,1186,0,2023-03-01T18:55:01.109296,1890642,186,797,1570,-1035,-588,-314,45,193,-117
235,1187,0,2023-03-01T18:55:01.114380,1890647,186,797,1570,-1035,-588,-314,45,193,-117
236,1188,0,2023-03-01T18:55:01.119702,1890653,186,797,1570,-1035,-588,-314,45,193,-117
237,1189,0,2023-03-01T18:55:01.125090,1890658,177,797,1568,-1041,-551,-326,45,193,-117
238,1190,0,2023-03-01T18:55:01.131004,1890664,177,797,1568,-1041,-551,-326,45,193,-117
239,1191,0,2023-03-01T18:55:01.136195,1890669,177,797,1568,-1041,-551,-326,45,193,-117
240,1192,0,2023-03-01T18:55:01.141864,1890675,161,794,1572,-1039,-531,-338,45,193,-117
241,1193,0,2023-03-01T18:55:01.148801,1890681,161,794,1572,-1039,-531,-338,45,193,-117
242,1194,0,2023-03-01T18:55:01.154179,1890688,161,794,1572,-1039,-531,-338,45,193,-117
243,1195,0,2023-03-01T18:55:01.158892,1890692,161,794,1572,-1039,-531,-338,45,193,-117
244,1196,0,2023-03-01T18:55:01.163943,1890697,151,791,1576,-1042,-540,-332,49,187,-125
245,1197,0,2023-03-01T18:55:01.170408,1890704,151,791,1576,-1042,-540,-332,49,187,-125
246,1198,0,2023-03-01T18:55:01.175787,1890708,151,791,1576,-1042,-540,-332,49,187,-125
247,1199,0,2023-03-01T18:55:01.181115,1890714,151,791,1576,-1042,-540,-332,49,187,-125
248,1200,0,2023-03-01T18:55:01.185971,1890719,152,791,1575,-1038,-580,-316,49,187,-125
249,1201,0,2023-03-01T18:55:01.192104,1890725,152,791,1575,-1038,-580,-316,49,187,-125
250,1202,0,2023-03-01T18:55:01.197131,1890731,152,791,1575,-1038,-580,-316,49,187,-125
251,1203,0,2023-03-01T18:55:01.201973,1890735,164,795,1569,-1035,-609,-305,49,187,-125
252,1204,0,2023-03-01T18:55:01.208657,1890742,164,795,1569,-1035,-609,-305,49,187,-125
253,1205,0,2023-03-01T18:55:01.213927,1890747,164,795,1569,-1035,-609,-305,49,187,-125
254,1206,0,2023-03-01T18:55:01.219585,1890752,164,795,1569,-1035,-609,-305,49,187,-125
255,1207,0,2023-03-01T18:55:01.224978,1890758,175,796,1570,-1011,-604,-315,49,187,-125
256,1208,0,2023-03-01T18:55:01.231751,1890764,175,796,1570,-1011,-604,-315,49,187,-125
257,1209,0,2023-03-01T18:55:01.237046,1890769,175,796,1570,-1011,-604,-315,49,187,-125
258,1210,0,2023-03-01T18:55:01.242890,1890776,181,797,1567,-1019,-583,-315,49,187,-125
259,1211,0,2023-03-01T18:55:01.248778,1890782,181,797,1567,-1019,-583,-315,49,187,-125
260,1212,0,2023-03-01T18:55:01.253957,1890787,181,797,1567,-1019,-583,-315,49,187,-125
261,1213,0,2023-03-01T18:55:01.260639,1890793,181,797,1567,-1019,-583,-315,49,187,-125
262,1214,0,2023-03-01T18:55:01.265917,1890798,172,799,1565,-1039,-563,-336,49,187,-125
263,1215,0,2023-03-01T18:55:01.272284,1890805,172,799,1565,-1039,-563,-336,49,187,-125
264,1216,0,2023-03-01T18:55:01.277146,1890810,172,799,1565,-1039,-563,-336,49,187,-125
265,1217,0,2023-03-01T18:55:01.282796,1890816,165,794,1577,-1047,-544,-334,49,187,-125
266,1218,0,2023-03-01T18:55:01.289414,1890823,165,794,1577,-1047,-544,-334,49,187,-125
267,1219,0,2023-03-01T18:55:01.295350,1890829,165,794,1577,-1047,-544,-334,49,187,-125
268,1220,0,2023-03-01T18:55:01.300216,1890833,165,794,1577,-1047,-544,-334,49,187,-125
269,1221,0,2023-03-01T18:55:01.305277,1890838,157,790,1571,-1046,-556,-321,51,183,-121
270,1222,0,2023-03-01T18:55:01.311832,1890844,157,790,1571,-1046,-556,-321,51,183,-121
271,1223,0,2023-03-01T18:55:01.317126,1890850,157,790,1571,-1046,-556,-321,51,183,-121
272,1224,0,2023-03-01T18:55:01.322587,1890855,158,787,1575,-1035,-575,-317,51,183,-121
273,1225,0,2023-03-01T18:55:01.329158,1890862,158,787,1575,-1035,-575,-317,51,183,-121
274,1226,0,2023-03-01T18:55:01.334570,1890867,158,787,1575,-1035,-575,-317,51,183,-121
275,1227,0,2023-03-01T18:55:01.339395,1890873,158,787,1575,-1035,-575,-317,51,183,-121
276,1228,0,2023-03-01T18:55:01.345073,1890878,164,791,1568,-1022,-590,-311,51,183,-121
277,1229,0,2023-03-01T18:55:01.351569,1890884,164,791,1568,-1022,-590,-311,51,183,-121
278,1230,0,2023-03-01T18:55:01.356616,1890889,164,791,1568,-1022,-590,-311,51,183,-121
279,1231,0,2023-03-01T18:55:01.362752,1890895,178,791,1574,-1025,-597,-312,51,183,-121
280,1232,0,2023-03-01T18:55:01.369401,1890902,178,791,1574,-1025,-597,-312,51,183,-121
281,1233,0,2023-03-01T18:55:01.374952,1890908,178,791,1574,-1025,-597,-312,51,183,-121
282,1234,0,2023-03-01T18:55:01.380874,1890914,178,791,1574,-1025,-597,-312,51,183,-121
283,1235,0,2023-03-01T18:55:01.385686,1890919,178,794,1566,-1021,-573,-316,51,183,-121
284,1236,0,2023-03-01T18:55:01.391621,1890925,178,794,1566,-1021,-573,-316,51,183,-121
285,1237,0,2023-03-01T18:55:01.397227,1890930,178,794,1566,-1021,-573,-316,51,183,-121
286,1238,0,2023-03-01T18:55:01.403244,1890936,170,796,1569,-1021,-554,-322,51,183,-121
287,1239,0,2023-03-01T18:55:01.409506,1890942,170,796,1569,-1021,-554,-322,51,183,-121
288,1240,0,2023-03-01T18:55:01.414294,1890948,170,796,1569,-1021,-554,-322,51,183,-121
289,1241,0,2023-03-01T18:55:01.419073,1890952,170,796,1569,-1021,-554,-322,51,183,-121
290,1242,0,2023-03-01T18:55:01.423867,1890957,164,797,1576,-1040,-545,-331,45,185,-117
291,1243,0,2023-03-01T18:55:01.429806,1890963,164,797,1576,-1040,-545,-331,45,185,-117
292,1244,0,2023-03-01T18:55:01.435034,1890968,164,797,1576,-1040,-545,-331,45,185,-117
293,1245,0,2023-03-01T18:55:01.439708,1890973,164,797,1576,-1040,-545,-331,45,185,-117
294,1246,0,2023-03-01T18:55:01.444825,1890978,155,790,1574,-1037,-556,-326,45,185,-117
295,1247,0,2023-03-01T18:55:01.450683,1890983,155,790,1574,-1037,-556,-326,45,185,-117
296,1248,0,2023-03-01T18:55:01.455789,1890989,155,790,1574,-1037,-556,-326,45,185,-117
297,1249,0,2023-03-01T18:55:01.461313,1890995,155,790,1574,-1037,-556,-326,45,185,-117
298,1250,0,2023-03-01T18:55:01.466955,1891000,161,791,1573,-1028,-572,-320,45,185,-117
299,1251,0,2023-03-01T18:55:01.472824,1891006,161,791,1573,-1028,-572,-320,45,185,-117
300,1252,0,2023-03-01T18:55:01.478721,1891012,161,791,1573,-1028,-572,-320,45,185,-117
301,1253,0,2023-03-01T18:55:01.483732,1891016,166,792,1571,-1027,-586,-303,45,185,-117
302,1254,0,2023-03-01T18:55:01.489616,1891022,166,792,1571,-1027,-586,-303,45,185,-117
303,1255,0,2023-03-01T18:55:01.494727,1891027,166,792,1571,-1027,-586,-303,45,185,-117
304,1256,0,2023-03-01T18:55:01.499597,1891033,166,792,1571,-1027,-586,-303,45,185,-117
305,1257,0,2023-03-01T18:55:01.504805,1891038,173,796,1569,-1017,-589,-309,45,185,-117
306,1258,0,2023-03-01T18:55:01.510672,1891044,173,796,1569,-1017,-589,-309,45,185,-117
307,1259,0,2023-03-01T18:55:01.515739,1891049,173,796,1569,-1017,-589,-309,45,185,-117
308,1260,0,2023-03-01T18:55:01.521236,1891054,173,796,1569,-1017,-589,-309,45,185,-117
309,1261,0,2023-03-01T18:55:01.526599,1891059,176,794,1568,-1030,-573,-317,45,185,-117
310,1262,0,2023-03-01T18:55:01.532054,1891065,176,794,1568,-1030,-573,-317,45,185,-117
311,1263,0,2023-03-01T18:55:01.537093,1891070,176,794,1568,-1030,-573,-317,45,185,-117
312,1264,0,2023-03-01T18:55:01.542046,1891075,168,795,1571,-1038,-557,-326,51,197,-117
313,1265,0,2023-03-01T18:55:01.548266,1891082,168,795,1571,-1038,-557,-326,51,197,-123
314,1266,0,2023-03-01T18:55:01.553298,1891086,168,795,1571,-1038,-557,-326,51,197,-123
315,1267,0,2023-03-01T18:55:01.558317,1891091,168,795,1571,-1038,-557,-326,51,197,-123
316,1268,0,2023-03-01T18:55:01.564485,1891097,162,793,1573,-1042,-549,-326,51,197,-123
317,1269,0,2023-03-01T18:55:01.570868,1891103,162,793,1573,-1042,-549,-326,51,197,-123
318,1270,0,2023-03-01T18:55:01.575524,1891108,162,793,1573,-1042,-549,-326,51,197,-123
319,1271,0,2023-03-01T18:55:01.580793,1891113,162,793,1573,-1042,-549,-326,51,197,-123
320,1272,0,2023-03-01T18:55:01.586063,1891119,159,793,1576,-1046,-556,-331,51,197,-123
321,1273,0,2023-03-01T18:55:01.592001,1891126,159,793,1576,-1046,-556,-331,51,197,-123
322,1274,0,2023-03-01T18:55:01.597174,1891130,159,793,1576,-1046,-556,-331,51,197,-123
323,1275,0,2023-03-01T18:55:01.603141,1891136,162,788,1567,-1038,-575,-320,51,197,-123
324,1276,0,2023-03-01T18:55:01.609567,1891143,162,788,1567,-1038,-575,-320,51,197,-123
325,1277,0,2023-03-01T18:55:01.615298,1891148,162,788,1567,-1038,-575,-320,51,197,-123
326,1278,0,2023-03-01T18:55:01.620200,1891153,162,788,1567,-1038,-575,-320,51,197,-123
327,1279,0,2023-03-01T18:55:01.625126,1891159,165,791,1571,-1034,-592,-314,51,197,-123
328,1280,0,2023-03-01T18:55:01.631127,1891165,165,791,1571,-1034,-592,-314,51,197,-123
329,1281,0,2023-03-01T18:55:01.635742,1891169,165,791,1571,-1034,-592,-314,51,197,-123
330,1282,0,2023-03-01T18:55:01.641523,1891175,165,791,1571,-1034,-592,-314,51,197,-123
331,1283,0,2023-03-01T18:55:01.647111,1891180,171,791,1571,-1034,-580,-313,51,197,-123
332,1284,0,2023-03-01T18:55:01.652514,1891185,171,791,1571,-1034,-580,-313,51,197,-123
333,1285,0,2023-03-01T18:55:01.658266,1891191,171,791,1571,-1034,-580,-313,51,197,-123
334,1286,0,2023-03-01T18:55:01.665175,1891198,174,797,1566,-1034,-566,-322,51,197,-123
335,1287,0,2023-03-01T18:55:01.671348,1891205,174,797,1566,-1034,-566,-322,51,197,-123
336,1288,0,2023-03-01T18:55:01.676396,1891209,174,797,1566,-1034,-566,-322,51,197,-123
337,1289,0,2023-03-01T18:55:01.681899,1891215,174,797,1566,-1034,-566,-322,51,197,-123
338,1290,0,2023-03-01T18:55:01.686777,1891220,170,796,1573,-1041,-561,-334,44,192,-114
339,1291,0,2023-03-01T18:55:01.694363,1891227,170,796,1573,-1041,-561,-334,44,192,-114
340,1292,0,2023-03-01T18:55:01.700231,1891233,170,796,1573,-1041,-561,-334,44,192,-114
341,1293,0,2023-03-01T18:55:01.705481,1891238,163,792,1569,-1043,-565,-326,44,192,-114
342,1294,0,2023-03-01T18:55:01.712023,1891245,163,792,1569,-1043,-565,-326,44,192,-114
343,1295,0,2023-03-01T18:55:01.717059,1891250,163,792,1569,-1043,-565,-326,44,192,-114
344,1296,0,2023-03-01T18:55:01.722196,1891255,163,792,1569,-1043,-565,-326,44,192,-114
345,1297,0,2023-03-01T18:55:01.727859,1891261,159,791,1578,-1054,-568,-329,44,192,-114
346,1298,0,2023-03-01T18:55:01.733448,1891266,159,791,1578,-1054,-568,-329,44,192,-114
347,1299,0,2023-03-01T18:55:01.738707,1891272,159,791,1578,-1054,-568,-329,44,192,-114
348,1300,0,2023-03-01T18:55:01.744398,1891277,160,789,1575,-1031,-576,-317,44,192,-114
349,1301,0,2023-03-01T18:55:01.750824,1891283,160,789,1575,-1031,-576,-317,44,192,-114
350,1302,0,2023-03-01T18:55:01.755657,1891289,160,789,1575,-1031,-576,-317,44,192,-114
351,1303,0,2023-03-01T18:55:01.761513,1891295,160,789,1575,-1031,-576,-317,44,192,-114
352,1304,0,2023-03-01T18:55:01.767815,1891301,169,791,1575,-1031,-583,-311,44,192,-114
353,1305,0,2023-03-01T18:55:01.773688,1891306,169,791,1575,-1031,-583,-311,44,192,-114
354,1306,0,2023-03-01T18:55:01.778980,1891312,169,791,1575,-1031,-583,-311,44,192,-114
355,1307,0,2023-03-01T18:55:01.784772,1891317,172,796,1569,-1025,-583,-313,44,192,-114
356,1308,0,2023-03-01T18:55:01.790702,1891323,172,796,1569,-1025,-583,-313,44,192,-114
357,1309,0,2023-03-01T18:55:01.796050,1891329,172,796,1569,-1025,-583,-313,44,192,-114
358,1310,0,2023-03-01T18:55:01.801769,1891334,172,796,1569,-1025,-583,-313,44,192,-114
359,1311,0,2023-03-01T18:55:01.807337,1891341,171,795,1567,-1031,-576,-325,48,192,-122
360,1312,0,2023-03-01T18:55:01.813585,1891347,171,795,1567,-1031,-576,-325,48,192,-122
361,1313,0,2023-03-01T18:55:01.818588,1891352,171,795,1567,-1031,-576,-325,48,192,-122
362,1314,0,2023-03-01T18:55:01.823909,1891356,168,794,1577,-1033,-559,-320,48,192,-122
363,1315,0,2023-03-01T18:55:01.830543,1891363,168,794,1577,-1033,-559,-320,48,192,-122
364,1316,0,2023-03-01T18:55:01.835913,1891369,168,794,1577,-1033,-559,-320,48,192,-122
365,1317,0,2023-03-01T18:55:01.840722,1891374,168,794,1577,-1033,-559,-320,48,192,-122
366,1318,0,2023-03-01T18:55:01.845798,1891379,162,790,1575,-1041,-558,-325,48,192,-122
367,1319,0,2023-03-01T18:55:01.852088,1891385,162,790,1575,-1041,-558,-325,48,192,-122
368,1320,0,2023-03-01T18:55:01.857168,1891390,162,790,1575,-1041,-558,-325,48,192,-122
369,1321,0,2023-03-01T18:55:01.863157,1891396,163,792,1575,-1039,-566,-323,48,192,-122
370,1322,0,2023-03-01T18:55:01.869214,1891402,163,792,1575,-1039,-566,-323,48,192,-122
371,1323,0,2023-03-01T18:55:01.874021,1891407,163,792,1575,-1039,-566,-323,48,192,-122
372,1324,0,2023-03-01T18:55:01.879777,1891412,163,792,1575,-1039,-566,-323,48,192,-122
373,1325,0,2023-03-01T18:55:01.884758,1891418,166,791,1572,-1027,-575,-325,48,192,-122
374,1326,0,2023-03-01T18:55:01.891527,1891424,166,791,1572,-1027,-575,-325,48,192,-122
375,1327,0,2023-03-01T18:55:01.896414,1891430,166,791,1572,-1027,-575,-325,48,192,-122
376,1328,0,2023-03-01T18:55:01.901955,1891435,166,791,1572,-1027,-575,-325,48,192,-122
377,1329,0,2023-03-01T18:55:01.907675,1891440,165,793,1572,-1028,-581,-316,48,192,-122
378,1330,0,2023-03-01T18:55:01.915027,1891448,165,793,1572,-1028,-581,-316,48,192,-122
379,1331,0,2023-03-01T18:55:01.920663,1891453,165,793,1572,-1028,-581,-316,48,192,-122
380,1332,0,2023-03-01T18:55:01.925609,1891459,169,794,1564,-1029,-577,-313,48,192,-122
381,1333,0,2023-03-01T18:55:01.931733,1891465,169,794,1564,-1029,-577,-313,48,192,-122
382,1334,0,2023-03-01T18:55:01.936478,1891470,169,794,1564,-1029,-577,-313,48,192,-122
383,1335,0,2023-03-01T18:55:01.941449,1891474,169,794,1564,-1029,-577,-313,48,192,-122
384,1336,0,2023-03-01T18:55:01.946719,1891479,171,795,1575,-1037,-571,-318,51,185,-117
385,1337,0,2023-03-01T18:55:01.953450,1891486,171,795,1575,-1037,-571,-318,51,185,-117
386,1338,0,2023-03-01T18:55:01.958179,1891491,171,795,1575,-1037,-571,-318,51,185,-117
387,1339,0,2023-03-01T18:55:01.963592,1891496,165,796,1573,-1037,-560,-323,51,185,-117
388,1340,0,2023-03-01T18:55:01.969941,1891503,165,796,1573,-1037,-560,-323,51,185,-117
389,1341,0,2023-03-01T18:55:01.975017,1891508,165,796,1573,-1037,-560,-323,51,185,-117
390,1342,0,2023-03-01T18:55:01.980573,1891514,165,796,1573,-1037,-560,-323,51,185,-117
391,1343,0,2023-03-01T18:55:01.985554,1891518,166,791,1573,-1030,-551,-327,51,185,-117
392,1344,0,2023-03-01T18:55:01.991317,1891524,166,791,1573,-1030,-551,-327,51,185,-117
393,1345,0,2023-03-01T18:55:01.996437,1891529,166,791,1573,-1030,-551,-327,51,185,-117
394,1346,0,2023-03-01T18:55:02.001342,1891534,166,791,1573,-1030,-551,-327,51,185,-117
395,1347,0,2023-03-01T18:55:02.007373,1891540,164,792,1567,-1033,-562,-324,51,185,-117
396,1348,0,2023-03-01T18:55:02.013595,1891547,164,792,1567,-1033,-562,-324,51,185,-117
397,1349,0,2023-03-01T18:55:02.019872,1891552,164,792,1567,-1033,-562,-324,51,185,-117
398,1350,0,2023-03-01T18:55:02.026592,1891559,164,795,1571,-1042,-581,-320,51,185,-117
399,1351,0,2023-03-01T18:55:02.033667,1891566,164,795,1571,-1042,-581,-320,51,185,-117
400,1352,0,2023-03-01T18:55:02.038644,1891571,164,795,1571,-1042,-581,-320,51,185,-117
401,1353,0,2023-03-01T18:55:02.045210,1891578,171,790,1571,-1039,-588,-323,51,185,-117
402,1354,0,2023-03-01T18:55:02.051590,1891585,171,790,1571,-1039,-588,-323,51,185,-117
403,1355,0,2023-03-01T18:55:02.056768,1891590,171,790,1571,-1039,-588,-323,51,185,-117
404,1356,0,2023-03-01T18:55:02.062714,1891596,171,794,1573,-1033,-580,-322,46,192,-122
405,1357,0,2023-03-01T18:55:02.069368,1891602,171,794,1573,-1033,-580,-322,46,192,-122
406,1358,0,2023-03-01T18:55:02.074115,1891607,171,794,1573,-1033,-580,-322,46,192,-122
407,1359,0,2023-03-01T18:55:02.079860,1891612,171,794,1573,-1033,-580,-322,46,192,-122
408,1360,0,2023-03-01T18:55:02.085277,1891618,172,792,1571,-1038,-576,-321,46,192,-122
409,1361,0,2023-03-01T18:55:02.091449,1891624,172,792,1571,-1038,-576,-321,46,192,-122
410,1362,0,2023-03-01T18:55:02.096369,1891630,172,792,1571,-1038,-576,-321,46,192,-122
411,1363,0,2023-03-01T18:55:02.101308,1891635,172,792,1571,-1038,-576,-321,46,192,-122
412,1364,0,2023-03-01T18:55:02.106428,1891639,171,791,1572,-1033,-563,-326,46,192,-122
413,1365,0,2023-03-01T18:55:02.112549,1891645,171,791,1572,-1033,-563,-326,46,192,-122
414,1366,0,2023-03-01T18:55:02.117671,1891650,171,791,1572,-1033,-563,-326,46,192,-122
415,1367,0,2023-03-01T18:55:02.123566,1891656,164,792,1572,-1042,-566,-323,46,192,-122
416,1368,0,2023-03-01T18:55:02.130904,1891663,164,792,1572,-1042,-566,-323,46,192,-122
417,1369,0,2023-03-01T18:55:02.137086,1891670,164,792,1572,-1042,-566,-323,46,192,-122
418,1370,0,2023-03-01T18:55:02.143794,1891677,163,789,1567,-1042,-570,-319,46,192,-122
419,1371,0,2023-03-01T18:55:02.150160,1891683,163,789,1567,-1042,-570,-319,46,192,-122
420,1372,0,2023-03-01T18:55:02.154944,1891688,163,789,1567,-1042,-570,-319,46,192,-122
421,1373,0,2023-03-01T18:55:02.161099,1891694,163,789,1567,-1042,-570,-319,46,192,-122
422,1374,0,2023-03-01T18:55:02.166571,1891699,165,789,1572,-1030,-572,-321,46,192,-122
423,1375,0,2023-03-01T18:55:02.173573,1891706,165,789,1572,-1030,-572,-321,46,192,-122
424,1376,0,2023-03-01T18:55:02.178743,1891712,165,789,1572,-1030,-572,-321,46,192,-122
425,1377,0,2023-03-01T18:55:02.184814,1891718,168,795,1571,-1031,-576,-327,46,192,-122
426,1378,0,2023-03-01T18:55:02.191500,1891724,168,795,1571,-1031,-576,-327,46,192,-122
427,1379,0,2023-03-01T18:55:02.196621,1891730,168,795,1571,-1031,-576,-327,46,192,-122
428,1380,0,2023-03-01T18:55:02.202693,1891735,168,795,1571,-1031,-576,-327,46,192,-122
429,1381,0,2023-03-01T18:55:02.208872,1891741,173,791,1574,-1039,-581,-317,46,184,-116
430,1382,0,2023-03-01T18:55:02.215771,1891748,173,791,1574,-1039,-581,-317,46,184,-116
431,1383,0,2023-03-01T18:55:02.222276,1891755,173,791,1574,-1039,-581,-317,46,184,-116
432,1384,0,2023-03-01T18:55:02.228514,1891762,170,793,1572,-1036,-573,-317,46,184,-116
433,1385,0,2023-03-01T18:55:02.233923,1891767,170,793,1572,-1036,-573,-317,46,184,-116
434,1386,0,2023-03-01T18:55:02.239811,1891772,170,793,1572,-1036,-573,-317,46,184,-116
435,1387,0,2023-03-01T18:55:02.245304,1891778,167,797,1567,-1035,-560,-329,46,184,-116
436,1388,0,2023-03-01T18:55:02.251981,1891784,167,797,1567,-1035,-560,-329,46,184,-116
437,1389,0,2023-03-01T18:55:02.257892,1891790,167,797,1567,-1035,-560,-329,46,184,-116
438,1390,0,2023-03-01T18:55:02.263879,1891796,164,796,1571,-1037,-562,-317,46,184,-116
439,1391,0,2023-03-01T18:55:02.270485,1891804,164,796,1571,-1037,-562,-317,46,184,-116
440,1392,0,2023-03-01T18:55:02.276595,1891809,164,796,1571,-1037,-562,-317,46,184,-116
441,1393,0,2023-03-01T18:55:02.281697,1891815,164,796,1571,-1037,-562,-317,46,184,-116
442,1394,0,2023-03-01T18:55:02.287340,1891820,162,790,1575,-1038,-570,-322,46,184,-116
443,1395,0,2023-03-01T18:55:02.293025,1891826,162,790,1575,-1038,-570,-322,46,184,-116
444,1396,0,2023-03-01T18:55:02.298290,1891831,162,790,1575,-1038,-570,-322,46,184,-116
445,1397,0,2023-03-01T18:55:02.303875,1891836,168,788,1570,-1023,-577,-313,46,184,-116
446,1398,0,2023-03-01T18:55:02.310931,1891844,168,788,1570,-1023,-577,-313,46,184,-116
447,1399,0,2023-03-01T18:55:02.316008,1891849,168,788,1570,-1023,-577,-313,46,184,-116
448,1400,0,2023-03-01T18:55:02.322083,1891855,168,788,1570,-1023,-577,-313,46,184,-116
449,1401,0,2023-03-01T18:55:02.328534,1891861,167,792,1573,-1028,-580,-315,44,180,-118
450,1402,0,2023-03-01T18:55:02.334701,1891867,167,792,1573,-1028,-580,-315,44,180,-118
451,1403,0,2023-03-01T18:55:02.340028,1891873,167,792,1573,-1028,-580,-315,44,180,-118
452,1404,0,2023-03-01T18:55:02.344802,1891877,168,797,1569,-1030,-572,-321,44,180,-118
453,1405,0,2023-03-01T18:55:02.351531,1891884,168,797,1569,-1030,-572,-321,44,180,-118
454,1406,0,2023-03-01T18:55:02.357273,1891890,168,797,1569,-1030,-572,-321,44,180,-118
455,1407,0,2023-03-01T18:55:02.363343,1891896,168,797,1569,-1030,-572,-321,44,180,-118
456,1408,0,2023-03-01T18:55:02.369015,1891902,169,795,1573,-1033,-565,-319,44,180,-118
457,1409,0,2023-03-01T18:55:02.374185,1891907,169,795,1573,-1033,-565,-319,44,180,-118
458,1410,0,2023-03-01T18:55:02.380015,1891913,169,795,1573,-1033,-565,-319,44,180,-118
459,1411,0,2023-03-01T18:55:02.385480,1891918,165,794,1569,-1041,-563,-331,44,180,-118
460,1412,0,2023-03-01T18:55:02.391721,1891924,165,794,1569,-1041,-563,-331,44,180,-118
461,1413,0,2023-03-01T18:55:02.396923,1891930,165,794,1569,-1041,-563,-331,44,180,-118
462,1414,0,2023-03-01T18:55:02.401875,1891935,165,794,1569,-1041,-563,-331,44,180,-118
463,1415,0,2023-03-01T18:55:02.406745,1891940,164,795,1569,-1034,-557,-325,44,180,-118
464,1416,0,2023-03-01T18:55:02.412156,1891945,164,795,1569,-1034,-557,-325,44,180,-118
465,1417,0,2023-03-01T18:55:02.417863,1891950,164,795,1569,-1034,-557,-325,44,180,-118
466,1418,0,2023-03-01T18:55:02.423645,1891957,166,792,1573,-1035,-566,-318,44,180,-118
467,1419,0,2023-03-01T18:55:02.430492,1891963,166,792,1573,-1035,-566,-318,44,180,-118
468,1420,0,2023-03-01T18:55:02.436098,1891969,166,792,1573,-1035,-566,-318,44,180,-118
469,1421,0,2023-03-01T18:55:02.441941,1891975,166,792,1573,-1035,-566,-318,44,180,-118
470,1422,0,2023-03-01T18:55:02.447020,1891980,165,789,1573,-1034,-576,-319,51,187,-123
471,1423,0,2023-03-01T18:55:02.452640,1891986,165,789,1573,-1034,-576,-319,51,187,-123
472,1424,0,2023-03-01T18:55:02.457770,1891991,165,789,1573,-1034,-576,-319,51,187,-123
473,1425,0,2023-03-01T18:55:02.464546,1891997,167,794,1573,-1029,-579,-319,51,187,-123
474,1426,0,2023-03-01T18:55:02.471056,1892004,167,794,1573,-1029,-579,-319,51,187,-123
475,1427,0,2023-03-01T18:55:02.476008,1892009,167,794,1573,-1029,-579,-319,51,187,-123
476,1428,0,2023-03-01T18:55:02.481526,1892015,167,794,1573,-1029,-579,-319,51,187,-123
477,1429,0,2023-03-01T18:55:02.486467,1892020,168,793,1573,-1029,-580,-319,51,187,-123
478,1430,0,2023-03-01T18:55:02.493124,1892026,168,793,1573,-1029,-580,-319,51,187,-123
479,1431,0,2023-03-01T18:55:02.497770,1892031,168,793,1573,-1029,-580,-319,51,187,-123
480,1432,0,2023-03-01T18:55:02.503556,1892036,169,797,1572,-1034,-576,-323,51,187,-123
481,1433,0,2023-03-01T18:55:02.510000,1892042,169,797,1572,-1034,-576,-323,51,187,-123
482,1434,0,2023-03-01T18:55:02.515181,1892048,169,797,1572,-1034,-576,-323,51,187,-123
483,1435,0,2023-03-01T18:55:02.520070,1892054,169,797,1572,-1034,-576,-323,51,187,-123
484,1436,0,2023-03-01T18:55:02.525064,1892058,164,794,1577,-1040,-569,-328,51,187,-123
485,1437,0,2023-03-01T18:55:02.531063,1892064,164,794,1577,-1040,-569,-328,51,187,-123
486,1438,0,2023-03-01T18:55:02.536013,1892069,164,794,1577,-1040,-569,-328,51,187,-123
487,1439,0,2023-03-01T18:55:02.541059,1892074,164,794,1577,-1040,-569,-328,51,187,-123
488,1440,0,2023-03-01T18:55:02.545837,1892079,166,793,1569,-1031,-564,-318,51,187,-123
489,1441,0,2023-03-01T18:55:02.551805,1892085,166,793,1569,-1031,-564,-318,51,187,-123
490,1442,0,2023-03-01T18:55:02.557248,1892090,166,793,1569,-1031,-564,-318,51,187,-123
491,1443,0,2023-03-01T18:55:02.562388,1892096,166,793,1569,-1031,-564,-318,51,187,-123
492,1444,0,2023-03-01T18:55:02.568395,1892102,165,793,1571,-1030,-572,-323,51,187,-123
493,1445,0,2023-03-01T18:55:02.573886,1892107,165,793,1571,-1030,-572,-323,51,187,-123
494,1446,0,2023-03-01T18:55:02.578881,1892112,165,793,1571,-1030,-572,-323,51,187,-123
495,1447,0,2023-03-01T18:55:02.584779,1892118,166,793,1576,-1037,-575,-321,47,183,-119
496,1448,0,2023-03-01T18:55:02.590899,1892124,166,793,1576,-1037,-575,-321,47,183,-119
497,1449,0,2023-03-01T18:55:02.596001,1892129,166,793,1576,-1037,-575,-321,47,183,-119
498,1450,0,2023-03-01T18:55:02.601278,1892134,166,793,1576,-1037,-575,-321,47,183,-119
499,1451,0,2023-03-01T18:55:02.606323,1892140,170,795,1572,-1032,-571,-324,47,183,-119
500,1452,0,2023-03-01T18:55:02.613190,1892146,170,795,1572,-1032,-571,-324,47,183,-119
501,1453,0,2023-03-01T18:55:02.618250,1892151,170,795,1572,-1032,-571,-324,47,183,-119
502,1454,0,2023-03-01T18:55:02.623671,1892157,165,795,1580,-1025,-571,-323,47,183,-119
503,1455,0,2023-03-01T18:55:02.629461,1892163,165,795,1580,-1025,-571,-323,47,183,-119
504,1456,0,2023-03-01T18:55:02.634696,1892167,165,795,1580,-1025,-571,-323,47,183,-119
505,1457,0,2023-03-01T18:55:02.640292,1892173,165,795,1580,-1025,-571,-323,47,183,-119
506,1458,0,2023-03-01T18:55:02.645547,1892178,169,792,1574,-1034,-573,-321,47,183,-119
507,1459,0,2023-03-01T18:55:02.651862,1892185,169,792,1574,-1034,-573,-321,47,183,-119
508,1460,0,2023-03-01T18:55:02.656614,1892190,169,792,1574,-1034,-573,-321,47,183,-119
509,1461,0,2023-03-01T18:55:02.661835,1892195,169,792,1574,-1034,-573,-321,47,183,-119
510,1462,0,2023-03-01T18:55:02.667521,1892201,166,792,1566,-1041,-563,-325,47,183,-119
511,1463,0,2023-03-01T18:55:02.672999,1892206,166,792,1566,-1041,-563,-325,47,183,-119
512,1464,0,2023-03-01T18:55:02.678103,1892211,166,792,1566,-1041,-563,-325,47,183,-119
513,1465,0,2023-03-01T18:55:02.683586,1892216,166,792,1566,-1041,-563,-325,47,183,-119
514,1466,0,2023-03-01T18:55:02.690266,1892222,162,796,1573,-1045,-569,-313,47,183,-119
515,1467,0,2023-03-01T18:55:02.696473,1892229,162,796,1573,-1045,-569,-313,47,183,-119
516,1468,0,2023-03-01T18:55:02.702301,1892236,162,796,1573,-1045,-569,-313,47,183,-119
517,1469,0,2023-03-01T18:55:02.707751,1892241,164,793,1574,-1043,-568,-327,43,197,-117
518,1470,0,2023-03-01T18:55:02.713543,1892246,164,793,1574,-1043,-568,-327,43,197,-117
519,1471,0,2023-03-01T18:55:02.718546,1892251,164,793,1574,-1043,-568,-327,43,197,-117
520,1472,0,2023-03-01T18:55:02.724380,1892257,167,794,1575,-1035,-576,-316,43,197,-117
521,1473,0,2023-03-01T18:55:02.730170,1892263,167,794,1575,-1035,-576,-316,43,197,-117
522,1474,0,2023-03-01T18:55:02.735316,1892269,167,794,1575,-1035,-576,-316,43,197,-117
523,1475,0,2023-03-01T18:55:02.740744,1892274,167,794,1575,-1035,-576,-316,43,197,-117
524,1476,0,2023-03-01T18:55:02.745845,1892279,165,795,1566,-1041,-571,-324,43,197,-117
525,1477,0,2023-03-01T18:55:02.752639,1892286,165,795,1566,-1041,-571,-324,43,197,-117
526,1478,0,2023-03-01T18:55:02.757477,1892290,165,795,1566,-1041,-571,-324,43,197,-117
527,1479,0,2023-03-01T18:55:02.762187,1892295,165,795,1566,-1041,-571,-324,43,197,-117
528,1480,0,2023-03-01T18:55:02.768092,1892301,170,792,1569,-1042,-569,-326,43,197,-117
529,1481,0,2023-03-01T18:55:02.773810,1892306,170,792,1569,-1042,-569,-326,43,197,-117
530,1482,0,2023-03-01T18:55:02.778972,1892312,170,792,1569,-1042,-569,-326,43,197,-117
531,1483,0,2023-03-01T18:55:02.784835,1892318,167,794,1573,-1032,-563,-321,43,197,-117
532,1484,0,2023-03-01T18:55:02.791937,1892324,167,794,1573,-1032,-563,-321,43,197,-117
533,1485,0,2023-03-01T18:55:02.797168,1892330,167,794,1573,-1032,-563,-321,43,197,-117
534,1486,0,2023-03-01T18:55:02.804010,1892337,166,794,1571,-1036,-570,-313,43,197,-117
535,1487,0,2023-03-01T18:55:02.810640,1892343,166,794,1571,-1036,-570,-313,43,197,-117
536,1488,0,2023-03-01T18:55:02.815816,1892348,166,794,1571,-1036,-570,-313,43,197,-117
537,1489,0,2023-03-01T18:55:02.821197,1892354,166,794,1571,-1036,-570,-313,43,197,-117
538,1490,0,2023-03-01T18:55:02.827204,1892360,168,794,1575,-1031,-568,-323,43,197,-117
539,1491,0,2023-03-01T18:55:02.834134,1892367,168,794,1575,-1031,-568,-323,43,197,-117
540,1492,0,2023-03-01T18:55:02.839322,1892372,168,794,1575,-1031,-568,-323,43,197,-117
541,1493,0,2023-03-01T18:55:02.844903,1892378,163,793,1573,-1035,-568,-319,48,182,-118
542,1494,0,2023-03-01T18:55:02.850943,1892384,163,793,1573,-1035,-568,-319,48,182,-118
543,1495,0,2023-03-01T18:55:02.857029,1892389,163,793,1573,-1035,-568,-319,48,182,-118
544,1496,0,2023-03-01T18:55:02.862737,1892396,163,793,1573,-1035,-568,-319,48,182,-118
545,1497,0,2023-03-01T18:55:02.868610,1892401,168,792,1571,-1025,-570,-323,48,182,-118
546,1498,0,2023-03-01T18:55:02.874525,1892408,168,792,1571,-1025,-570,-323,48,182,-118
547,1499,0,2023-03-01T18:55:02.879851,1892413,168,792,1571,-1025,-570,-323,48,182,-118
548,1500,0,2023-03-01T18:55:02.884915,1892418,169,795,1576,-1032,-576,-323,48,182,-118
549,1501,0,2023-03-01T18:55:02.889810,1892423,169,795,1576,-1032,-576,-323,48,182,-118
550,1502,0,2023-03-01T18:55:02.895404,1892428,169,795,1576,-1032,-576,-323,48,182,-118
551,1503,0,2023-03-01T18:55:02.900539,1892433,169,795,1576,-1032,-576,-323,48,182,-118
552,1504,0,2023-03-01T18:55:02.905745,1892439,170,796,1574,-1038,-572,-323,48,182,-118
553,1505,0,2023-03-01T18:55:02.912020,1892445,170,796,1574,-1038,-572,-323,48,182,-118
554,1506,0,2023-03-01T18:55:02.917200,1892450,170,796,1574,-1038,-572,-323,48,182,-118
555,1507,0,2023-03-01T18:55:02.923096,1892456,170,796,1574,-1038,-572,-323,48,182,-118
556,1508,0,2023-03-01T18:55:02.928011,1892461,168,792,1576,-1035,-570,-321,48,182,-118
557,1509,0,2023-03-01T18:55:02.933563,1892466,168,792,1576,-1035,-570,-321,48,182,-118
558,1510,0,2023-03-01T18:55:02.938610,1892471,168,792,1576,-1035,-570,-321,48,182,-118
559,1511,0,2023-03-01T18:55:02.943753,1892476,168,792,1576,-1035,-570,-321,48,182,-118
560,1512,0,2023-03-01T18:55:02.950022,1892484,165,792,1573,-1038,-570,-327,48,182,-118
561,1513,0,2023-03-01T18:55:02.955197,1892489,165,792,1573,-1038,-570,-327,48,182,-118
562,1514,0,2023-03-01T18:55:02.959698,1892493,165,792,1573,-1038,-570,-327,48,182,-118
563,1515,0,2023-03-01T18:55:02.964867,1892498,164,792,1570,-1033,-572,-316,45,191,-119
564,1516,0,2023-03-01T18:55:02.971107,1892504,164,792,1570,-1033,-572,-316,45,191,-119
565,1517,0,2023-03-01T18:55:02.976438,1892509,164,792,1570,-1033,-572,-316,45,191,-119
566,1518,0,2023-03-01T18:55:02.981250,1892514,164,792,1570,-1033,-572,-316,45,191,-119
567,1519,0,2023-03-01T18:55:02.985988,1892519,166,792,1577,-1030,-565,-320,45,191,-119
568,1520,0,2023-03-01T18:55:02.991870,1892526,166,792,1577,-1030,-565,-320,45,191,-119
569,1521,0,2023-03-01T18:55:02.996844,1892530,166,792,1577,-1030,-565,-320,45,191,-119
570,1522,0,2023-03-01T18:55:03.001833,1892535,166,792,1577,-1030,-565,-320,45,191,-119
571,1523,0,2023-03-01T18:55:03.007151,1892540,167,793,1576,-1027,-571,-321,45,191,-119
572,1524,0,2023-03-01T18:55:03.012852,1892545,167,793,1576,-1027,-571,-321,45,191,-119
573,1525,0,2023-03-01T18:55:03.018101,1892551,167,793,1576,-1027,-571,-321,45,191,-119
574,1526,0,2023-03-01T18:55:03.024427,1892557,168,789,1569,-1038,-575,-317,45,191,-119
575,1527,0,2023-03-01T18:55:03.030545,1892563,168,789,1569,-1038,-575,-317,45,191,-119
576,1528,0,2023-03-01T18:55:03.035507,1892569,168,789,1569,-1038,-575,-317,45,191,-119
577,1529,0,2023-03-01T18:55:03.040658,1892574,168,789,1569,-1038,-575,-317,45,191,-119
578,1530,0,2023-03-01T18:55:03.045540,1892579,167,792,1572,-1025,-566,-323,45,191,-119
579,1531,0,2023-03-01T18:55:03.051636,1892584,167,792,1572,-1025,-566,-323,45,191,-119
580,1532,0,2023-03-01T18:55:03.056724,1892590,167,792,1572,-1025,-566,-323,45,191,-119
581,1533,0,2023-03-01T18:55:03.062199,1892595,167,792,1572,-1025,-566,-323,45,191,-119
582,1534,0,2023-03-01T18:55:03.067641,1892600,166,793,1575,-1034,-565,-321,45,191,-119
583,1535,0,2023-03-01T18:55:03.073337,1892606,166,793,1575,-1034,-565,-321,45,191,-119
584,1536,0,2023-03-01T18:55:03.078420,1892612,166,793,1575,-1034,-565,-321,45,191,-119
585,1537,0,2023-03-01T18:55:03.084218,1892618,169,791,1574,-1031,-571,-320,45,191,-119
586,1538,0,2023-03-01T18:55:03.091065,1892624,169,791,1574,-1031,-571,-320,45,191,-119
587,1539,0,2023-03-01T18:55:03.096063,1892629,169,791,1574,-1031,-571,-320,45,191,-119
588,1540,0,2023-03-01T18:55:03.100428,1892634,169,791,1574,-1031,-571,-320,45,191,-119
589,1541,0,2023-03-01T18:55:03.105411,1892638,168,792,1574,-1035,-577,-327,51,193,-119
590,1542,0,2023-03-01T18:55:03.111719,1892644,168,792,1574,-1035,-577,-327,51,193,-119
591,1543,0,2023-03-01T18:55:03.116578,1892649,168,792,1574,-1035,-577,-327,51,193,-119
592,1544,0,2023-03-01T18:55:03.121509,1892655,168,792,1574,-1035,-577,-327,51,193,-119
593,1545,0,2023-03-01T18:55:03.126426,1892660,167,790,1575,-1028,-577,-322,51,193,-119
594,1546,0,2023-03-01T18:55:03.132944,1892666,167,790,1575,-1028,-577,-322,51,193,-119
595,1547,0,2023-03-01T18:55:03.137821,1892671,167,790,1575,-1028,-577,-322,51,193,-119
596,1548,0,2023-03-01T18:55:03.143053,1892676,167,790,1575,-1028,-577,-322,51,193,-119
597,1549,0,2023-03-01T18:55:03.148518,1892681,166,793,1567,-1032,-572,-321,51,193,-119
598,1550,0,2023-03-01T18:55:03.154165,1892687,166,793,1567,-1032,-572,-321,51,193,-119
599,1551,0,2023-03-01T18:55:03.159482,1892692,166,793,1567,-1032,-572,-321,51,193,-119
600,1552,0,2023-03-01T18:55:03.164565,1892698,164,793,1571,-1036,-577,-322,51,193,-119
601,1553,0,2023-03-01T18:55:03.172470,1892705,164,793,1571,-1036,-577,-322,51,193,-119
602,1554,0,2023-03-01T18:55:03.177388,1892711,164,793,1571,-1036,-577,-322,51,193,-119
603,1555,0,2023-03-01T18:55:03.182568,1892716,164,793,1571,-1036,-577,-322,51,193,-119
604,1556,0,2023-03-01T18:55:03.188286,1892721,167,795,1569,-1032,-573,-321,51,193,-119
605,1557,0,2023-03-01T18:55:03.194322,1892727,167,795,1569,-1032,-573,-321,51,193,-119
606,1558,0,2023-03-01T18:55:03.199231,1892732,167,795,1569,-1032,-573,-321,51,193,-119
607,1559,0,2023-03-01T18:55:03.204828,1892738,171,791,1571,-1033,-570,-324,51,193,-119
608,1560,0,2023-03-01T18:55:03.210698,1892744,171,791,1571,-1033,-570,-324,51,193,-119
609,1561,0,2023-03-01T18:55:03.215794,1892749,171,791,1571,-1033,-570,-324,51,193,-119
610,1562,0,2023-03-01T18:55:03.221241,1892754,171,791,1571,-1033,-570,-324,51,193,-119
611,1563,0,2023-03-01T18:55:03.226735,1892760,168,792,1575,-1036,-567,-321,47,183,-121
612,1564,0,2023-03-01T18:55:03.234550,1892767,168,792,1575,-1036,-567,-321,47,183,-121
613,1565,0,2023-03-01T18:55:03.239609,1892772,168,792,1575,-1036,-567,-321,47,183,-121
614,1566,0,2023-03-01T18:55:03.244922,1892777,167,790,1572,-1042,-569,-320,47,183,-121
615,1567,0,2023-03-01T18:55:03.251951,1892785,167,790,1572,-1042,-569,-320,47,183,-121
616,1568,0,2023-03-01T18:55:03.256805,1892790,167,790,1572,-1042,-569,-320,47,183,-121
617,1569,0,2023-03-01T18:55:03.262351,1892795,167,790,1572,-1042,-569,-320,47,183,-121
618,1570,0,2023-03-01T18:55:03.267650,1892801,166,791,1571,-1039,-568,-318,47,183,-121
619,1571,0,2023-03-01T18:55:03.272995,1892806,166,791,1571,-1039,-568,-318,47,183,-121
620,1572,0,2023-03-01T18:55:03.278346,1892811,166,791,1571,-1039,-568,-318,47,183,-121
621,1573,0,2023-03-01T18:55:03.283963,1892817,163,794,1567,-1045,-579,-329,47,183,-121
622,1574,0,2023-03-01T18:55:03.289843,1892824,163,794,1567,-1045,-579,-329,47,183,-121
623,1575,0,2023-03-01T18:55:03.295419,1892829,163,794,1567,-1045,-579,-329,47,183,-121
624,1576,0,2023-03-01T18:55:03.300871,1892834,163,794,1567,-1045,-579,-329,47,183,-121
625,1577,0,2023-03-01T18:55:03.306054,1892839,167,794,1570,-1041,-576,-324,47,183,-121
626,1578,0,2023-03-01T18:55:03.312917,1892846,167,794,1570,-1041,-576,-324,47,183,-121
627,1579,0,2023-03-01T18:55:03.317928,1892851,167,794,1570,-1041,-576,-324,47,183,-121
628,1580,0,2023-03-01T18:55:03.323440,1892856,167,794,1570,-1041,-576,-324,47,183,-121
629,1581,0,2023-03-01T18:55:03.329363,1892862,167,793,1573,-1030,-569,-328,47,183,-121
630,1582,0,2023-03-01T18:55:03.335328,1892868,167,793,1573,-1030,-569,-328,47,183,-121
631,1583,0,2023-03-01T18:55:03.341383,1892874,167,793,1573,-1030,-569,-328,47,183,-121
632,1584,0,2023-03-01T18:55:03.346740,1892880,166,797,1577,-1034,-566,-318,43,191,-123
633,1585,0,2023-03-01T18:55:03.353912,1892887,166,797,1577,-1034,-566,-318,43,191,-123
634,1586,0,2023-03-01T18:55:03.359229,1892892,166,797,1577,-1034,-566,-318,43,191,-123
635,1587,0,2023-03-01T18:55:03.364364,1892897,166,797,1577,-1034,-566,-318,43,191,-123
636,1588,0,2023-03-01T18:55:03.369383,1892902,163,795,1574,-1030,-569,-323,43,191,-123
637,1589,0,2023-03-01T18:55:03.375074,1892909,163,795,1574,-1030,-569,-323,43,191,-123
638,1590,0,2023-03-01T18:55:03.380476,1892914,163,795,1574,-1030,-569,-323,43,191,-123
639,1591,0,2023-03-01T18:55:03.385327,1892918,167,793,1570,-1034,-571,-323,43,191,-123
640,1592,0,2023-03-01T18:55:03.391564,1892925,167,793,1570,-1034,-571,-323,43,191,-123
641,1593,0,2023-03-01T18:55:03.396584,1892930,167,793,1570,-1034,-571,-323,43,191,-123
642,1594,0,2023-03-01T18:55:03.401660,1892935,167,793,1570,-1034,-571,-323,43,191,-123
643,1595,0,2023-03-01T18:55:03.406823,1892939,162,791,1573,-1041,-570,-324,43,191,-123
644,1596,0,2023-03-01T18:55:03.413222,1892946,162,791,1573,-1041,-570,-324,43,191,-123
645,1597,0,2023-03-01T18:55:03.418472,1892952,162,791,1573,-1041,-570,-324,43,191,-123
646,1598,0,2023-03-01T18:55:03.423281,1892957,162,791,1573,-1041,-570,-324,43,191,-123
647,1599,0,2023-03-01T18:55:03.428937,1892962,165,792,1569,-1036,-583,-322,43,191,-123
648,1600,0,2023-03-01T18:55:03.435425,1892968,165,792,1569,-1036,-583,-322,43,191,-123
649,1601,0,2023-03-01T18:55:03.441150,1892974,165,792,1569,-1036,-583,-322,43,191,-123
650,1602,0,2023-03-01T18:55:03.446313,1892979,168,794,1567,-1034,-574,-326,43,191,-123
651,1603,0,2023-03-01T18:55:03.453056,1892986,168,794,1567,-1034,-574,-326,43,191,-123
652,1604,0,2023-03-01T18:55:03.458112,1892992,168,794,1567,-1034,-574,-326,43,191,-123
653,1605,0,2023-03-01T18:55:03.463149,1892997,168,794,1567,-1034,-574,-326,43,191,-123
654,1606,0,2023-03-01T18:55:03.469357,1893002,166,794,1572,-1030,-571,-316,43,191,-123
655,1607,0,2023-03-01T18:55:03.474767,1893008,166,794,1572,-1030,-571,-316,43,191,-123
656,1608,0,2023-03-01T18:55:03.479980,1893013,166,794,1572,-1030,-571,-316,43,191,-123
657,1609,0,2023-03-01T18:55:03.485855,1893019,168,792,1573,-1036,-573,-317,48,188,-120
658,1610,0,2023-03-01T18:55:03.492156,1893025,168,792,1573,-1036,-573,-317,48,188,-120
659,1611,0,2023-03-01T18:55:03.497631,1893030,168,792,1573,-1036,-573,-317,48,188,-120
660,1612,0,2023-03-01T18:55:03.503270,1893037,168,792,1573,-1036,-573,-317,48,188,-120
661,1613,0,2023-03-01T18:55:03.508940,1893042,167,793,1576,-1029,-574,-321,48,188,-120
662,1614,0,2023-03-01T18:55:03.516021,1893048,167,793,1576,-1029,-574,-321,48,188,-120
663,1615,0,2023-03-01T18:55:03.520925,1893054,167,793,1576,-1029,-574,-321,48,188,-120
664,1616,0,2023-03-01T18:55:03.526333,1893059,169,793,1569,-1035,-572,-320,48,188,-120
665,1617,0,2023-03-01T18:55:03.532492,1893065,169,793,1569,-1035,-572,-320,48,188,-120
666,1618,0,2023-03-01T18:55:03.537199,1893070,169,793,1569,-1035,-572,-320,48,188,-120
667,1619,0,2023-03-01T18:55:03.542425,1893075,169,793,1569,-1035,-572,-320,48,188,-120
668,1620,0,2023-03-01T18:55:03.548252,1893082,166,793,1566,-1036,-573,-321,48,188,-120
669,1621,0,2023-03-01T18:55:03.554430,1893087,166,793,1566,-1036,-573,-321,48,188,-120
670,1622,0,2023-03-01T18:55:03.559637,1893093,166,793,1566,-1036,-573,-321,48,188,-120
671,1623,0,2023-03-01T18:55:03.564545,1893098,166,793,1566,-1036,-573,-321,48,188,-120
672,1624,0,2023-03-01T18:55:03.570533,1893103,164,791,1571,-1028,-575,-319,48,188,-120
673,1625,0,2023-03-01T18:55:03.575995,1893109,164,791,1571,-1028,-575,-319,48,188,-120
674,1626,0,2023-03-01T18:55:03.581324,1893114,164,791,1571,-1028,-575,-319,48,188,-120
675,1627,0,2023-03-01T18:55:03.586162,1893120,169,793,1571,-1037,-571,-322,48,188,-120
676,1628,0,2023-03-01T18:55:03.592109,1893126,169,793,1571,-1037,-571,-322,48,188,-120
677,1629,0,2023-03-01T18:55:03.596449,1893130,169,793,1571,-1037,-571,-322,48,188,-120
678,1630,0,2023-03-01T18:55:03.602250,1893135,169,793,1571,-1037,-571,-322,48,188,-120
679,1631,0,2023-03-01T18:55:03.608104,1893141,168,792,1570,-1036,-568,-318,40,196,-114
680,1632,0,2023-03-01T18:55:03.613333,1893146,168,792,1570,-1036,-568,-318,40,196,-114
681,1633,0,2023-03-01T18:55:03.618680,1893151,168,792,1570,-1036,-568,-318,40,196,-114
682,1634,0,2023-03-01T18:55:03.624390,1893157,168,792,1570,-1036,-568,-318,40,196,-114
683,1635,0,2023-03-01T18:55:03.630006,1893164,168,794,1573,-1034,-578,-314,40,196,-114
684,1636,0,2023-03-01T18:55:03.635138,1893168,168,794,1573,-1034,-578,-314,40,196,-114
685,1637,0,2023-03-01T18:55:03.639900,1893173,168,794,1573,-1034,-578,-314,40,196,-114
686,1638,0,2023-03-01T18:55:03.644691,1893178,166,792,1578,-1052,-581,-328,40,196,-114
687,1639,0,2023-03-01T18:55:03.650385,1893183,166,792,1578,-1052,-581,-328,40,196,-114
688,1640,0,2023-03-01T18:55:03.655153,1893188,166,792,1578,-1052,-581,-328,40,196,-114
689,1641,0,2023-03-01T18:55:03.660677,1893193,166,792,1578,-1052,-581,-328,40,196,-114
690,1642,0,2023-03-01T18:55:03.665820,1893198,169,794,1577,-1050,-580,-324,40,196,-114
691,1643,0,2023-03-01T18:55:03.672644,1893206,169,794,1577,-1050,-580,-324,40,196,-114
692,1644,0,2023-03-01T18:55:03.677662,1893211,169,794,1577,-1050,-580,-324,40,196,-114
693,1645,0,2023-03-01T18:55:03.683657,1893217,169,794,1577,-1050,-580,-324,40,196,-114
694,1646,0,2023-03-01T18:55:03.689393,1893223,164,794,1574,-1046,-571,-319,40,196,-114
695,1647,0,2023-03-01T18:55:03.695016,1893228,164,794,1574,-1046,-571,-319,40,196,-114
696,1648,0,2023-03-01T18:55:03.699681,1893233,164,794,1574,-1046,-571,-319,40,196,-114
697,1649,0,2023-03-01T18:55:03.705151,1893238,164,792,1574,-1029,-574,-316,40,196,-114
698,1650,0,2023-03-01T18:55:03.711086,1893244,164,792,1574,-1029,-574,-316,40,196,-114
699,1651,0,2023-03-01T18:55:03.716356,1893250,164,792,1574,-1029,-574,-316,40,196,-114
700,1652,0,2023-03-01T18:55:03.722276,1893256,164,792,1574,-1029,-574,-316,40,196,-114
701,1653,0,2023-03-01T18:55:03.727801,1893261,167,793,1568,-1036,-575,-322,40,196,-114
702,1654,0,2023-03-01T18:55:03.732914,1893266,167,793,1568,-1036,-575,-322,40,196,-114
703,1655,0,2023-03-01T18:55:03.737661,1893271,167,793,1568,-1036,-575,-322,40,196,-114
704,1656,0,2023-03-01T18:55:03.743980,1893277,167,793,1568,-1036,-575,-322,40,196,-114
705,1657,0,2023-03-01T18:55:03.749557,1893282,167,798,1575,-1043,-576,-321,49,189,-125
706,1658,0,2023-03-01T18:55:03.754818,1893288,167,798,1575,-1043,-576,-321,49,189,-125
707,1659,0,2023-03-01T18:55:03.759996,1893294,167,798,1575,-1043,-576,-321,49,189,-125
708,1660,0,2023-03-01T18:55:03.765852,1893299,167,795,1575,-1037,-575,-327,49,189,-125
709,1661,0,2023-03-01T18:55:03.772683,1893305,167,795,1575,-1037,-575,-327,49,189,-125
710,1662,0,2023-03-01T18:55:03.777899,1893311,167,795,1575,-1037,-575,-327,49,189,-125
711,1663,0,2023-03-01T18:55:03.782929,1893316,167,795,1575,-1037,-575,-327,49,189,-125
712,1664,0,2023-03-01T18:55:03.788619,1893321,168,791,1569,-1034,-568,-317,49,189,-125
713,1665,0,2023-03-01T18:55:03.793839,1893327,168,791,1569,-1034,-568,-317,49,189,-125
714,1666,0,2023-03-01T18:55:03.798813,1893331,168,791,1569,-1034,-568,-317,49,189,-125
715,1667,0,2023-03-01T18:55:03.803925,1893337,168,791,1569,-1034,-568,-317,49,189,-125
716,1668,0,2023-03-01T18:55:03.809457,1893343,164,794,1576,-1044,-571,-318,49,189,-125
717,1669,0,2023-03-01T18:55:03.815123,1893348,164,794,1576,-1044,-571,-318,49,189,-125
718,1670,0,2023-03-01T18:55:03.820173,1893353,164,794,1576,-1044,-571,-318,49,189,-125
719,1671,0,2023-03-01T18:55:03.825142,1893358,168,795,1571,-1043,-573,-327,49,189,-125
720,1672,0,2023-03-01T18:55:03.831023,1893364,168,795,1571,-1043,-573,-327,49,189,-125
721,1673,0,2023-03-01T18:55:03.836271,1893369,168,795,1571,-1043,-573,-327,49,189,-125
722,1674,0,2023-03-01T18:55:03.841239,1893374,168,795,1571,-1043,-573,-327,49,189,-125
723,1675,0,2023-03-01T18:55:03.846291,1893380,168,793,1574,-1031,-575,-326,49,189,-125
724,1676,0,2023-03-01T18:55:03.852525,1893386,168,793,1574,-1031,-575,-326,49,189,-125
725,1677,0,2023-03-01T18:55:03.858151,1893391,168,793,1574,-1031,-575,-326,49,189,-125
726,1678,0,2023-03-01T18:55:03.864265,1893397,168,793,1574,-1031,-575,-326,49,189,-125
727,1679,0,2023-03-01T18:55:03.870229,1893403,168,792,1572,-1039,-572,-333,47,185,-121
728,1680,0,2023-03-01T18:55:03.875621,1893409,168,792,1572,-1039,-572,-333,47,185,-121
729,1681,0,2023-03-01T18:55:03.881993,1893413,168,792,1572,-1039,-572,-333,47,185,-121
730,1682,0,2023-03-01T18:55:03.888002,1893421,167,792,1567,-1043,-567,-326,47,185,-121
731,1683,0,2023-03-01T18:55:03.894532,1893428,167,792,1567,-1043,-567,-326,47,185,-121
732,1684,0,2023-03-01T18:55:03.899504,1893433,167,792,1567,-1043,-567,-326,47,185,-121
733,1685,0,2023-03-01T18:55:03.904532,1893438,167,792,1567,-1043,-567,-326,47,185,-121
734,1686,0,2023-03-01T18:55:03.911005,1893444,160,795,1573,-1052,-572,-321,47,185,-121
735,1687,0,2023-03-01T18:55:03.917181,1893450,160,795,1573,-1052,-572,-321,47,185,-121
736,1688,0,2023-03-01T18:55:03.922275,1893455,160,795,1573,-1052,-572,-321,47,185,-121
737,1689,0,2023-03-01T18:55:03.927396,1893460,165,791,1573,-1039,-570,-325,47,185,-121
738,1690,0,2023-03-01T18:55:03.933670,1893467,165,791,1573,-1039,-570,-325,47,185,-121
739,1691,0,2023-03-01T18:55:03.938505,1893472,165,791,1573,-1039,-570,-325,47,185,-121
740,1692,0,2023-03-01T18:55:03.943606,1893477,165,791,1573,-1039,-570,-325,47,185,-121
741,1693,0,2023-03-01T18:55:03.949704,1893483,164,793,1577,-1034,-567,-322,47,185,-121
742,1694,0,2023-03-01T18:55:03.955293,1893488,164,793,1577,-1034,-567,-322,47,185,-121
743,1695,0,2023-03-01T18:55:03.960026,1893493,164,793,1577,-1034,-567,-322,47,185,-121
744,1696,0,2023-03-01T18:55:03.965179,1893498,164,793,1577,-1034,-567,-322,47,185,-121
745,1697,0,2023-03-01T18:55:03.970802,1893504,164,794,1564,-1033,-567,-322,47,185,-121
746,1698,0,2023-03-01T18:55:03.976598,1893510,164,794,1564,-1033,-567,-322,47,185,-121
747,1699,0,2023-03-01T18:55:03.981569,1893515,164,794,1564,-1033,-567,-322,47,185,-121
748,1700,0,2023-03-01T18:55:03.986709,1893520,165,790,1567,-1039,-573,-320,49,187,-117
749,1701,0,2023-03-01T18:55:03.992725,1893526,165,790,1567,-1039,-573,-320,49,187,-117
750,1702,0,2023-03-01T18:55:03.998317,1893531,165,790,1567,-1039,-573,-320,49,187,-117
751,1703,0,2023-03-01T18:55:04.003756,1893536,165,790,1567,-1039,-573,-320,49,187,-117
752,1704,0,2023-03-01T18:55:04.009974,1893543,169,792,1572,-1035,-575,-325,49,187,-117
753,1705,0,2023-03-01T18:55:04.015169,1893549,169,792,1572,-1035,-575,-325,49,187,-117
754,1706,0,2023-03-01T18:55:04.020226,1893554,169,792,1572,-1035,-575,-325,49,187,-117
755,1707,0,2023-03-01T18:55:04.025189,1893559,167,793,1575,-1041,-572,-326,49,187,-117
756,1708,0,2023-03-01T18:55:04.031510,1893565,167,793,1575,-1041,-572,-326,49,187,-117
757,1709,0,2023-03-01T18:55:04.036683,1893570,167,793,1575,-1041,-572,-326,49,187,-117
758,1710,0,2023-03-01T18:55:04.041883,1893575,167,793,1575,-1041,-572,-326,49,187,-117
759,1711,0,2023-03-01T18:55:04.047108,1893580,165,790,1574,-1049,-580,-325,49,187,-117
760,1712,0,2023-03-01T18:55:04.053503,1893586,165,790,1574,-1049,-580,-325,49,187,-117
761,1713,0,2023-03-01T18:55:04.058344,1893592,165,790,1574,-1049,-580,-325,49,187,-117
762,1714,0,2023-03-01T18:55:04.063062,1893596,165,790,1574,-1049,-580,-325,49,187,-117
763,1715,0,2023-03-01T18:55:04.069103,1893602,170,791,1571,-1036,-578,-321,49,187,-117
764,1716,0,2023-03-01T18:55:04.074458,1893608,170,791,1571,-1036,-578,-321,49,187,-117
765,1717,0,2023-03-01T18:55:04.079713,1893613,170,791,1571,-1036,-578,-321,49,187,-117
766,1718,0,2023-03-01T18:55:04.085984,1893619,168,794,1572,-1030,-572,-319,49,187,-117
767,1719,0,2023-03-01T18:55:04.092525,1893625,168,794,1572,-1030,-572,-319,49,187,-117
768,1720,0,2023-03-01T18:55:04.097357,1893630,168,794,1572,-1030,-572,-319,49,187,-117
769,1721,0,2023-03-01T18:55:04.103523,1893637,168,794,1572,-1030,-572,-319,49,187,-117
770,1722,0,2023-03-01T18:55:04.109333,1893643,169,794,1570,-1038,-574,-318,49,187,-117
771,1723,0,2023-03-01T18:55:04.115002,1893648,169,794,1570,-1038,-574,-318,49,187,-117
772,1724,0,2023-03-01T18:55:04.119518,1893653,169,794,1570,-1038,-574,-318,49,187,-117
773,1725,0,2023-03-01T18:55:04.124428,1893657,169,794,1570,-1038,-574,-318,49,187,-117
774,1726,0,2023-03-01T18:55:04.130039,1893663,167,793,1578,-1043,-572,-327,37,189,-119
775,1727,0,2023-03-01T18:55:04.136067,1893668,167,793,1578,-1043,-572,-327,37,189,-119
776,1728,0,2023-03-01T18:55:04.141098,1893675,167,793,1578,-1043,-572,-327,37,189,-119
777,1729,0,2023-03-01T18:55:04.146060,1893680,168,793,1572,-1041,-574,-320,37,189,-119
778,1730,0,2023-03-01T18:55:04.152124,1893685,168,793,1572,-1041,-574,-320,37,189,-119
779,1731,0,2023-03-01T18:55:04.157040,1893690,168,793,1572,-1041,-574,-320,37,189,-119
780,1732,0,2023-03-01T18:55:04.162012,1893695,168,793,1572,-1041,-574,-320,37,189,-119
781,1733,0,2023-03-01T18:55:04.167344,1893700,171,793,1572,-1035,-570,-320,37,189,-119
782,1734,0,2023-03-01T18:55:04.173471,1893706,171,793,1572,-1035,-570,-320,37,189,-119
783,1735,0,2023-03-01T18:55:04.178373,1893711,171,793,1572,-1035,-570,-320,37,189,-119
784,1736,0,2023-03-01T18:55:04.183898,1893716,171,793,1572,-1035,-570,-320,37,189,-119
785,1737,0,2023-03-01T18:55:04.189544,1893723,168,790,1570,-1036,-567,-319,37,189,-119
786,1738,0,2023-03-01T18:55:04.195565,1893729,168,790,1570,-1036,-567,-319,37,189,-119
787,1739,0,2023-03-01T18:55:04.200164,1893734,168,790,1570,-1036,-567,-319,37,189,-119
788,1740,0,2023-03-01T18:55:04.205649,1893739,169,790,1571,-1039,-566,-319,37,189,-119
789,1741,0,2023-03-01T18:55:04.212971,1893745,169,790,1571,-1039,-566,-319,37,189,-119
790,1742,0,2023-03-01T18:55:04.218536,1893751,169,790,1571,-1039,-566,-319,37,189,-119
791,1743,0,2023-03-01T18:55:04.223566,1893756,169,790,1571,-1039,-566,-319,37,189,-119
792,1744,0,2023-03-01T18:55:04.228880,1893763,167,793,1573,-1038,-572,-321,37,189,-119
793,1745,0,2023-03-01T18:55:04.234612,1893768,167,793,1573,-1038,-572,-321,37,189,-119
794,1746,0,2023-03-01T18:55:04.239446,1893773,167,793,1573,-1038,-572,-321,37,189,-119
795,1747,0,2023-03-01T18:55:04.244256,1893777,167,793,1573,-1038,-572,-321,37,189,-119
796,1748,0,2023-03-01T18:55:04.249748,1893783,168,792,1577,-1033,-574,-323,45,189,-123
797,1749,0,2023-03-01T18:55:04.255096,1893788,168,792,1577,-1033,-574,-323,45,189,-123
798,1750,0,2023-03-01T18:55:04.259991,1893793,168,792,1577,-1033,-574,-323,45,189,-123
799,1751,0,2023-03-01T18:55:04.265010,1893798,168,792,1577,-1033,-574,-323,45,189,-123
800,1752,0,2023-03-01T18:55:04.271319,1893804,167,794,1576,-1036,-577,-333,45,189,-123
801,1753,0,2023-03-01T18:55:04.277055,1893811,167,794,1576,-1036,-577,-333,45,189,-123
802,1754,0,2023-03-01T18:55:04.282600,1893816,167,794,1576,-1036,-577,-333,45,189,-123
803,1755,0,2023-03-01T18:55:04.287957,1893821,169,796,1567,-1035,-579,-324,45,189,-123
804,1756,0,2023-03-01T18:55:04.293270,1893826,169,796,1567,-1035,-579,-324,45,189,-123
805,1757,0,2023-03-01T18:55:04.298068,1893831,169,796,1567,-1035,-579,-324,45,189,-123
806,1758,0,2023-03-01T18:55:04.303754,1893837,169,796,1567,-1035,-579,-324,45,189,-123
807,1759,0,2023-03-01T18:55:04.309222,1893842,167,792,1574,-1028,-569,-316,45,189,-123
808,1760,0,2023-03-01T18:55:04.314868,1893849,167,792,1574,-1028,-569,-316,45,189,-123
809,1761,0,2023-03-01T18:55:04.320374,1893853,167,792,1574,-1028,-569,-316,45,189,-123
810,1762,0,2023-03-01T18:55:04.326217,1893859,167,792,1574,-1028,-569,-316,45,189,-123
811,1763,0,2023-03-01T18:55:04.333421,1893866,169,793,1573,-1037,-566,-324,45,189,-123
812,1764,0,2023-03-01T18:55:04.339368,1893872,169,793,1573,-1037,-566,-324,45,189,-123
813,1765,0,2023-03-01T18:55:04.345138,1893878,169,793,1573,-1037,-566,-324,45,189,-123
814,1766,0,2023-03-01T18:55:04.350500,1893883,168,795,1569,-1046,-575,-331,45,189,-123
815,1767,0,2023-03-01T18:55:04.356137,1893890,168,795,1569,-1046,-575,-331,45,189,-123
816,1768,0,2023-03-01T18:55:04.361278,1893895,168,795,1569,-1046,-575,-331,45,189,-123
817,1769,0,2023-03-01T18:55:04.366029,1893899,167,792,1570,-1037,-575,-324,45,189,-123
818,1770,0,2023-03-01T18:55:04.372255,1893906,167,792,1570,-1037,-575,-324,45,189,-123
819,1771,0,2023-03-01T18:55:04.377150,1893910,167,792,1570,-1037,-575,-324,45,189,-123
820,1772,0,2023-03-01T18:55:04.382691,1893916,167,792,1570,-1037,-575,-324,45,189,-123
821,1773,0,2023-03-01T18:55:04.388221,1893921,160,796,1576,-1035,-574,-324,40,182,-122
822,1774,0,2023-03-01T18:55:04.394411,1893927,160,796,1576,-1035,-574,-324,40,182,-122
823,1775,0,2023-03-01T18:55:04.399582,1893933,160,796,1576,-1035,-574,-324,40,182,-122
824,1776,0,2023-03-01T18:55:04.405213,1893939,160,796,1576,-1035,-574,-324,40,182,-122
825,1777,0,2023-03-01T18:55:04.410898,1893944,166,793,1574,-1035,-570,-322,40,182,-122
826,1778,0,2023-03-01T18:55:04.416796,1893950,166,793,1574,-1035,-570,-322,40,182,-122
827,1779,0,2023-03-01T18:55:04.423059,1893956,166,793,1574,-1035,-570,-322,40,182,-122
828,1780,0,2023-03-01T18:55:04.429000,1893962,166,791,1569,-1030,-573,-320,40,182,-122
829,1781,0,2023-03-01T18:55:04.436389,1893969,166,791,1569,-1030,-573,-320,40,182,-122
830,1782,0,2023-03-01T18:55:04.441242,1893975,166,791,1569,-1030,-573,-320,40,182,-122
831,1783,0,2023-03-01T18:55:04.446457,1893980,165,793,1570,-1032,-577,-324,40,182,-122
832,1784,0,2023-03-01T18:55:04.452928,1893986,165,793,1570,-1032,-577,-324,40,182,-122
833,1785,0,2023-03-01T18:55:04.458108,1893991,165,793,1570,-1032,-577,-324,40,182,-122
834,1786,0,2023-03-01T18:55:04.462929,1893996,165,793,1570,-1032,-577,-324,40,182,-122
835,1787,0,2023-03-01T18:55:04.468046,1894001,167,792,1572,-1031,-578,-327,40,182,-122
836,1788,0,2023-03-01T18:55:04.473223,1894006,167,792,1572,-1031,-578,-327,40,182,-122
837,1789,0,2023-03-01T18:55:04.477900,1894011,167,792,1572,-1031,-578,-327,40,182,-122
838,1790,0,2023-03-01T18:55:04.483243,1894017,167,792,1572,-1031,-578,-327,40,182,-122
839,1791,0,2023-03-01T18:55:04.488654,1894022,167,793,1572,-1032,-567,-327,40,182,-122
840,1792,0,2023-03-01T18:55:04.494619,1894028,167,793,1572,-1032,-567,-327,40,182,-122
841,1793,0,2023-03-01T18:55:04.499869,1894033,167,793,1572,-1032,-567,-327,40,182,-122
842,1794,0,2023-03-01T18:55:04.505604,1894039,167,793,1572,-1032,-567,-327,40,182,-122
843,1795,0,2023-03-01T18:55:04.511554,1894044,166,792,1574,-1031,-579,-328,46,184,-122
844,1796,0,2023-03-01T18:55:04.517461,1894050,166,792,1574,-1031,-579,-328,46,184,-122
845,1797,0,2023-03-01T18:55:04.523515,1894056,166,792,1574,-1031,-579,-328,46,184,-122
846,1798,0,2023-03-01T18:55:04.529596,1894063,166,795,1578,-1032,-569,-320,46,184,-122
847,1799,0,2023-03-01T18:55:04.535456,1894069,166,795,1578,-1032,-569,-320,46,184,-122
848,1800,0,2023-03-01T18:55:04.540738,1894074,166,795,1578,-1032,-569,-320,46,184,-122
849,1801,0,2023-03-01T18:55:04.546726,1894080,167,793,1570,-1033,-566,-320,46,184,-122
850,1802,0,2023-03-01T18:55:04.552504,1894085,167,793,1570,-1033,-566,-320,46,184,-122
851,1803,0,2023-03-01T18:55:04.557477,1894090,167,793,1570,-1033,-566,-320,46,184,-122
852,1804,0,2023-03-01T18:55:04.562776,1894095,167,793,1570,-1033,-566,-320,46,184,-122
853,1805,0,2023-03-01T18:55:04.569021,1894102,167,793,1570,-1033,-566,-320,46,184,-122
854,1806,0,2023-03-01T18:55:04.573891,1894108,167,793,1570,-1033,-566,-320,46,184,-122
855,1807,0,2023-03-01T18:55:04.578917,1894112,167,793,1570,-1033,-566,-320,46,184,-122
856,1808,0,2023-03-01T18:55:04.584483,1894118,167,793,1570,-1033,-566,-320,46,184,-122
857,1809,0,2023-03-01T18:55:04.590302,1894123,164,793,1568,-1035,-570,-319,46,184,-122
858,1810,0,2023-03-01T18:55:04.596510,1894129,164,793,1568,-1035,-570,-319,46,184,-122
859,1811,0,2023-03-01T18:55:04.601838,1894135,164,793,1568,-1035,-570,-319,46,184,-122
860,1812,0,2023-03-01T18:55:04.606881,1894140,165,793,1572,-1044,-567,-320,46,184,-122
861,1813,0,2023-03-01T18:55:04.613032,1894147,165,793,1572,-1044,-567,-320,46,184,-122
862,1814,0,2023-03-01T18:55:04.618566,1894152,165,793,1572,-1044,-567,-320,46,184,-122
863,1815,0,2023-03-01T18:55:04.623500,1894157,165,793,1572,-1044,-567,-320,46,184,-122
864,1816,0,2023-03-01T18:55:04.628925,1894162,166,791,1566,-1039,-573,-325,46,184,-122
865,1817,0,2023-03-01T18:55:04.633732,1894167,166,791,1566,-1039,-573,-325,46,184,-122
866,1818,0,2023-03-01T18:55:04.639432,1894172,166,791,1566,-1039,-573,-325,46,184,-122
867,1819,0,2023-03-01T18:55:04.645098,1894178,166,791,1566,-1039,-573,-325,46,184,-122
868,1820,0,2023-03-01T18:55:04.651319,1894184,165,791,1576,-1036,-572,-326,48,192,-122
869,1821,0,2023-03-01T18:55:04.656852,1894190,165,791,1576,-1036,-572,-326,48,192,-122
870,1822,0,2023-03-01T18:55:04.661689,1894195,165,791,1576,-1036,-572,-326,48,192,-122
871,1823,0,2023-03-01T18:55:04.667095,1894200,166,794,1569,-1034,-575,-327,48,192,-122
872,1824,0,2023-03-01T18:55:04.673503,1894206,166,794,1569,-1034,-575,-327,48,192,-122
873,1825,0,2023-03-01T18:55:04.678127,1894211,166,794,1569,-1034,-575,-327,48,192,-122
874,1826,0,2023-03-01T18:55:04.683623,1894217,166,794,1569,-1034,-575,-327,48,192,-122
875,1827,0,2023-03-01T18:55:04.689104,1894222,168,790,1571,-1040,-576,-317,48,192,-122
876,1828,0,2023-03-01T18:55:04.694644,1894227,168,790,1571,-1040,-576,-317,48,192,-122
877,1829,0,2023-03-01T18:55:04.699698,1894233,168,790,1571,-1040,-576,-317,48,192,-122
878,1830,0,2023-03-01T18:55:04.704910,1894239,168,790,1571,-1040,-576,-317,48,192,-122
879,1831,0,2023-03-01T18:55:04.709386,1894243,165,792,1564,-1040,-570,-329,48,192,-122
880,1832,0,2023-03-01T18:55:04.715080,1894248,165,792,1564,-1040,-570,-329,48,192,-122
881,1833,0,2023-03-01T18:55:04.719746,1894253,165,792,1564,-1040,-570,-329,48,192,-122
882,1834,0,2023-03-01T18:55:04.725261,1894258,165,792,1564,-1040,-570,-329,48,192,-122
883,1835,0,2023-03-01T18:55:04.730996,1894264,168,793,1570,-1039,-569,-326,48,192,-122
884,1836,0,2023-03-01T18:55:04.736280,1894269,168,793,1570,-1039,-569,-326,48,192,-122
885,1837,0,2023-03-01T18:55:04.742262,1894276,168,793,1570,-1039,-569,-326,48,192,-122
886,1838,0,2023-03-01T18:55:04.747696,1894281,165,794,1577,-1033,-566,-322,48,192,-122
887,1839,0,2023-03-01T18:55:04.753006,1894286,165,794,1577,-1033,-566,-322,48,192,-122
888,1840,0,2023-03-01T18:55:04.758138,1894291,165,794,1577,-1033,-566,-322,48,192,-122
889,1841,0,2023-03-01T18:55:04.764433,1894297,165,794,1577,-1033,-566,-322,48,192,-122
890,1842,0,2023-03-01T18:55:04.770411,1894303,169,793,1575,-1035,-576,-314,50,194,-118
891,1843,0,2023-03-01T18:55:04.775958,1894309,169,793,1575,-1035,-576,-314,50,194,-118
892,1844,0,2023-03-01T18:55:04.781182,1894315,169,793,1575,-1035,-576,-314,50,194,-118
893,1845,0,2023-03-01T18:55:04.787153,1894321,164,796,1576,-1045,-577,-326,50,194,-118
894,1846,0,2023-03-01T18:55:04.793097,1894327,164,796,1576,-1045,-577,-326,50,194,-118
895,1847,0,2023-03-01T18:55:04.798690,1894331,164,796,1576,-1045,-577,-326,50,194,-118
896,1848,0,2023-03-01T18:55:04.803765,1894337,164,796,1576,-1045,-577,-326,50,194,-118
897,1849,0,2023-03-01T18:55:04.809209,1894342,166,791,1573,-1037,-574,-329,50,194,-118
898,1850,0,2023-03-01T18:55:04.815853,1894348,166,791,1573,-1037,-574,-329,50,194,-118
899,1851,0,2023-03-01T18:55:04.820765,1894353,166,791,1573,-1037,-574,-329,50,194,-118
900,1852,0,2023-03-01T18:55:04.826652,1894360,167,792,1573,-1036,-568,-323,50,194,-118
901,1853,0,2023-03-01T18:55:04.832884,1894366,167,792,1573,-1036,-568,-323,50,194,-118
902,1854,0,2023-03-01T18:55:04.837890,1894371,167,792,1573,-1036,-568,-323,50,194,-118
903,1855,0,2023-03-01T18:55:04.843761,1894377,167,792,1573,-1036,-568,-323,50,194,-118
904,1856,0,2023-03-01T18:55:04.849315,1894382,165,791,1574,-1028,-573,-321,50,194,-118
905,1857,0,2023-03-01T18:55:04.855010,1894388,165,791,1574,-1028,-573,-321,50,194,-118
906,1858,0,2023-03-01T18:55:04.859774,1894393,165,791,1574,-1028,-573,-321,50,194,-118
907,1859,0,2023-03-01T18:55:04.865389,1894398,165,791,1574,-1028,-573,-321,50,194,-118
908,1860,0,2023-03-01T18:55:04.870943,1894404,165,791,1575,-1029,-569,-321,50,194,-118
909,1861,0,2023-03-01T18:55:04.878637,1894412,165,791,1575,-1029,-569,-321,50,194,-118
910,1862,0,2023-03-01T18:55:04.883860,1894417,165,791,1575,-1029,-569,-321,50,194,-118
911,1863,0,2023-03-01T18:55:04.888635,1894422,166,793,1569,-1034,-571,-326,39,191,-119
912,1864,0,2023-03-01T18:55:04.894353,1894427,166,793,1569,-1034,-571,-326,39,191,-119
913,1865,0,2023-03-01T18:55:04.899512,1894432,166,793,1569,-1034,-571,-326,39,191,-119
914,1866,0,2023-03-01T18:55:04.905472,1894438,166,793,1569,-1034,-571,-326,39,191,-119
915,1867,0,2023-03-01T18:55:04.911408,1894445,167,794,1574,-1027,-567,-325,39,191,-119
916,1868,0,2023-03-01T18:55:04.917090,1894450,167,794,1574,-1027,-567,-325,39,191,-119
917,1869,0,2023-03-01T18:55:04.922456,1894456,167,794,1574,-1027,-567,-325,39,191,-119
918,1870,0,2023-03-01T18:55:04.928406,1894461,167,794,1573,-1031,-570,-318,39,191,-119
919,1871,0,2023-03-01T18:55:04.934589,1894467,167,794,1573,-1031,-570,-318,39,191,-119
920,1872,0,2023-03-01T18:55:04.939425,1894472,167,794,1573,-1031,-570,-318,39,191,-119
921,1873,0,2023-03-01T18:55:04.944086,1894477,167,794,1573,-1031,-570,-318,39,191,-119
922,1874,0,2023-03-01T18:55:04.949805,1894482,169,793,1567,-1033,-575,-325,39,191,-119
923,1875,0,2023-03-01T18:55:04.954901,1894489,169,793,1567,-1033,-575,-325,39,191,-119
924,1876,0,2023-03-01T18:55:04.959905,1894493,169,793,1567,-1033,-575,-325,39,191,-119
925,1877,0,2023-03-01T18:55:04.966017,1894499,169,793,1567,-1033,-575,-325,39,191,-119
926,1878,0,2023-03-01T18:55:04.971873,1894505,167,794,1569,-1037,-566,-329,39,191,-119
927,1879,0,2023-03-01T18:55:04.977350,1894511,167,794,1569,-1037,-566,-329,39,191,-119
928,1880,0,2023-03-01T18:55:04.982856,1894516,167,794,1569,-1037,-566,-329,39,191,-119
929,1881,0,2023-03-01T18:55:04.989662,1894522,167,795,1569,-1033,-564,-323,39,191,-119
930,1882,0,2023-03-01T18:55:04.995561,1894529,167,795,1569,-1033,-564,-323,39,191,-119
931,1883,0,2023-03-01T18:55:05.000780,1894534,167,795,1569,-1033,-564,-323,39,191,-119
932,1884,0,2023-03-01T18:55:05.005942,1894539,167,795,1569,-1033,-564,-323,39,191,-119
933,1885,0,2023-03-01T18:55:05.011245,1894545,167,792,1571,-1040,-573,-321,39,191,-119
934,1886,0,2023-03-01T18:55:05.017582,1894550,167,792,1571,-1040,-573,-321,39,191,-119
935,1887,0,2023-03-01T18:55:05.022757,1894556,167,792,1571,-1040,-573,-321,39,191,-119
936,1888,0,2023-03-01T18:55:05.028294,1894561,165,792,1573,-1036,-571,-325,43,191,-113
937,1889,0,2023-03-01T18:55:05.033735,1894566,165,792,1573,-1036,-571,-325,43,191,-113
938,1890,0,2023-03-01T18:55:05.039089,1894573,165,792,1573,-1036,-571,-325,43,191,-113
939,1891,0,2023-03-01T18:55:05.044083,1894577,165,792,1573,-1036,-571,-325,43,191,-113
940,1892,0,2023-03-01T18:55:05.049594,1894583,166,795,1575,-1031,-574,-327,43,191,-113
941,1893,0,2023-03-01T18:55:05.054963,1894588,166,795,1575,-1031,-574,-327,43,191,-113
942,1894,0,2023-03-01T18:55:05.059666,1894593,166,795,1575,-1031,-574,-327,43,191,-113
943,1895,0,2023-03-01T18:55:05.064417,1894597,166,795,1575,-1031,-574,-327,43,191,-113
944,1896,0,2023-03-01T18:55:05.069866,1894603,169,793,1576,-1034,-573,-325,43,191,-113
945,1897,0,2023-03-01T18:55:05.075800,1894608,169,793,1576,-1034,-573,-325,43,191,-113
946,1898,0,2023-03-01T18:55:05.081232,1894615,169,793,1576,-1034,-573,-325,43,191,-113
947,1899,0,2023-03-01T18:55:05.086753,1894620,168,795,1571,-1028,-569,-318,43,191,-113
948,1900,0,2023-03-01T18:55:05.092905,1894626,168,795,1571,-1028,-569,-318,43,191,-113
949,1901,0,2023-03-01T18:55:05.101017,1894634,168,795,1571,-1028,-569,-318,43,191,-113
950,1902,0,2023-03-01T18:55:05.107524,1894640,170,794,1567,-1033,-564,-316,43,191,-113
951,1903,0,2023-03-01T18:55:05.114391,1894647,170,794,1567,-1033,-564,-316,43,191,-113
952,1904,0,2023-03-01T18:55:05.119310,1894652,170,794,1567,-1033,-564,-316,43,191,-113
953,1905,0,2023-03-01T18:55:05.124883,1894659,170,794,1567,-1033,-564,-316,43,191,-113
954,1906,0,2023-03-01T18:55:05.130883,1894664,167,795,1569,-1038,-566,-321,43,191,-113
955,1907,0,2023-03-01T18:55:05.136890,1894670,167,795,1569,-1038,-566,-321,43,191,-113
956,1908,0,2023-03-01T18:55:05.141640,1894675,167,795,1569,-1038,-566,-321,43,191,-113
957,1909,0,2023-03-01T18:55:05.146667,1894680,168,793,1568,-1038,-572,-327,45,191,-123
958,1910,0,2023-03-01T18:55:05.153169,1894686,168,793,1568,-1038,-572,-327,45,191,-123
959,1911,0,2023-03-01T18:55:05.158628,1894691,168,793,1568,-1038,-572,-327,45,191,-123
960,1912,0,2023-03-01T18:55:05.164461,1894697,168,793,1568,-1038,-572,-327,45,191,-123
961,1913,0,2023-03-01T18:55:05.169973,1894704,166,795,1580,-1047,-577,-334,45,191,-123
962,1914,0,2023-03-01T18:55:05.175832,1894709,166,795,1580,-1047,-577,-334,45,191,-123
963,1915,0,2023-03-01T18:55:05.181216,1894714,166,795,1580,-1047,-577,-334,45,191,-123
964,1916,0,2023-03-01T18:55:05.187094,1894720,166,792,1575,-1046,-574,-323,45,191,-123
965,1917,0,2023-03-01T18:55:05.192697,1894726,166,792,1575,-1046,-574,-323,45,191,-123
966,1918,0,2023-03-01T18:55:05.197618,1894731,166,792,1575,-1046,-574,-323,45,191,-123
967,1919,0,2023-03-01T18:55:05.202991,1894735,166,792,1575,-1046,-574,-323,45,191,-123
968,1920,0,2023-03-01T18:55:05.208610,1894742,166,793,1573,-1033,-566,-320,45,191,-123
969,1921,0,2023-03-01T18:55:05.214863,1894748,166,793,1573,-1033,-566,-320,45,191,-123
970,1922,0,2023-03-01T18:55:05.225354,1894753,166,793,1573,-1033,-566,-320,45,191,-123
971,1923,0,2023-03-01T18:55:05.231290,1894764,166,794,1574,-1037,-565,-320,45,191,-123
972,1924,0,2023-03-01T18:55:05.238333,1894771,166,794,1574,-1037,-565,-320,45,191,-123
973,1925,0,2023-03-01T18:55:05.244632,1894777,166,794,1574,-1037,-565,-320,45,191,-123
974,1926,0,2023-03-01T18:55:05.249861,1894784,166,794,1571,-1038,-577,-323,45,191,-123
975,1927,0,2023-03-01T18:55:05.255278,1894789,166,794,1571,-1038,-577,-323,45,191,-123
976,1928,0,2023-03-01T18:55:05.260175,1894794,166,794,1571,-1038,-577,-323,45,191,-123
977,1929,0,2023-03-01T18:55:05.266135,1894799,166,794,1571,-1038,-577,-323,45,191,-123
978,1930,0,2023-03-01T18:55:05.271840,1894805,166,792,1575,-1034,-568,-323,45,191,-123
979,1931,0,2023-03-01T18:55:05.277372,1894810,166,792,1575,-1034,-568,-323,45,191,-123
980,1932,0,2023-03-01T18:55:05.281922,1894815,166,792,1575,-1034,-568,-323,45,191,-123
981,1933,0,2023-03-01T18:55:05.286985,1894820,165,793,1573,-1038,-570,-327,48,192,-116
982,1934,0,2023-03-01T18:55:05.293123,1894827,165,793,1573,-1038,-570,-327,48,192,-116
983,1935,0,2023-03-01T18:55:05.298074,1894832,165,793,1573,-1038,-570,-327,48,192,-116
984,1936,0,2023-03-01T18:55:05.303163,1894837,165,793,1573,-1038,-570,-327,48,192,-116
985,1937,0,2023-03-01T18:55:05.308634,1894842,164,791,1575,-1041,-570,-327,48,192,-116
986,1938,0,2023-03-01T18:55:05.314174,1894847,164,791,1575,-1041,-570,-327,48,192,-116
987,1939,0,2023-03-01T18:55:05.321686,1894854,164,791,1575,-1041,-570,-327,48,192,-116
988,1940,0,2023-03-01T18:55:05.327762,1894861,168,794,1573,-1042,-567,-326,48,192,-116
989,1941,0,2023-03-01T18:55:05.334004,1894867,168,794,1573,-1042,-567,-326,48,192,-116
990,1942,0,2023-03-01T18:55:05.339512,1894873,168,794,1573,-1042,-567,-326,48,192,-116
991,1943,0,2023-03-01T18:55:05.344599,1894878,168,794,1573,-1042,-567,-326,48,192,-116
992,1944,0,2023-03-01T18:55:05.350407,1894884,166,794,1575,-1035,-572,-327,48,192,-116
993,1945,0,2023-03-01T18:55:05.356207,1894889,166,794,1575,-1035,-572,-327,48,192,-116
994,1946,0,2023-03-01T18:55:05.361644,1894895,166,794,1575,-1035,-572,-327,48,192,-116
995,1947,0,2023-03-01T18:55:05.367442,1894900,165,793,1572,-1037,-572,-324,48,192,-116
996,1948,0,2023-03-01T18:55:05.373310,1894906,165,793,1572,-1037,-572,-324,48,192,-116
997,1949,0,2023-03-01T18:55:05.378562,1894912,165,793,1572,-1037,-572,-324,48,192,-116
998,1950,0,2023-03-01T18:55:05.384326,1894918,165,793,1572,-1037,-572,-324,48,192,-116
999,1951,0,2023-03-01T18:55:05.390209,1894924,166,793,1572,-1032,-572,-316,48,192,-116
1000,1952,0,2023-03-01T18:55:05.395865,1894929,166,793,1572,-1032,-572,-316,48,192,-116
1001,1953,0,2023-03-01T18:55:05.401087,1894934,166,793,1572,-1032,-572,-316,48,192,-116
1002,1954,0,2023-03-01T18:55:05.406225,1894939,166,793,1572,-1032,-572,-316,48,192,-116
1003,1955,0,2023-03-01T18:55:05.412090,1894945,166,791,1573,-1043,-571,-318,49,191,-121
1004,1956,0,2023-03-01T18:55:05.418013,1894951,166,791,1573,-1043,-571,-318,49,191,-121
1005,1957,0,2023-03-01T18:55:05.423961,1894957,166,791,1573,-1043,-571,-318,49,191,-121
1006,1958,0,2023-03-01T18:55:05.431670,1894965,168,793,1575,-1044,-581,-328,49,191,-121
1007,1959,0,2023-03-01T18:55:05.437640,1894971,168,793,1575,-1044,-581,-328,49,191,-121
1008,1960,0,2023-03-01T18:55:05.443626,1894977,168,793,1575,-1044,-581,-328,49,191,-121
1009,1961,0,2023-03-01T18:55:05.449108,1894982,168,789,1573,-1039,-567,-321,49,191,-121
1010,1962,0,2023-03-01T18:55:05.454652,1894987,168,789,1573,-1039,-567,-321,49,191,-121
1011,1963,0,2023-03-01T18:55:05.459492,1894992,168,789,1573,-1039,-567,-321,49,191,-121
1012,1964,0,2023-03-01T18:55:05.464588,1894998,168,789,1573,-1039,-567,-321,49,191,-121
1013,1965,0,2023-03-01T18:55:05.470398,1895004,168,792,1569,-1040,-566,-317,49,191,-121
1014,1966,0,2023-03-01T18:55:05.475576,1895009,168,792,1569,-1040,-566,-317,49,191,-121
1015,1967,0,2023-03-01T18:55:05.480638,1895014,168,792,1569,-1040,-566,-317,49,191,-121
1016,1968,0,2023-03-01T18:55:05.486346,1895019,168,792,1569,-1040,-566,-317,49,191,-121
1017,1969,0,2023-03-01T18:55:05.492183,1895025,166,795,1569,-1039,-568,-325,49,191,-121
1018,1970,0,2023-03-01T18:55:05.497886,1895031,166,795,1569,-1039,-568,-325,49,191,-121
1019,1971,0,2023-03-01T18:55:05.503325,1895036,166,795,1569,-1039,-568,-325,49,191,-121
1020,1972,0,2023-03-01T18:55:05.508833,1895043,164,791,1569,-1043,-570,-328,49,191,-121
1021,1973,0,2023-03-01T18:55:05.514578,1895048,164,791,1569,-1043,-570,-328,49,191,-121
1022,1974,0,2023-03-01T18:55:05.519656,1895053,164,791,1569,-1043,-570,-328,49,191,-121
1023,1975,0,2023-03-01T18:55:05.525360,1895059,164,791,1569,-1043,-570,-328,49,191,-121
1024,1976,0,2023-03-01T18:55:05.531127,1895064,167,797,1574,-1039,-573,-325,49,191,-121
1025,1977,0,2023-03-01T18:55:05.537110,1895070,167,797,1574,-1039,-573,-325,49,191,-121
1026,1978,0,2023-03-01T18:55:05.542296,1895075,167,797,1574,-1039,-573,-325,49,191,-121
1027,1979,0,2023-03-01T18:55:05.547378,1895080,168,793,1573,-1038,-573,-326,46,190,-121
1028,1980,0,2023-03-01T18:55:05.553536,1895087,168,793,1573,-1038,-573,-326,46,190,-130
1029,1981,0,2023-03-01T18:55:05.558338,1895092,168,793,1573,-1038,-573,-326,46,190,-130
1030,1982,0,2023-03-01T18:55:05.562865,1895096,168,793,1573,-1038,-573,-326,46,190,-130
1031,1983,0,2023-03-01T18:55:05.568069,1895101,166,791,1574,-1035,-573,-318,46,190,-130
1032,1984,0,2023-03-01T18:55:05.573634,1895107,166,791,1574,-1035,-573,-318,46,190,-130
1033,1985,0,2023-03-01T18:55:05.579021,1895112,166,791,1574,-1035,-573,-318,46,190,-130
1034,1986,0,2023-03-01T18:55:05.584725,1895118,166,791,1574,-1035,-573,-318,46,190,-130
1035,1987,0,2023-03-01T18:55:05.590001,1895123,166,793,1575,-1035,-573,-319,46,190,-130
1036,1988,0,2023-03-01T18:55:05.595376,1895129,166,793,1575,-1035,-573,-319,46,190,-130
1037,1989,0,2023-03-01T18:55:05.601394,1895134,166,793,1575,-1035,-573,-319,46,190,-130
1038,1990,0,2023-03-01T18:55:05.606492,1895140,166,793,1575,-1035,-573,-319,46,190,-130
1039,1991,0,2023-03-01T18:55:05.612189,1895145,164,792,1574,-1042,-576,-325,46,190,-130
1040,1992,0,2023-03-01T18:55:05.617760,1895151,164,792,1574,-1042,-576,-325,46,190,-130
1041,1993,0,2023-03-01T18:55:05.622914,1895156,164,792,1574,-1042,-576,-325,46,190,-130
1042,1994,0,2023-03-01T18:55:05.627720,1895160,164,792,1574,-1042,-576,-325,46,190,-130
1043,1995,0,2023-03-01T18:55:05.634201,1895166,164,792,1574,-1042,-576,-325,46,190,-130
1044,1996,0,2023-03-01T18:55:05.639250,1895173,164,792,1574,-1042,-576,-325,46,190,-130
1045,1997,0,2023-03-01T18:55:05.645910,1895178,164,792,1574,-1042,-576,-325,46,190,-130
1046,1998,0,2023-03-01T18:55:05.651768,1895185,166,796,1569,-1045,-575,-327,46,190,-130
1047,1999,0,2023-03-01T18:55:05.657522,1895191,166,796,1569,-1045,-575,-327,46,190,-130
1048,2000,0,2023-03-01T18:55:05.663325,1895196,166,796,1569,-1045,-575,-327,46,190,-130
1049,2001,0,2023-03-01T18:55:05.668948,1895202,164,792,1577,-1042,-573,-321,49,189,-117
1050,2002,0,2023-03-01T18:55:05.674087,1895207,164,792,1577,-1042,-573,-321,49,189,-117
1051,2003,0,2023-03-01T18:55:05.678927,1895213,164,792,1577,-1042,-573,-321,49,189,-117
1052,2004,0,2023-03-01T18:55:05.684540,1895218,164,792,1577,-1042,-573,-321,49,189,-117
1053,2005,0,2023-03-01T18:55:05.690394,1895223,167,793,1574,-1037,-571,-318,49,189,-117
1054,2006,0,2023-03-01T18:55:05.696021,1895229,167,793,1574,-1037,-571,-318,49,189,-117
1055,2007,0,2023-03-01T18:55:05.700737,1895234,167,793,1574,-1037,-571,-318,49,189,-117
1056,2008,0,2023-03-01T18:55:05.706684,1895240,167,793,1574,-1037,-571,-318,49,189,-117
1057,2009,0,2023-03-01T18:55:05.712549,1895245,165,789,1576,-1034,-576,-322,49,189,-117
1058,2010,0,2023-03-01T18:55:05.718227,1895251,165,789,1576,-1034,-576,-322,49,189,-117
1059,2011,0,2023-03-01T18:55:05.724057,1895258,165,789,1576,-1034,-576,-322,49,189,-117
1060,2012,0,2023-03-01T18:55:05.729592,1895263,167,791,1577,-1027,-568,-326,49,189,-117
1061,2013,0,2023-03-01T18:55:05.735210,1895269,167,791,1577,-1027,-568,-326,49,189,-117
1062,2014,0,2023-03-01T18:55:05.740653,1895273,167,791,1577,-1027,-568,-326,49,189,-117
1063,2015,0,2023-03-01T18:55:05.746541,1895279,167,791,1577,-1027,-568,-326,49,189,-117
1064,2016,0,2023-03-01T18:55:05.752536,1895286,164,793,1575,-1033,-577,-323,49,189,-117
1065,2017,0,2023-03-01T18:55:05.757902,1895291,164,793,1575,-1033,-577,-323,49,189,-117
1066,2018,0,2023-03-01T18:55:05.763955,1895297,164,793,1575,-1033,-577,-323,49,189,-117
1067,2019,0,2023-03-01T18:55:05.769868,1895303,167,791,1573,-1028,-577,-324,49,189,-117
1068,2020,0,2023-03-01T18:55:05.776570,1895310,167,791,1573,-1028,-577,-324,49,189,-117
1069,2021,0,2023-03-01T18:55:05.781557,1895315,167,791,1573,-1028,-577,-324,49,189,-117
1070,2022,0,2023-03-01T18:55:05.786235,1895319,167,791,1573,-1028,-577,-324,49,189,-117
1071,2023,0,2023-03-01T18:55:05.791639,1895325,164,793,1570,-1027,-572,-337,43,197,-117
1072,2024,0,2023-03-01T18:55:05.797093,1895330,164,793,1570,-1027,-572,-337,43,197,-117
1073,2025,0,2023-03-01T18:55:05.802439,1895335,164,793,1570,-1027,-572,-337,43,197,-117
1074,2026,0,2023-03-01T18:55:05.807270,1895341,165,796,1574,-1035,-564,-332,43,197,-117
1075,2027,0,2023-03-01T18:55:05.813451,1895347,165,796,1574,-1035,-564,-332,43,197,-117
1076,2028,0,2023-03-01T18:55:05.818466,1895352,165,796,1574,-1035,-564,-332,43,197,-117
1077,2029,0,2023-03-01T18:55:05.824338,1895357,165,796,1574,-1035,-564,-332,43,197,-117
1078,2030,0,2023-03-01T18:55:05.829464,1895363,166,793,1577,-1039,-570,-327,43,197,-117
1079,2031,0,2023-03-01T18:55:05.835371,1895368,166,793,1577,-1039,-570,-327,43,197,-117
1080,2032,0,2023-03-01T18:55:05.840167,1895373,166,793,1577,-1039,-570,-327,43,197,-117
1081,2033,0,2023-03-01T18:55:05.845622,1895378,166,793,1577,-1039,-570,-327,43,197,-117
1082,2034,0,2023-03-01T18:55:05.850990,1895385,168,791,1566,-1043,-575,-327,43,197,-117
1083,2035,0,2023-03-01T18:55:05.856740,1895390,168,791,1566,-1043,-575,-327,43,197,-117
1084,2036,0,2023-03-01T18:55:05.862130,1895396,168,791,1566,-1043,-575,-327,43,197,-117
1085,2037,0,2023-03-01T18:55:05.867126,1895400,168,791,1566,-1043,-575,-327,43,197,-117
1086,2038,0,2023-03-01T18:55:05.872913,1895406,167,791,1571,-1036,-571,-322,43,197,-117
1087,2039,0,2023-03-01T18:55:05.878115,1895411,167,791,1571,-1036,-571,-322,43,197,-117
1088,2040,0,2023-03-01T18:55:05.884094,1895417,167,791,1571,-1036,-571,-322,43,197,-117
1089,2041,0,2023-03-01T18:55:05.889703,1895422,166,792,1574,-1039,-578,-318,43,197,-117
1090,2042,0,2023-03-01T18:55:05.895938,1895429,166,792,1574,-1039,-578,-318,43,197,-117
1091,2043,0,2023-03-01T18:55:05.901079,1895435,166,792,1574,-1039,-578,-318,43,197,-117
1092,2044,0,2023-03-01T18:55:05.906951,1895440,166,792,1574,-1039,-578,-318,43,197,-117
1093,2045,0,2023-03-01T18:55:05.913506,1895446,168,794,1573,-1034,-576,-320,43,197,-117
1094,2046,0,2023-03-01T18:55:05.919202,1895452,168,794,1573,-1034,-576,-320,43,197,-117
1095,2047,0,2023-03-01T18:55:05.924339,1895457,168,794,1573,-1034,-576,-320,43,197,-117
1096,2048,0,2023-03-01T18:55:05.929952,1895463,168,792,1576,-1030,-568,-313,48,184,-112
1097,2049,0,2023-03-01T18:55:05.935581,1895469,168,792,1576,-1030,-568,-313,48,184,-112
1098,2050,0,2023-03-01T18:55:05.940598,1895474,168,792,1576,-1030,-568,-313,48,184,-112
1099,2051,0,2023-03-01T18:55:05.947178,1895480,168,792,1576,-1030,-568,-313,48,184,-112
1100,2052,0,2023-03-01T18:55:05.952732,1895486,167,793,1574,-1038,-570,-316,48,184,-112
1101,2053,0,2023-03-01T18:55:05.958601,1895491,167,793,1574,-1038,-570,-316,48,184,-112
1102,2054,0,2023-03-01T18:55:05.964436,1895497,167,793,1574,-1038,-570,-316,48,184,-112
1103,2055,0,2023-03-01T18:55:05.970288,1895503,167,793,1573,-1037,-574,-318,48,184,-112
1104,2056,0,2023-03-01T18:55:05.976696,1895510,167,793,1573,-1037,-574,-318,48,184,-112
1105,2057,0,2023-03-01T18:55:05.982541,1895516,167,793,1573,-1037,-574,-318,48,184,-112
1106,2058,0,2023-03-01T18:55:05.988080,1895522,167,795,1569,-1039,-570,-321,48,184,-112
1107,2059,0,2023-03-01T18:55:05.994604,1895528,167,795,1569,-1039,-570,-321,48,184,-112
1108,2060,0,2023-03-01T18:55:05.999899,1895533,167,795,1569,-1039,-570,-321,48,184,-112
1109,2061,0,2023-03-01T18:55:06.005719,1895539,167,795,1569,-1039,-570,-321,48,184,-112
1110,2062,0,2023-03-01T18:55:06.011482,1895544,165,792,1576,-1038,-578,-315,48,184,-112
1111,2063,0,2023-03-01T18:55:06.017332,1895550,165,792,1576,-1038,-578,-315,48,184,-112
1112,2064,0,2023-03-01T18:55:06.022413,1895556,165,792,1576,-1038,-578,-315,48,184,-112
1113,2065,0,2023-03-01T18:55:06.027993,1895561,166,793,1572,-1045,-577,-316,48,184,-112
1114,2066,0,2023-03-01T18:55:06.034337,1895568,166,793,1572,-1045,-577,-316,48,184,-112
1115,2067,0,2023-03-01T18:55:06.039047,1895572,166,793,1572,-1045,-577,-316,48,184,-112
1116,2068,0,2023-03-01T18:55:06.044960,1895578,166,793,1572,-1045,-577,-316,48,184,-112
1117,2069,0,2023-03-01T18:55:06.050411,1895583,164,793,1573,-1038,-566,-320,44,190,-124
1118,2070,0,2023-03-01T18:55:06.056897,1895589,164,793,1573,-1038,-566,-320,44,190,-124
1119,2071,0,2023-03-01T18:55:06.061811,1895596,164,793,1573,-1038,-566,-320,44,190,-124
1120,2072,0,2023-03-01T18:55:06.066938,1895600,164,793,1573,-1038,-566,-320,44,190,-124
1121,2073,0,2023-03-01T18:55:06.072464,1895606,166,794,1572,-1037,-573,-323,44,190,-124
1122,2074,0,2023-03-01T18:55:06.077799,1895611,166,794,1572,-1037,-573,-323,44,190,-124
1123,2075,0,2023-03-01T18:55:06.083556,1895616,166,794,1572,-1037,-573,-323,44,190,-124
1124,2076,0,2023-03-01T18:55:06.090311,1895623,165,792,1571,-1035,-574,-323,44,190,-124
1125,2077,0,2023-03-01T18:55:06.096934,1895630,165,792,1571,-1035,-574,-323,44,190,-124
1126,2078,0,2023-03-01T18:55:06.101570,1895634,165,792,1571,-1035,-574,-323,44,190,-124
1127,2079,0,2023-03-01T18:55:06.106391,1895640,165,792,1571,-1035,-574,-323,44,190,-124
1128,2080,0,2023-03-01T18:55:06.112143,1895646,166,793,1569,-1041,-574,-326,44,190,-124
1129,2081,0,2023-03-01T18:55:06.118677,1895652,166,793,1569,-1041,-574,-326,44,190,-124
1130,2082,0,2023-03-01T18:55:06.123532,1895657,166,793,1569,-1041,-574,-326,44,190,-124
1131,2083,0,2023-03-01T18:55:06.129296,1895662,166,796,1574,-1031,-569,-316,44,190,-124
1132,2084,0,2023-03-01T18:55:06.135343,1895668,166,796,1574,-1031,-569,-316,44,190,-124
1133,2085,0,2023-03-01T18:55:06.139999,1895673,166,796,1574,-1031,-569,-316,44,190,-124
1134,2086,0,2023-03-01T18:55:06.144838,1895678,166,796,1574,-1031,-569,-316,44,190,-124
1135,2087,0,2023-03-01T18:55:06.151034,1895685,166,793,1572,-1032,-572,-316,44,190,-124
1136,2088,0,2023-03-01T18:55:06.156864,1895690,166,793,1572,-1032,-572,-316,44,190,-124
1137,2089,0,2023-03-01T18:55:06.161693,1895695,166,793,1572,-1032,-572,-316,44,190,-124
1138,2090,0,2023-03-01T18:55:06.167125,1895700,166,793,1572,-1032,-572,-316,44,190,-124
1139,2091,0,2023-03-01T18:55:06.172927,1895706,169,793,1573,-1041,-572,-320,44,190,-124
1140,2092,0,2023-03-01T18:55:06.179009,1895712,169,793,1573,-1041,-572,-320,44,190,-124
1141,2093,0,2023-03-01T18:55:06.183635,1895717,169,793,1573,-1041,-572,-320,44,190,-124
1142,2094,0,2023-03-01T18:55:06.188996,1895723,168,791,1577,-1042,-568,-321,47,185,-115
1143,2095,0,2023-03-01T18:55:06.194941,1895728,168,791,1577,-1042,-568,-321,47,185,-115
1144,2096,0,2023-03-01T18:55:06.200301,1895734,168,791,1577,-1042,-568,-321,47,185,-115
1145,2097,0,2023-03-01T18:55:06.205429,1895739,168,791,1577,-1042,-568,-321,47,185,-115
1146,2098,0,2023-03-01T18:55:06.211267,1895744,169,792,1572,-1046,-570,-318,47,185,-115
1147,2099,0,2023-03-01T18:55:06.216437,1895750,169,792,1572,-1046,-570,-318,47,185,-115
1148,2100,0,2023-03-01T18:55:06.221716,1895754,169,792,1572,-1046,-570,-318,47,185,-115
1149,2101,0,2023-03-01T18:55:06.227867,1895761,168,792,1578,-1032,-568,-317,47,185,-115
1150,2102,0,2023-03-01T18:55:06.234408,1895768,168,792,1578,-1032,-568,-317,47,185,-115
1151,2103,0,2023-03-01T18:55:06.239349,1895773,168,792,1578,-1032,-568,-317,47,185,-115
1152,2104,0,2023-03-01T18:55:06.244654,1895778,168,792,1578,-1032,-568,-317,47,185,-115
1153,2105,0,2023-03-01T18:55:06.250161,1895784,163,793,1569,-1027,-566,-318,47,185,-115
1154,2106,0,2023-03-01T18:55:06.255774,1895789,163,793,1569,-1027,-566,-318,47,185,-115
1155,2107,0,2023-03-01T18:55:06.261820,1895795,163,793,1569,-1027,-566,-318,47,185,-115
1156,2108,0,2023-03-01T18:55:06.266902,1895800,163,793,1569,-1027,-566,-318,47,185,-115
1157,2109,0,2023-03-01T18:55:06.272742,1895806,166,791,1571,-1036,-578,-325,47,185,-115
1158,2110,0,2023-03-01T18:55:06.279037,1895812,166,791,1571,-1036,-578,-325,47,185,-115
1159,2111,0,2023-03-01T18:55:06.284868,1895818,166,791,1571,-1036,-578,-325,47,185,-115
1160,2112,0,2023-03-01T18:55:06.291192,1895825,166,792,1569,-1030,-573,-330,47,185,-115
1161,2113,0,2023-03-01T18:55:06.296975,1895830,166,792,1569,-1030,-573,-330,47,185,-115
1162,2114,0,2023-03-01T18:55:06.302181,1895835,166,792,1569,-1030,-573,-330,47,185,-115
1163,2115,0,2023-03-01T18:55:06.308564,1895841,167,794,1576,-1034,-572,-322,45,185,-115
1164,2116,0,2023-03-01T18:55:06.315180,1895848,167,794,1576,-1034,-572,-322,45,183,-115
1165,2117,0,2023-03-01T18:55:06.319931,1895854,167,794,1576,-1034,-572,-322,45,183,-115
1166,2118,0,2023-03-01T18:55:06.324554,1895858,167,794,1576,-1034,-572,-322,45,183,-115
1167,2119,0,2023-03-01T18:55:06.329655,1895863,166,792,1574,-1035,-573,-327,45,183,-115
1168,2120,0,2023-03-01T18:55:06.335265,1895868,166,792,1574,-1035,-573,-327,45,183,-115
1169,2121,0,2023-03-01T18:55:06.340318,1895874,166,792,1574,-1035,-573,-327,45,183,-115
1170,2122,0,2023-03-01T18:55:06.345265,1895878,166,792,1574,-1035,-573,-327,45,183,-115
1171,2123,0,2023-03-01T18:55:06.350427,1895884,167,794,1571,-1039,-577,-329,45,183,-115
1172,2124,0,2023-03-01T18:55:06.355863,1895889,167,794,1571,-1039,-577,-329,45,183,-115
1173,2125,0,2023-03-01T18:55:06.360876,1895894,167,794,1571,-1039,-577,-329,45,183,-115
1174,2126,0,2023-03-01T18:55:06.366122,1895900,167,794,1571,-1039,-577,-329,45,183,-115
1175,2127,0,2023-03-01T18:55:06.371783,1895905,166,793,1574,-1043,-572,-322,45,183,-115
1176,2128,0,2023-03-01T18:55:06.377251,1895911,166,793,1574,-1043,-572,-322,45,183,-115
1177,2129,0,2023-03-01T18:55:06.382236,1895915,166,793,1574,-1043,-572,-322,45,183,-115
1178,2130,0,2023-03-01T18:55:06.387145,1895920,166,793,1574,-1043,-572,-322,45,183,-115
1179,2131,0,2023-03-01T18:55:06.393251,1895926,165,794,1567,-1037,-573,-322,45,183,-115
1180,2132,0,2023-03-01T18:55:06.399134,1895932,165,794,1567,-1037,-573,-322,45,183,-115
1181,2133,0,2023-03-01T18:55:06.404000,1895938,165,794,1567,-1037,-573,-322,45,183,-115
1182,2134,0,2023-03-01T18:55:06.409849,1895943,167,793,1576,-1040,-572,-321,45,183,-115
1183,2135,0,2023-03-01T18:55:06.415642,1895949,167,793,1576,-1040,-572,-321,45,183,-115
1184,2136,0,2023-03-01T18:55:06.420821,1895954,167,793,1576,-1040,-572,-321,45,183,-115
1185,2137,0,2023-03-01T18:55:06.426146,1895960,167,793,1576,-1040,-572,-321,45,183,-115
1186,2138,0,2023-03-01T18:55:06.431621,1895965,168,795,1573,-1034,-578,-312,45,183,-115
1187,2139,0,2023-03-01T18:55:06.436981,1895970,168,795,1573,-1034,-578,-312,45,183,-115
1188,2140,0,2023-03-01T18:55:06.441802,1895975,168,795,1573,-1034,-578,-312,45,183,-115
1189,2141,0,2023-03-01T18:55:06.446800,1895980,168,795,1573,-1034,-578,-312,45,183,-115
1190,2142,0,2023-03-01T18:55:06.453136,1895986,167,793,1574,-1039,-576,-321,46,190,-118
1191,2143,0,2023-03-01T18:55:06.458949,1895992,167,793,1574,-1039,-576,-321,46,190,-118
1192,2144,0,2023-03-01T18:55:06.463848,1895997,167,793,1574,-1039,-576,-321,46,190,-118
1193,2145,0,2023-03-01T18:55:06.469896,1896003,168,791,1573,-1034,-580,-329,46,190,-118
1194,2146,0,2023-03-01T18:55:06.475889,1896009,168,791,1573,-1034,-580,-329,46,190,-118
1195,2147,0,2023-03-01T18:55:06.481017,1896014,168,791,1573,-1034,-580,-329,46,190,-118
1196,2148,0,2023-03-01T18:55:06.485993,1896019,168,791,1573,-1034,-580,-329,46,190,-118
1197,2149,0,2023-03-01T18:55:06.491837,1896025,168,795,1567,-1036,-570,-325,46,190,-118
1198,2150,0,2023-03-01T18:55:06.497821,1896031,168,795,1567,-1036,-570,-325,46,190,-118
1199,2151,0,2023-03-01T18:55:06.503241,1896036,168,795,1567,-1036,-570,-325,46,190,-118
1200,2152,0,2023-03-01T18:55:06.508281,1896041,170,794,1577,-1036,-573,-331,46,190,-118
1201,2153,0,2023-03-01T18:55:06.514304,1896047,170,794,1577,-1036,-573,-331,46,190,-118
1202,2154,0,2023-03-01T18:55:06.520419,1896052,170,794,1577,-1036,-573,-331,46,190,-118
1203,2155,0,2023-03-01T18:55:06.526711,1896060,170,794,1577,-1036,-573,-331,46,190,-118
1204,2156,0,2023-03-01T18:55:06.532691,1896066,166,792,1577,-1034,-571,-324,46,190,-118
1205,2157,0,2023-03-01T18:55:06.539272,1896073,166,792,1577,-1034,-571,-324,46,190,-118
1206,2158,0,2023-03-01T18:55:06.545075,1896078,166,792,1577,-1034,-571,-324,46,190,-118
1207,2159,0,2023-03-01T18:55:06.550858,1896084,166,791,1571,-1041,-571,-316,46,190,-118
1208,2160,0,2023-03-01T18:55:06.556495,1896089,166,791,1571,-1041,-571,-316,46,190,-118
1209,2161,0,2023-03-01T18:55:06.561774,1896095,166,791,1571,-1041,-571,-316,46,190,-118
1210,2162,0,2023-03-01T18:55:06.567537,1896100,166,791,1571,-1041,-571,-316,46,190,-118
1211,2163,0,2023-03-01T18:55:06.573248,1896107,165,793,1567,-1038,-574,-320,49,189,-119
1212,2164,0,2023-03-01T18:55:06.578670,1896112,165,793,1567,-1038,-574,-320,49,189,-119
1213,2165,0,2023-03-01T18:55:06.584280,1896117,165,793,1567,-1038,-574,-320,49,189,-119
1214,2166,0,2023-03-01T18:55:06.589229,1896123,169,792,1570,-1041,-581,-326,49,189,-119
1215,2167,0,2023-03-01T18:55:06.594650,1896128,169,792,1570,-1041,-581,-326,49,189,-119
1216,2168,0,2023-03-01T18:55:06.599562,1896133,169,792,1570,-1041,-581,-326,49,189,-119
1217,2169,0,2023-03-01T18:55:06.604500,1896137,169,792,1570,-1041,-581,-326,49,189,-119
1218,2170,0,2023-03-01T18:55:06.610201,1896143,165,791,1577,-1037,-581,-316,49,189,-119
1219,2171,0,2023-03-01T18:55:06.615917,1896148,165,791,1577,-1037,-581,-316,49,189,-119
1220,2172,0,2023-03-01T18:55:06.620841,1896155,165,791,1577,-1037,-581,-316,49,189,-119
1221,2173,0,2023-03-01T18:55:06.625665,1896159,165,791,1577,-1037,-581,-316,49,189,-119
1222,2174,0,2023-03-01T18:55:06.632381,1896164,165,792,1572,-1029,-578,-325,49,189,-119
1223,2175,0,2023-03-01T18:55:06.639068,1896172,165,792,1572,-1029,-578,-325,49,189,-119
1224,2176,0,2023-03-01T18:55:06.644387,1896177,165,792,1572,-1029,-578,-325,49,189,-119
1225,2177,0,2023-03-01T18:55:06.649568,1896183,167,791,1568,-1034,-569,-323,49,189,-119
1226,2178,0,2023-03-01T18:55:06.654920,1896188,167,791,1568,-1034,-569,-323,49,189,-119
1227,2179,0,2023-03-01T18:55:06.659651,1896193,167,791,1568,-1034,-569,-323,49,189,-119
1228,2180,0,2023-03-01T18:55:06.664867,1896199,167,791,1568,-1034,-569,-323,49,189,-119
1229,2181,0,2023-03-01T18:55:06.670760,1896204,167,793,1568,-1031,-561,-326,49,189,-119
1230,2182,0,2023-03-01T18:55:06.676824,1896210,167,793,1568,-1031,-561,-326,49,189,-119
1231,2183,0,2023-03-01T18:55:06.681808,1896215,167,793,1568,-1031,-561,-326,49,189,-119
1232,2184,0,2023-03-01T18:55:06.686732,1896220,167,793,1568,-1031,-561,-326,49,189,-119
1233,2185,0,2023-03-01T18:55:06.692186,1896225,167,792,1573,-1036,-567,-327,47,189,-123
1234,2186,0,2023-03-01T18:55:06.698214,1896231,167,792,1573,-1036,-567,-327,47,189,-123
1235,2187,0,2023-03-01T18:55:06.703708,1896238,167,792,1573,-1036,-567,-327,47,189,-123
1236,2188,0,2023-03-01T18:55:06.709113,1896243,166,791,1576,-1033,-571,-332,47,189,-123
1237,2189,0,2023-03-01T18:55:06.714760,1896248,166,791,1576,-1033,-571,-332,47,189,-123
1238,2190,0,2023-03-01T18:55:06.719658,1896253,166,791,1576,-1033,-571,-332,47,189,-123
1239,2191,0,2023-03-01T18:55:06.724879,1896258,166,791,1576,-1033,-571,-332,47,189,-123
1240,2192,0,2023-03-01T18:55:06.731113,1896264,166,794,1571,-1027,-566,-328,47,189,-123
1241,2193,0,2023-03-01T18:55:06.737155,1896270,166,794,1571,-1027,-566,-328,47,189,-123
1242,2194,0,2023-03-01T18:55:06.741901,1896275,166,794,1571,-1027,-566,-328,47,189,-123
1243,2195,0,2023-03-01T18:55:06.747928,1896281,166,794,1571,-1027,-566,-328,47,189,-123
1244,2196,0,2023-03-01T18:55:06.753737,1896287,166,791,1569,-1032,-566,-331,47,189,-123
1245,2197,0,2023-03-01T18:55:06.759532,1896293,166,791,1569,-1032,-566,-331,47,189,-123
1246,2198,0,2023-03-01T18:55:06.764215,1896297,166,791,1569,-1032,-566,-331,47,189,-123
1247,2199,0,2023-03-01T18:55:06.769752,1896303,167,792,1573,-1033,-568,-323,47,189,-123
1248,2200,0,2023-03-01T18:55:06.775053,1896308,167,792,1573,-1033,-568,-323,47,189,-123
1249,2201,0,2023-03-01T18:55:06.779951,1896313,167,792,1573,-1033,-568,-323,47,189,-123
1250,2202,0,2023-03-01T18:55:06.785912,1896320,167,792,1573,-1033,-568,-323,47,189,-123
1251,2203,0,2023-03-01T18:55:06.791533,1896325,164,790,1572,-1039,-573,-322,47,189,-123
1252,2204,0,2023-03-01T18:55:06.796575,1896330,164,790,1572,-1039,-573,-322,47,189,-123
1253,2205,0,2023-03-01T18:55:06.801256,1896335,164,790,1572,-1039,-573,-322,47,189,-123
1254,2206,0,2023-03-01T18:55:06.806535,1896340,164,790,1572,-1039,-573,-322,47,189,-123
1255,2207,0,2023-03-01T18:55:06.812350,1896345,169,794,1570,-1034,-573,-315,47,189,-123
1256,2208,0,2023-03-01T18:55:06.818981,1896352,169,794,1570,-1034,-573,-315,47,189,-123
1257,2209,0,2023-03-01T18:55:06.824816,1896358,169,794,1570,-1034,-573,-315,47,189,-123
1258,2210,0,2023-03-01T18:55:06.830804,1896364,165,793,1574,-1033,-577,-317,46,178,-122
1259,2211,0,2023-03-01T18:55:06.836595,1896370,165,793,1574,-1033,-577,-317,46,178,-122
1260,2212,0,2023-03-01T18:55:06.842018,1896375,165,793,1574,-1033,-577,-317,46,178,-122
1261,2213,0,2023-03-01T18:55:06.847821,1896381,165,793,1574,-1033,-577,-317,46,178,-122
1262,2214,0,2023-03-01T18:55:06.853637,1896387,165,793,1574,-1033,-577,-317,46,178,-122
1263,2215,0,2023-03-01T18:55:06.858862,1896392,165,793,1574,-1033,-577,-317,46,178,-122
1264,2216,0,2023-03-01T18:55:06.864677,1896398,165,793,1574,-1033,-577,-317,46,178,-122
1265,2217,0,2023-03-01T18:55:06.869572,1896402,166,793,1571,-1034,-569,-321,46,178,-122
1266,2218,0,2023-03-01T18:55:06.874908,1896409,166,793,1571,-1034,-569,-321,46,178,-122
1267,2219,0,2023-03-01T18:55:06.879703,1896413,166,793,1571,-1034,-569,-321,46,178,-122
1268,2220,0,2023-03-01T18:55:06.884320,1896418,166,793,1571,-1034,-569,-321,46,178,-122
1269,2221,0,2023-03-01T18:55:06.889849,1896423,167,793,1571,-1036,-567,-317,46,178,-122
1270,2222,0,2023-03-01T18:55:06.895828,1896429,167,793,1571,-1036,-567,-317,46,178,-122
1271,2223,0,2023-03-01T18:55:06.900637,1896434,167,793,1571,-1036,-567,-317,46,178,-122
1272,2224,0,2023-03-01T18:55:06.905810,1896439,167,793,1571,-1036,-567,-317,46,178,-122
1273,2225,0,2023-03-01T18:55:06.911202,1896444,165,792,1575,-1038,-572,-321,46,178,-122
1274,2226,0,2023-03-01T18:55:06.917358,1896451,165,792,1575,-1038,-572,-321,46,178,-122
1275,2227,0,2023-03-01T18:55:06.922129,1896456,165,792,1575,-1038,-572,-321,46,178,-122
1276,2228,0,2023-03-01T18:55:06.927873,1896461,165,792,1575,-1038,-572,-321,46,178,-122
1277,2229,0,2023-03-01T18:55:06.933160,1896466,168,793,1571,-1033,-566,-319,46,178,-122
1278,2230,0,2023-03-01T18:55:06.938827,1896472,168,793,1571,-1033,-566,-319,46,178,-122
1279,2231,0,2023-03-01T18:55:06.944021,1896477,168,793,1571,-1033,-566,-319,46,178,-122
1280,2232,0,2023-03-01T18:55:06.949982,1896483,166,795,1577,-1036,-570,-320,48,188,-122
1281,2233,0,2023-03-01T18:55:06.955609,1896488,166,795,1577,-1036,-570,-320,48,188,-122
1282,2234,0,2023-03-01T18:55:06.961193,1896494,166,795,1577,-1036,-570,-320,48,188,-122
1283,2235,0,2023-03-01T18:55:06.968136,1896502,166,795,1577,-1036,-570,-320,48,188,-122
1284,2236,0,2023-03-01T18:55:06.974119,1896507,168,792,1574,-1035,-571,-325,48,188,-122
1285,2237,0,2023-03-01T18:55:06.980053,1896513,168,792,1574,-1035,-571,-325,48,188,-122
1286,2238,0,2023-03-01T18:55:06.984932,1896518,168,792,1574,-1035,-571,-325,48,188,-122
1287,2239,0,2023-03-01T18:55:06.990897,1896524,164,792,1568,-1033,-568,-327,48,188,-122
1288,2240,0,2023-03-01T18:55:06.996018,1896529,164,792,1568,-1033,-568,-327,48,188,-122
1289,2241,0,2023-03-01T18:55:07.000897,1896535,164,792,1568,-1033,-568,-327,48,188,-122
1290,2242,0,2023-03-01T18:55:07.005879,1896539,164,792,1568,-1033,-568,-327,48,188,-122
1291,2243,0,2023-03-01T18:55:07.011705,1896545,169,792,1575,-1035,-570,-326,48,188,-122
1292,2244,0,2023-03-01T18:55:07.017358,1896551,169,792,1575,-1035,-570,-326,48,188,-122
1293,2245,0,2023-03-01T18:55:07.038879,1896556,169,792,1575,-1035,-570,-326,48,188,-122
1294,2246,0,2023-03-01T18:55:07.044156,1896578,169,795,1566,-1042,-575,-323,48,188,-122
1295,2247,0,2023-03-01T18:55:07.050870,1896584,166,792,1575,-1034,-569,-318,48,188,-122
1296,2248,0,2023-03-01T18:55:07.057276,1896590,166,792,1575,-1034,-569,-318,48,188,-122
1297,2249,0,2023-03-01T18:55:07.062535,1896596,166,792,1575,-1034,-569,-318,48,188,-122
1298,2250,0,2023-03-01T18:55:07.068302,1896601,166,792,1575,-1034,-569,-318,48,188,-122
1299,2251,0,2023-03-01T18:55:07.073732,1896607,167,792,1566,-1039,-572,-312,48,188,-122
1300,2252,0,2023-03-01T18:55:07.079584,1896612,167,792,1566,-1039,-572,-312,48,188,-122
1301,2253,0,2023-03-01T18:55:07.085542,1896619,167,792,1566,-1039,-572,-312,48,188,-122
1302,2254,0,2023-03-01T18:55:07.090946,1896625,167,793,1570,-1040,-572,-312,44,186,-116
1303,2255,0,2023-03-01T18:55:07.096167,1896630,167,793,1570,-1040,-572,-312,44,186,-116
1304,2256,0,2023-03-01T18:55:07.100798,1896634,167,793,1570,-1040,-572,-312,44,186,-116
1305,2257,0,2023-03-01T18:55:07.107209,1896640,167,793,1570,-1040,-572,-312,44,186,-116
1306,2258,0,2023-03-01T18:55:07.112747,1896646,168,791,1574,-1040,-576,-318,44,186,-116
1307,2259,0,2023-03-01T18:55:07.119131,1896652,168,791,1574,-1040,-576,-318,44,186,-116
1308,2260,0,2023-03-01T18:55:07.124922,1896658,168,791,1574,-1040,-576,-318,44,186,-116
1309,2261,0,2023-03-01T18:55:07.130480,1896664,169,793,1578,-1032,-572,-313,44,186,-116
1310,2262,0,2023-03-01T18:55:07.135942,1896669,169,793,1578,-1032,-572,-313,44,186,-116
1311,2263,0,2023-03-01T18:55:07.140811,1896674,169,793,1578,-1032,-572,-313,44,186,-116
1312,2264,0,2023-03-01T18:55:07.146029,1896679,169,793,1578,-1032,-572,-313,44,186,-116
1313,2265,0,2023-03-01T18:55:07.153467,1896687,166,793,1572,-1042,-578,-319,44,186,-116
1314,2266,0,2023-03-01T18:55:07.159224,1896692,166,793,1572,-1042,-578,-319,44,186,-116
1315,2267,0,2023-03-01T18:55:07.165172,1896698,166,793,1572,-1042,-578,-319,44,186,-116
1316,2268,0,2023-03-01T18:55:07.170878,1896705,170,792,1572,-1040,-579,-322,44,186,-116
1317,2269,0,2023-03-01T18:55:07.176015,1896710,170,792,1572,-1040,-579,-322,44,186,-116
1318,2270,0,2023-03-01T18:55:07.180855,1896714,170,792,1572,-1040,-579,-322,44,186,-116
1319,2271,0,2023-03-01T18:55:07.186279,1896720,170,792,1572,-1040,-579,-322,44,186,-116
1320,2272,0,2023-03-01T18:55:07.191669,1896725,169,791,1569,-1027,-574,-322,44,186,-116
1321,2273,0,2023-03-01T18:55:07.197341,1896730,169,791,1569,-1027,-574,-322,44,186,-116
1322,2274,0,2023-03-01T18:55:07.202665,1896736,169,791,1569,-1027,-574,-322,44,186,-116
1323,2275,0,2023-03-01T18:55:07.208007,1896741,169,791,1569,-1027,-574,-322,44,186,-116
1324,2276,0,2023-03-01T18:55:07.214131,1896748,167,789,1574,-1036,-569,-320,31,189,-117
1325,2277,0,2023-03-01T18:55:07.219634,1896753,167,789,1574,-1036,-569,-320,31,189,-117
1326,2278,0,2023-03-01T18:55:07.224805,1896758,167,789,1574,-1036,-569,-320,31,189,-117
1327,2279,0,2023-03-01T18:55:07.230269,1896764,166,793,1578,-1034,-574,-321,31,189,-117
1328,2280,0,2023-03-01T18:55:07.235568,1896769,166,793,1578,-1034,-574,-321,31,189,-117
1329,2281,0,2023-03-01T18:55:07.240233,1896773,166,793,1578,-1034,-574,-321,31,189,-117
1330,2282,0,2023-03-01T18:55:07.244911,1896778,166,793,1578,-1034,-574,-321,31,189,-117
1331,2283,0,2023-03-01T18:55:07.250478,1896783,166,789,1577,-1032,-571,-321,31,189,-117
1332,2284,0,2023-03-01T18:55:07.256409,1896790,166,789,1577,-1032,-571,-321,31,189,-117
1333,2285,0,2023-03-01T18:55:07.261550,1896795,166,789,1577,-1032,-571,-321,31,189,-117
1334,2286,0,2023-03-01T18:55:07.266275,1896800,166,789,1577,-1032,-571,-321,31,189,-117
1335,2287,0,2023-03-01T18:55:07.272147,1896805,168,790,1572,-1035,-566,-324,31,189,-117
1336,2288,0,2023-03-01T18:55:07.278068,1896811,168,790,1572,-1035,-566,-324,31,189,-117
1337,2289,0,2023-03-01T18:55:07.283134,1896816,168,790,1572,-1035,-566,-324,31,189,-117
1338,2290,0,2023-03-01T18:55:07.288894,1896822,168,790,1572,-1035,-566,-324,31,189,-117
1339,2291,0,2023-03-01T18:55:07.293956,1896827,166,793,1574,-1034,-572,-327,31,189,-117
1340,2292,0,2023-03-01T18:55:07.299273,1896833,166,793,1574,-1034,-572,-327,31,189,-117
1341,2293,0,2023-03-01T18:55:07.304254,1896838,166,793,1574,-1034,-572,-327,31,189,-117
1342,2294,0,2023-03-01T18:55:07.310366,1896844,167,790,1571,-1034,-576,-335,31,189,-117
1343,2295,0,2023-03-01T18:55:07.315818,1896849,167,790,1571,-1034,-576,-335,31,189,-117
1344,2296,0,2023-03-01T18:55:07.320964,1896854,167,790,1571,-1034,-576,-335,31,189,-117
1345,2297,0,2023-03-01T18:55:07.326913,1896860,167,790,1571,-1034,-576,-335,31,189,-117
1346,2298,0,2023-03-01T18:55:07.332363,1896865,169,793,1572,-1037,-576,-319,45,187,-123
1347,2299,0,2023-03-01T18:55:07.338215,1896871,169,793,1572,-1037,-576,-319,45,187,-123
1348,2300,0,2023-03-01T18:55:07.343271,1896877,169,793,1572,-1037,-576,-319,45,187,-123
1349,2301,0,2023-03-01T18:55:07.348170,1896882,169,793,1572,-1037,-576,-319,45,187,-123
1350,2302,0,2023-03-01T18:55:07.352768,1896886,166,792,1566,-1032,-571,-323,45,187,-123
1351,2303,0,2023-03-01T18:55:07.358110,1896892,166,792,1566,-1032,-571,-323,45,187,-123
1352,2304,0,2023-03-01T18:55:07.363056,1896896,166,792,1566,-1032,-571,-323,45,187,-123
1353,2305,0,2023-03-01T18:55:07.367942,1896901,166,792,1566,-1032,-571,-323,45,187,-123
1354,2306,0,2023-03-01T18:55:07.373516,1896907,168,792,1574,-1035,-571,-324,45,187,-123
1355,2307,0,2023-03-01T18:55:07.378765,1896912,168,792,1574,-1035,-571,-324,45,187,-123
1356,2308,0,2023-03-01T18:55:07.384294,1896918,168,792,1574,-1035,-571,-324,45,187,-123
1357,2309,0,2023-03-01T18:55:07.390307,1896924,168,794,1578,-1038,-568,-322,45,187,-123
1358,2310,0,2023-03-01T18:55:07.396268,1896929,168,794,1578,-1038,-568,-322,45,187,-123
1359,2311,0,2023-03-01T18:55:07.401543,1896935,168,794,1578,-1038,-568,-322,45,187,-123
1360,2312,0,2023-03-01T18:55:07.406727,1896940,168,794,1578,-1038,-568,-322,45,187,-123
1361,2313,0,2023-03-01T18:55:07.411769,1896945,165,795,1573,-1045,-574,-325,45,187,-123
1362,2314,0,2023-03-01T18:55:07.417064,1896950,165,795,1573,-1045,-574,-325,45,187,-123
1363,2315,0,2023-03-01T18:55:07.422071,1896955,165,795,1573,-1045,-574,-325,45,187,-123
1364,2316,0,2023-03-01T18:55:07.426890,1896961,165,795,1573,-1045,-574,-325,45,187,-123
1365,2317,0,2023-03-01T18:55:07.432162,1896966,166,792,1574,-1034,-570,-319,45,187,-123
1366,2318,0,2023-03-01T18:55:07.437558,1896971,166,792,1574,-1034,-570,-319,45,187,-123
1367,2319,0,2023-03-01T18:55:07.442817,1896976,166,792,1574,-1034,-570,-319,45,187,-123
1368,2320,0,2023-03-01T18:55:07.448398,1896982,166,792,1574,-1034,-570,-319,45,187,-123
1369,2321,0,2023-03-01T18:55:07.453727,1896987,167,793,1577,-1036,-568,-324,45,187,-123
1370,2322,0,2023-03-01T18:55:07.459599,1896992,167,793,1577,-1036,-568,-324,45,187,-123
1371,2323,0,2023-03-01T18:55:07.464662,1896997,167,793,1577,-1036,-568,-324,45,187,-123
1372,2324,0,2023-03-01T18:55:07.470968,1897005,168,791,1573,-1041,-569,-323,43,187,-115
1373,2325,0,2023-03-01T18:55:07.477299,1897011,168,791,1573,-1041,-569,-323,43,187,-115
1374,2326,0,2023-03-01T18:55:07.482411,1897016,168,791,1573,-1041,-569,-323,43,187,-115
1375,2327,0,2023-03-01T18:55:07.487963,1897021,168,791,1573,-1041,-569,-323,43,187,-115
