,Unnamed: 0,imu,server_time,arduino_time,ax,ay,az,gx,gy,gz,mx,my,mz
3586,4538,0,2023-03-01T18:55:19.801906,1909336,250,701,1600,-1022,-549,-305,87,225,-103
3587,4539,0,2023-03-01T18:55:19.807243,1909341,241,691,1602,-1070,-553,-328,87,225,-103
3588,4540,0,2023-03-01T18:55:19.813469,1909347,241,691,1602,-1070,-553,-328,87,225,-103
3589,4541,0,2023-03-01T18:55:19.819300,1909353,241,691,1602,-1070,-553,-328,87,225,-103
3590,4542,0,2023-03-01T18:55:19.824240,1909358,241,691,1602,-1070,-553,-328,87,225,-103
3591,4543,0,2023-03-01T18:55:19.829616,1909363,233,676,1614,-1093,-555,-334,92,222,-98
3592,4544,0,2023-03-01T18:55:19.836388,1909370,233,676,1614,-1093,-555,-334,92,222,-98
3593,4545,0,2023-03-01T18:55:19.841326,1909376,233,676,1614,-1093,-555,-334,92,222,-98
3594,4546,0,2023-03-01T18:55:19.845998,1909380,233,664,1609,-1070,-582,-331,92,222,-98
3595,4547,0,2023-03-01T18:55:19.851729,1909386,233,664,1609,-1070,-582,-331,92,222,-98
3596,4548,0,2023-03-01T18:55:19.858002,1909392,233,664,1609,-1070,-582,-331,92,222,-98
3597,4549,0,2023-03-01T18:55:19.863079,1909397,233,664,1609,-1070,-582,-331,92,222,-98
3598,4550,0,2023-03-01T18:55:19.868673,1909402,240,668,1609,-1021,-592,-310,92,222,-98
3599,4551,0,2023-03-01T18:55:19.875183,1909409,240,668,1609,-1021,-592,-310,92,222,-98
3600,4552,0,2023-03-01T18:55:19.881008,1909414,240,668,1609,-1021,-592,-310,92,222,-98
3601,4553,0,2023-03-01T18:55:19.886149,1909420,250,684,1603,-996,-588,-311,92,222,-98
3602,4554,0,2023-03-01T18:55:19.891955,1909426,250,684,1603,-996,-588,-311,92,222,-98
3603,4555,0,2023-03-01T18:55:19.898860,1909433,250,684,1603,-996,-588,-311,92,222,-98
3604,4556,0,2023-03-01T18:55:19.904173,1909438,250,684,1603,-996,-588,-311,92,222,-98
3605,4557,0,2023-03-01T18:55:19.909116,1909443,253,693,1601,-1005,-577,-308,92,222,-98
3606,4558,0,2023-03-01T18:55:19.915385,1909449,253,693,1601,-1005,-577,-308,92,222,-98
3607,4559,0,2023-03-01T18:55:19.922001,1909456,253,693,1601,-1005,-577,-308,92,222,-98
3608,4560,0,2023-03-01T18:55:19.926887,1909460,249,696,1598,-1027,-551,-324,92,222,-98
3609,4561,0,2023-03-01T18:55:19.932117,1909467,249,696,1598,-1027,-551,-324,92,222,-98
3610,4562,0,2023-03-01T18:55:19.937834,1909472,249,696,1598,-1027,-551,-324,92,222,-98
3611,4563,0,2023-03-01T18:55:19.942389,1909477,249,696,1598,-1027,-551,-324,92,222,-98
3612,4564,0,2023-03-01T18:55:19.947490,1909481,238,690,1608,-1067,-552,-335,90,212,-110
3613,4565,0,2023-03-01T18:55:19.953791,1909487,238,690,1608,-1067,-552,-335,90,212,-110
3614,4566,0,2023-03-01T18:55:19.959571,1909493,238,690,1608,-1067,-552,-335,90,212,-110
3615,4567,0,2023-03-01T18:55:19.964531,1909498,238,690,1608,-1067,-552,-335,90,212,-110
3616,4568,0,2023-03-01T18:55:19.969373,1909504,231,673,1606,-1075,-565,-331,90,212,-110
3617,4569,0,2023-03-01T18:55:19.974797,1909509,231,673,1606,-1075,-565,-331,90,212,-110
3618,4570,0,2023-03-01T18:55:19.980378,1909515,231,673,1606,-1075,-565,-331,90,212,-110
3619,4571,0,2023-03-01T18:55:19.985435,1909520,243,668,1605,-1046,-578,-324,90,212,-110
3620,4572,0,2023-03-01T18:55:19.990639,1909525,243,668,1605,-1046,-578,-324,90,212,-110
3621,4573,0,2023-03-01T18:55:19.996545,1909531,243,668,1605,-1046,-578,-324,90,212,-110
3622,4574,0,2023-03-01T18:55:20.001082,1909535,243,668,1605,-1046,-578,-324,90,212,-110
3623,4575,0,2023-03-01T18:55:20.005747,1909539,244,671,1606,-1025,-589,-319,90,212,-110
3624,4576,0,2023-03-01T18:55:20.011534,1909545,244,671,1606,-1025,-589,-319,90,212,-110
3625,4577,0,2023-03-01T18:55:20.017787,1909552,244,671,1606,-1025,-589,-319,90,212,-110
3626,4578,0,2023-03-01T18:55:20.023145,1909557,244,671,1606,-1025,-589,-319,90,212,-110
3627,4579,0,2023-03-01T18:55:20.028479,1909562,249,682,1612,-1014,-581,-316,90,212,-110
3628,4580,0,2023-03-01T18:55:20.034070,1909568,249,682,1612,-1014,-581,-316,90,212,-110
3629,4581,0,2023-03-01T18:55:20.038936,1909573,249,682,1612,-1014,-581,-316,90,212,-110
3630,4582,0,2023-03-01T18:55:20.043936,1909578,249,682,1612,-1014,-581,-316,90,212,-110
3631,4583,0,2023-03-01T18:55:20.048685,1909582,251,695,1603,-1013,-574,-323,90,212,-110
3632,4584,0,2023-03-01T18:55:20.054163,1909588,251,695,1603,-1013,-574,-323,90,212,-110
3633,4585,0,2023-03-01T18:55:20.059198,1909594,251,695,1603,-1013,-574,-323,90,212,-110
3634,4586,0,2023-03-01T18:55:20.064131,1909598,251,695,1603,-1013,-574,-323,90,212,-110
3635,4587,0,2023-03-01T18:55:20.069359,1909604,242,694,1599,-1029,-560,-324,91,211,-91
3636,4588,0,2023-03-01T18:55:20.075879,1909610,242,694,1599,-1029,-560,-324,91,211,-91
3637,4589,0,2023-03-01T18:55:20.081566,1909616,242,694,1599,-1029,-560,-324,91,211,-91
3638,4590,0,2023-03-01T18:55:20.086991,1909621,234,689,1608,-1055,-556,-339,91,211,-91
3639,4591,0,2023-03-01T18:55:20.092984,1909626,234,689,1608,-1055,-556,-339,91,211,-91
3640,4592,0,2023-03-01T18:55:20.098845,1909633,234,689,1608,-1055,-556,-339,91,211,-91
3641,4593,0,2023-03-01T18:55:20.104292,1909638,234,689,1608,-1055,-556,-339,91,211,-91
3642,4594,0,2023-03-01T18:55:20.109051,1909643,232,678,1605,-1066,-568,-336,91,211,-91
3643,4595,0,2023-03-01T18:55:20.114901,1909649,232,678,1605,-1066,-568,-336,91,211,-91
3644,4596,0,2023-03-01T18:55:20.120278,1909654,232,678,1605,-1066,-568,-336,91,211,-91
3645,4597,0,2023-03-01T18:55:20.127214,1909660,239,673,1600,-1053,-585,-324,91,211,-91
3646,4598,0,2023-03-01T18:55:20.133202,1909667,239,673,1600,-1053,-585,-324,91,211,-91
3647,4599,0,2023-03-01T18:55:20.139544,1909673,239,673,1600,-1053,-585,-324,91,211,-91
3648,4600,0,2023-03-01T18:55:20.144639,1909679,239,673,1600,-1053,-585,-324,91,211,-91
3649,4601,0,2023-03-01T18:55:20.149755,1909684,244,672,1601,-1023,-588,-324,91,211,-91
3650,4602,0,2023-03-01T18:55:20.156129,1909690,244,672,1601,-1023,-588,-324,91,211,-91
3651,4603,0,2023-03-01T18:55:20.161351,1909695,244,672,1601,-1023,-588,-324,91,211,-91
3652,4604,0,2023-03-01T18:55:20.166002,1909700,247,682,1597,-1004,-583,-314,91,211,-91
3653,4605,0,2023-03-01T18:55:20.171397,1909705,247,682,1597,-1004,-583,-314,91,211,-91
3654,4606,0,2023-03-01T18:55:20.177989,1909711,247,682,1597,-1004,-583,-314,91,211,-91
3655,4607,0,2023-03-01T18:55:20.182961,1909716,247,682,1597,-1004,-583,-314,91,211,-91
3656,4608,0,2023-03-01T18:55:20.188034,1909722,242,690,1599,-1019,-559,-327,91,211,-91
3657,4609,0,2023-03-01T18:55:20.194172,1909728,242,690,1599,-1019,-559,-327,91,211,-91
3658,4610,0,2023-03-01T18:55:20.199642,1909734,242,690,1599,-1019,-559,-327,91,211,-91
3659,4611,0,2023-03-01T18:55:20.204700,1909739,242,690,1599,-1019,-559,-327,91,211,-91
3660,4612,0,2023-03-01T18:55:20.209813,1909744,241,692,1610,-1031,-556,-325,86,220,-108
3661,4613,0,2023-03-01T18:55:20.216156,1909750,241,692,1610,-1031,-556,-325,86,220,-108
3662,4614,0,2023-03-01T18:55:20.222024,1909755,241,692,1610,-1031,-556,-325,86,220,-108
3663,4615,0,2023-03-01T18:55:20.227106,1909762,237,685,1601,-1047,-563,-326,86,220,-108
3664,4616,0,2023-03-01T18:55:20.232954,1909767,237,685,1601,-1047,-563,-326,86,220,-108
3665,4617,0,2023-03-01T18:55:20.239280,1909773,237,685,1601,-1047,-563,-326,86,220,-108
3666,4618,0,2023-03-01T18:55:20.244099,1909778,237,685,1601,-1047,-563,-326,86,220,-108
3667,4619,0,2023-03-01T18:55:20.248869,1909783,234,675,1603,-1055,-579,-331,86,220,-108
3668,4620,0,2023-03-01T18:55:20.254739,1909789,234,675,1603,-1055,-579,-331,86,220,-108
3669,4621,0,2023-03-01T18:55:20.259556,1909793,234,675,1603,-1055,-579,-331,86,220,-108
3670,4622,0,2023-03-01T18:55:20.264914,1909798,234,675,1603,-1055,-579,-331,86,220,-108
3671,4623,0,2023-03-01T18:55:20.269908,1909804,243,674,1603,-1047,-581,-324,86,220,-108
3672,4624,0,2023-03-01T18:55:20.276578,1909811,243,674,1603,-1047,-581,-324,86,220,-108
3673,4625,0,2023-03-01T18:55:20.281618,1909816,243,674,1603,-1047,-581,-324,86,220,-108
3674,4626,0,2023-03-01T18:55:20.286638,1909821,245,676,1599,-1028,-591,-317,86,220,-108
3675,4627,0,2023-03-01T18:55:20.292026,1909826,245,676,1599,-1028,-591,-317,86,220,-108
3676,4628,0,2023-03-01T18:55:20.299805,1909832,245,676,1599,-1028,-591,-317,86,220,-108
3677,4629,0,2023-03-01T18:55:20.304881,1909838,245,676,1599,-1028,-591,-317,86,220,-108
3678,4630,0,2023-03-01T18:55:20.309889,1909843,248,681,1599,-1012,-571,-319,86,220,-108
3679,4631,0,2023-03-01T18:55:20.315754,1909850,248,681,1599,-1012,-571,-319,86,220,-108
3680,4632,0,2023-03-01T18:55:20.321935,1909856,248,681,1599,-1012,-571,-319,86,220,-108
3681,4633,0,2023-03-01T18:55:20.327221,1909861,248,681,1599,-1012,-571,-319,87,215,-95
3682,4634,0,2023-03-01T18:55:20.332303,1909866,248,681,1599,-1012,-571,-319,87,215,-95
3683,4635,0,2023-03-01T18:55:20.337351,1909871,248,681,1599,-1012,-571,-319,87,215,-95
3684,4636,0,2023-03-01T18:55:20.342496,1909876,248,681,1599,-1012,-571,-319,87,215,-95
3685,4637,0,2023-03-01T18:55:20.347806,1909881,239,689,1604,-1035,-560,-323,87,215,-95
3686,4638,0,2023-03-01T18:55:20.354688,1909889,239,689,1604,-1035,-560,-323,87,215,-95
3687,4639,0,2023-03-01T18:55:20.360872,1909895,239,689,1604,-1035,-560,-323,87,215,-95
3688,4640,0,2023-03-01T18:55:20.365923,1909900,235,686,1603,-1052,-562,-328,87,215,-95
3689,4641,0,2023-03-01T18:55:20.371821,1909906,235,686,1603,-1052,-562,-328,87,215,-95
3690,4642,0,2023-03-01T18:55:20.378320,1909912,235,686,1603,-1052,-562,-328,87,215,-95
3691,4643,0,2023-03-01T18:55:20.383070,1909917,235,686,1603,-1052,-562,-328,87,215,-95
3692,4644,0,2023-03-01T18:55:20.388178,1909922,241,679,1603,-1048,-575,-325,87,215,-95
3693,4645,0,2023-03-01T18:55:20.394327,1909928,241,679,1603,-1048,-575,-325,87,215,-95
3694,4646,0,2023-03-01T18:55:20.399331,1909934,241,679,1603,-1048,-575,-325,87,215,-95
3695,4647,0,2023-03-01T18:55:20.404553,1909939,241,679,1603,-1048,-575,-325,87,215,-95
3696,4648,0,2023-03-01T18:55:20.410087,1909944,244,677,1599,-1042,-583,-328,87,215,-95
3697,4649,0,2023-03-01T18:55:20.416383,1909950,244,677,1599,-1042,-583,-328,87,215,-95
3698,4650,0,2023-03-01T18:55:20.422934,1909957,244,677,1599,-1042,-583,-328,87,215,-95
3699,4651,0,2023-03-01T18:55:20.428146,1909962,246,681,1607,-1023,-578,-321,87,215,-95
3700,4652,0,2023-03-01T18:55:20.434856,1909968,246,681,1607,-1023,-578,-321,87,215,-95
3701,4653,0,2023-03-01T18:55:20.440854,1909975,246,681,1607,-1023,-578,-321,87,215,-95
3702,4654,0,2023-03-01T18:55:20.445914,1909980,244,685,1609,-1023,-572,-321,87,215,-95
3703,4655,0,2023-03-01T18:55:20.452313,1909986,244,685,1609,-1023,-572,-321,87,215,-95
3704,4656,0,2023-03-01T18:55:20.459481,1909993,244,685,1609,-1023,-572,-321,87,215,-95
3705,4657,0,2023-03-01T18:55:20.464886,1909999,244,685,1609,-1023,-572,-321,87,215,-95
3706,4658,0,2023-03-01T18:55:20.469985,1910004,243,685,1603,-1022,-556,-323,90,214,-98
3707,4659,0,2023-03-01T18:55:20.475501,1910009,243,685,1603,-1022,-556,-323,90,214,-98
3708,4660,0,2023-03-01T18:55:20.481048,1910016,243,685,1603,-1022,-556,-323,90,214,-98
3709,4661,0,2023-03-01T18:55:20.486314,1910021,237,684,1600,-1034,-559,-325,90,214,-98
3710,4662,0,2023-03-01T18:55:20.492106,1910026,237,684,1600,-1034,-559,-325,90,214,-98
3711,4663,0,2023-03-01T18:55:20.498189,1910032,237,684,1600,-1034,-559,-325,90,214,-98
3712,4664,0,2023-03-01T18:55:20.503160,1910037,237,684,1600,-1034,-559,-325,90,214,-98
3713,4665,0,2023-03-01T18:55:20.508609,1910042,239,683,1599,-1054,-569,-318,90,214,-98
3714,4666,0,2023-03-01T18:55:20.515513,1910049,239,683,1599,-1054,-569,-318,90,214,-98
3715,4667,0,2023-03-01T18:55:20.521374,1910055,239,683,1599,-1054,-569,-318,90,214,-98
3716,4668,0,2023-03-01T18:55:20.526282,1910061,240,679,1607,-1061,-581,-318,90,214,-98
3717,4669,0,2023-03-01T18:55:20.531878,1910066,240,679,1607,-1061,-581,-318,90,214,-98
3718,4670,0,2023-03-01T18:55:20.538212,1910072,240,679,1607,-1061,-581,-318,90,214,-98
3719,4671,0,2023-03-01T18:55:20.543256,1910077,240,679,1607,-1061,-581,-318,90,214,-98
3720,4672,0,2023-03-01T18:55:20.549064,1910083,246,677,1607,-1046,-586,-318,90,214,-98
3721,4673,0,2023-03-01T18:55:20.555619,1910089,246,677,1607,-1046,-586,-318,90,214,-98
3722,4674,0,2023-03-01T18:55:20.561802,1910094,246,677,1607,-1046,-586,-318,90,214,-98
3723,4675,0,2023-03-01T18:55:20.566662,1910100,245,678,1601,-1026,-577,-321,90,214,-98
3724,4676,0,2023-03-01T18:55:20.573088,1910107,245,678,1601,-1026,-577,-321,90,214,-98
3725,4677,0,2023-03-01T18:55:20.579271,1910113,245,678,1601,-1026,-577,-321,90,214,-98
3726,4678,0,2023-03-01T18:55:20.584527,1910119,245,678,1601,-1026,-577,-321,90,214,-98
3727,4679,0,2023-03-01T18:55:20.589676,1910123,246,685,1600,-1022,-569,-326,91,215,-97
3728,4680,0,2023-03-01T18:55:20.595759,1910130,246,685,1600,-1022,-569,-326,91,215,-97
3729,4681,0,2023-03-01T18:55:20.601494,1910135,246,685,1600,-1022,-569,-326,91,215,-97
3730,4682,0,2023-03-01T18:55:20.606862,1910141,239,687,1599,-1030,-554,-333,91,215,-97
3731,4683,0,2023-03-01T18:55:20.612035,1910147,239,687,1599,-1030,-554,-333,91,215,-97
3732,4684,0,2023-03-01T18:55:20.617868,1910152,239,687,1599,-1030,-554,-333,91,215,-97
3733,4685,0,2023-03-01T18:55:20.622964,1910157,239,687,1599,-1030,-554,-333,91,215,-97
3734,4686,0,2023-03-01T18:55:20.628153,1910162,242,686,1601,-1026,-560,-323,91,215,-97
3735,4687,0,2023-03-01T18:55:20.634432,1910168,242,686,1601,-1026,-560,-323,91,215,-97
3736,4688,0,2023-03-01T18:55:20.639723,1910173,242,686,1601,-1026,-560,-323,91,215,-97
3737,4689,0,2023-03-01T18:55:20.644617,1910178,242,686,1601,-1026,-560,-323,91,215,-97
3738,4690,0,2023-03-01T18:55:20.649401,1910183,242,682,1606,-1050,-565,-326,91,215,-97
3739,4691,0,2023-03-01T18:55:20.655631,1910190,242,682,1606,-1050,-565,-326,91,215,-97
3740,4692,0,2023-03-01T18:55:20.661417,1910195,242,682,1606,-1050,-565,-326,91,215,-97
3741,4693,0,2023-03-01T18:55:20.666263,1910201,242,678,1605,-1047,-574,-319,91,215,-97
3742,4694,0,2023-03-01T18:55:20.671682,1910206,242,678,1605,-1047,-574,-319,91,215,-97
3743,4695,0,2023-03-01T18:55:20.680853,1910214,242,678,1605,-1047,-574,-319,91,215,-97
3744,4696,0,2023-03-01T18:55:20.685824,1910220,243,679,1609,-1033,-574,-325,91,215,-97
3745,4697,0,2023-03-01T18:55:20.691290,1910225,243,679,1609,-1033,-574,-325,91,215,-97
3746,4698,0,2023-03-01T18:55:20.696227,1910231,243,679,1609,-1033,-574,-325,91,215,-97
3747,4699,0,2023-03-01T18:55:20.701423,1910236,243,679,1609,-1033,-574,-325,91,215,-97
3748,4700,0,2023-03-01T18:55:20.706518,1910241,243,679,1609,-1033,-574,-325,91,215,-97
3749,4701,0,2023-03-01T18:55:20.711838,1910246,243,679,1609,-1033,-574,-325,91,215,-97
3750,4702,0,2023-03-01T18:55:20.718084,1910252,243,679,1609,-1033,-574,-325,91,215,-97
3751,4703,0,2023-03-01T18:55:20.722968,1910257,243,679,1609,-1033,-574,-325,91,215,-97
3752,4704,0,2023-03-01T18:55:20.728633,1910262,242,683,1610,-1022,-565,-323,89,223,-99
3753,4705,0,2023-03-01T18:55:20.735245,1910269,242,683,1610,-1022,-565,-323,89,223,-99
3754,4706,0,2023-03-01T18:55:20.741489,1910276,242,683,1610,-1022,-565,-323,89,223,-99
3755,4707,0,2023-03-01T18:55:20.746449,1910281,242,686,1602,-1033,-564,-322,89,223,-99
3756,4708,0,2023-03-01T18:55:20.751863,1910286,242,686,1602,-1033,-564,-322,89,223,-99
3757,4709,0,2023-03-01T18:55:20.757312,1910292,242,686,1602,-1033,-564,-322,89,223,-99
3758,4710,0,2023-03-01T18:55:20.762702,1910297,242,686,1602,-1033,-564,-322,89,223,-99
3759,4711,0,2023-03-01T18:55:20.767738,1910302,240,684,1606,-1051,-569,-321,89,223,-99
3760,4712,0,2023-03-01T18:55:20.774022,1910308,240,684,1606,-1051,-569,-321,89,223,-99
3761,4713,0,2023-03-01T18:55:20.778861,1910312,240,684,1606,-1051,-569,-321,89,223,-99
3762,4714,0,2023-03-01T18:55:20.783969,1910318,240,684,1606,-1051,-569,-321,89,223,-99
3763,4715,0,2023-03-01T18:55:20.789238,1910324,241,680,1605,-1046,-571,-311,89,223,-99
3764,4716,0,2023-03-01T18:55:20.795654,1910330,241,680,1605,-1046,-571,-311,89,223,-99
3765,4717,0,2023-03-01T18:55:20.800704,1910335,241,680,1605,-1046,-571,-311,89,223,-99
3766,4718,0,2023-03-01T18:55:20.805827,1910340,241,680,1605,-1046,-571,-311,89,223,-99
3767,4719,0,2023-03-01T18:55:20.810861,1910345,245,674,1603,-1047,-588,-322,89,223,-99
3768,4720,0,2023-03-01T18:55:20.818019,1910351,245,674,1603,-1047,-588,-322,89,223,-99
3769,4721,0,2023-03-01T18:55:20.822967,1910356,245,674,1603,-1047,-588,-322,89,223,-99
3770,4722,0,2023-03-01T18:55:20.828342,1910363,245,684,1605,-1039,-582,-321,89,223,-99
3771,4723,0,2023-03-01T18:55:20.834662,1910369,245,684,1605,-1039,-582,-321,89,223,-99
3772,4724,0,2023-03-01T18:55:20.840967,1910374,245,684,1605,-1039,-582,-321,89,223,-99
3773,4725,0,2023-03-01T18:55:20.846615,1910380,243,681,1604,-1029,-568,-323,90,220,-102
3774,4726,0,2023-03-01T18:55:20.852817,1910387,243,681,1604,-1029,-568,-323,90,220,-102
3775,4727,0,2023-03-01T18:55:20.858435,1910392,243,681,1604,-1029,-568,-323,90,220,-102
3776,4728,0,2023-03-01T18:55:20.863201,1910397,243,681,1604,-1029,-568,-323,90,220,-102
3777,4729,0,2023-03-01T18:55:20.868202,1910403,240,686,1601,-1026,-567,-322,90,220,-102
3778,4730,0,2023-03-01T18:55:20.874102,1910409,240,686,1601,-1026,-567,-322,90,220,-102
3779,4731,0,2023-03-01T18:55:20.880059,1910414,240,686,1601,-1026,-567,-322,90,220,-102
3780,4732,0,2023-03-01T18:55:20.885721,1910420,240,686,1601,-1026,-567,-322,90,220,-102
3781,4733,0,2023-03-01T18:55:20.890483,1910424,242,685,1604,-1036,-568,-325,90,220,-102
3782,4734,0,2023-03-01T18:55:20.898050,1910431,242,685,1604,-1036,-568,-325,90,220,-102
3783,4735,0,2023-03-01T18:55:20.903367,1910437,242,685,1604,-1036,-568,-325,90,220,-102
3784,4736,0,2023-03-01T18:55:20.908872,1910443,242,683,1602,-1043,-571,-323,90,220,-102
3785,4737,0,2023-03-01T18:55:20.915407,1910450,242,683,1602,-1043,-571,-323,90,220,-102
3786,4738,0,2023-03-01T18:55:20.920594,1910455,242,683,1602,-1043,-571,-323,90,220,-102
3787,4739,0,2023-03-01T18:55:20.925692,1910459,242,683,1602,-1043,-571,-323,90,220,-102
3788,4740,0,2023-03-01T18:55:20.930202,1910464,242,680,1605,-1043,-576,-327,90,220,-102
3789,4741,0,2023-03-01T18:55:20.936675,1910470,242,680,1605,-1043,-576,-327,90,220,-102
3790,4742,0,2023-03-01T18:55:20.941781,1910475,242,680,1605,-1043,-576,-327,90,220,-102
3791,4743,0,2023-03-01T18:55:20.946622,1910480,242,679,1607,-1037,-581,-325,90,220,-102
3792,4744,0,2023-03-01T18:55:20.952245,1910487,242,679,1607,-1037,-581,-325,90,220,-102
3793,4745,0,2023-03-01T18:55:20.957799,1910492,242,679,1607,-1037,-581,-325,90,220,-102
3794,4746,0,2023-03-01T18:55:20.962697,1910497,242,679,1607,-1037,-581,-325,90,220,-102
3795,4747,0,2023-03-01T18:55:20.968058,1910502,244,681,1600,-1036,-575,-319,92,222,-108
3796,4748,0,2023-03-01T18:55:20.974453,1910508,244,681,1600,-1036,-575,-319,92,222,-108
3797,4749,0,2023-03-01T18:55:20.979410,1910513,244,681,1600,-1036,-575,-319,92,222,-108
3798,4750,0,2023-03-01T18:55:20.984277,1910518,244,681,1600,-1036,-575,-319,92,222,-108
3799,4751,0,2023-03-01T18:55:20.989641,1910523,246,686,1607,-1030,-569,-328,92,222,-108
3800,4752,0,2023-03-01T18:55:20.995959,1910530,246,686,1607,-1030,-569,-328,92,222,-108
3801,4753,0,2023-03-01T18:55:21.001652,1910536,246,686,1607,-1030,-569,-328,92,222,-108
3802,4754,0,2023-03-01T18:55:21.006862,1910541,242,688,1606,-1022,-559,-328,92,222,-108
3803,4755,0,2023-03-01T18:55:21.012512,1910547,242,688,1606,-1022,-559,-328,92,222,-108
3804,4756,0,2023-03-01T18:55:21.018159,1910552,242,688,1606,-1022,-559,-328,92,222,-108
3805,4757,0,2023-03-01T18:55:21.023349,1910557,242,688,1606,-1022,-559,-328,92,222,-108
3806,4758,0,2023-03-01T18:55:21.028778,1910562,242,683,1602,-1039,-568,-323,92,222,-108
3807,4759,0,2023-03-01T18:55:21.035269,1910569,242,683,1602,-1039,-568,-323,92,222,-108
3808,4760,0,2023-03-01T18:55:21.040703,1910575,242,683,1602,-1039,-568,-323,92,222,-108
3809,4761,0,2023-03-01T18:55:21.045881,1910580,242,683,1602,-1039,-568,-323,92,222,-108
3810,4762,0,2023-03-01T18:55:21.052258,1910586,239,685,1599,-1038,-573,-326,92,222,-108
3811,4763,0,2023-03-01T18:55:21.058384,1910592,239,685,1599,-1038,-573,-326,92,222,-108
3812,4764,0,2023-03-01T18:55:21.063303,1910597,239,685,1599,-1038,-573,-326,92,222,-108
3813,4765,0,2023-03-01T18:55:21.068428,1910602,241,682,1602,-1034,-577,-321,92,222,-108
3814,4766,0,2023-03-01T18:55:21.074931,1910608,241,682,1602,-1034,-577,-321,92,222,-108
3815,4767,0,2023-03-01T18:55:21.080696,1910615,241,682,1602,-1034,-577,-321,92,222,-108
3816,4768,0,2023-03-01T18:55:21.085777,1910620,241,682,1602,-1034,-577,-321,92,222,-108
3817,4769,0,2023-03-01T18:55:21.090861,1910625,247,680,1601,-1045,-577,-324,92,222,-108
3818,4770,0,2023-03-01T18:55:21.096495,1910631,247,680,1601,-1045,-577,-324,92,222,-108
3819,4771,0,2023-03-01T18:55:21.101735,1910636,247,680,1601,-1045,-577,-324,92,222,-108
3820,4772,0,2023-03-01T18:55:21.106796,1910641,246,682,1607,-1040,-573,-323,92,212,-106
3821,4773,0,2023-03-01T18:55:21.114369,1910647,246,682,1607,-1040,-573,-323,92,212,-106
3822,4774,0,2023-03-01T18:55:21.121552,1910656,246,682,1607,-1040,-573,-323,92,212,-106
3823,4775,0,2023-03-01T18:55:21.126356,1910661,244,683,1607,-1034,-569,-327,92,212,-106
3824,4776,0,2023-03-01T18:55:21.131650,1910666,244,683,1607,-1034,-569,-327,92,212,-106
3825,4777,0,2023-03-01T18:55:21.137697,1910672,244,683,1607,-1034,-569,-327,92,212,-106
3826,4778,0,2023-03-01T18:55:21.142698,1910677,244,683,1607,-1034,-569,-327,92,212,-106
3827,4779,0,2023-03-01T18:55:21.147884,1910682,243,686,1600,-1035,-567,-333,92,212,-106
3828,4780,0,2023-03-01T18:55:21.153973,1910688,243,686,1600,-1035,-567,-333,92,212,-106
3829,4781,0,2023-03-01T18:55:21.159016,1910693,243,686,1600,-1035,-567,-333,92,212,-106
3830,4782,0,2023-03-01T18:55:21.164007,1910699,243,686,1600,-1035,-567,-333,92,212,-106
3831,4783,0,2023-03-01T18:55:21.168894,1910703,239,686,1600,-1035,-563,-325,92,212,-106
3832,4784,0,2023-03-01T18:55:21.175090,1910709,239,686,1600,-1035,-563,-325,92,212,-106
3833,4785,0,2023-03-01T18:55:21.180037,1910714,239,686,1600,-1035,-563,-325,92,212,-106
3834,4786,0,2023-03-01T18:55:21.184991,1910719,239,686,1600,-1035,-563,-325,92,212,-106
3835,4787,0,2023-03-01T18:55:21.190039,1910724,240,682,1602,-1041,-575,-324,92,212,-106
3836,4788,0,2023-03-01T18:55:21.196852,1910731,240,682,1602,-1041,-575,-324,92,212,-106
3837,4789,0,2023-03-01T18:55:21.202202,1910736,240,682,1602,-1041,-575,-324,92,212,-106
3838,4790,0,2023-03-01T18:55:21.206915,1910742,245,681,1601,-1039,-579,-324,92,212,-106
3839,4791,0,2023-03-01T18:55:21.212038,1910747,245,681,1601,-1039,-579,-324,92,212,-106
3840,4792,0,2023-03-01T18:55:21.218054,1910752,245,681,1601,-1039,-579,-324,92,212,-106
3841,4793,0,2023-03-01T18:55:21.223010,1910757,245,681,1601,-1039,-579,-324,92,212,-106
3842,4794,0,2023-03-01T18:55:21.228204,1910762,242,681,1603,-1032,-576,-315,95,213,-97
3843,4795,0,2023-03-01T18:55:21.234521,1910768,242,681,1603,-1032,-576,-315,95,213,-97
3844,4796,0,2023-03-01T18:55:21.239691,1910773,242,681,1603,-1032,-576,-315,95,213,-97
3845,4797,0,2023-03-01T18:55:21.245216,1910779,242,681,1603,-1032,-576,-315,95,213,-97
3846,4798,0,2023-03-01T18:55:21.250291,1910785,245,683,1603,-1044,-572,-324,95,213,-97
3847,4799,0,2023-03-01T18:55:21.256079,1910791,245,683,1603,-1044,-572,-324,95,213,-97
3848,4800,0,2023-03-01T18:55:21.260874,1910795,245,683,1603,-1044,-572,-324,95,213,-97
3849,4801,0,2023-03-01T18:55:21.265730,1910800,245,683,1603,-1044,-572,-324,95,213,-97
3850,4802,0,2023-03-01T18:55:21.270186,1910804,246,685,1606,-1039,-569,-330,95,213,-97
3851,4803,0,2023-03-01T18:55:21.276513,1910810,246,685,1606,-1039,-569,-330,95,213,-97
3852,4804,0,2023-03-01T18:55:21.282159,1910816,246,685,1606,-1039,-569,-330,95,213,-97
3853,4805,0,2023-03-01T18:55:21.287546,1910821,242,683,1603,-1037,-573,-323,95,213,-97
3854,4806,0,2023-03-01T18:55:21.294069,1910828,242,683,1603,-1037,-573,-323,95,213,-97
3855,4807,0,2023-03-01T18:55:21.299058,1910833,242,683,1603,-1037,-573,-323,95,213,-97
3856,4808,0,2023-03-01T18:55:21.304246,1910838,242,683,1603,-1037,-573,-323,95,213,-97
3857,4809,0,2023-03-01T18:55:21.309323,1910843,242,683,1603,-1042,-577,-320,95,213,-97
3858,4810,0,2023-03-01T18:55:21.315637,1910850,242,683,1603,-1042,-577,-320,95,213,-97
3859,4811,0,2023-03-01T18:55:21.321372,1910855,242,683,1603,-1042,-577,-320,95,213,-97
3860,4812,0,2023-03-01T18:55:21.325982,1910860,242,683,1603,-1042,-577,-320,95,213,-97
3861,4813,0,2023-03-01T18:55:21.330895,1910865,246,683,1606,-1045,-578,-317,95,213,-97
3862,4814,0,2023-03-01T18:55:21.337202,1910871,246,683,1606,-1045,-578,-317,95,213,-97
3863,4815,0,2023-03-01T18:55:21.342084,1910876,246,683,1606,-1045,-578,-317,95,213,-97
3864,4816,0,2023-03-01T18:55:21.346919,1910881,244,681,1601,-1042,-581,-326,95,213,-97
3865,4817,0,2023-03-01T18:55:21.352831,1910887,244,681,1601,-1042,-581,-326,95,213,-97
3866,4818,0,2023-03-01T18:55:21.358847,1910893,244,681,1601,-1042,-581,-326,95,213,-97
3867,4819,0,2023-03-01T18:55:21.363455,1910898,244,681,1601,-1042,-581,-326,95,213,-97
3868,4820,0,2023-03-01T18:55:21.369172,1910903,242,681,1606,-1044,-570,-321,88,220,-110
3869,4821,0,2023-03-01T18:55:21.375513,1910909,242,681,1606,-1044,-570,-321,88,220,-110
3870,4822,0,2023-03-01T18:55:21.381517,1910916,242,681,1606,-1044,-570,-321,88,220,-110
3871,4823,0,2023-03-01T18:55:21.386558,1910921,241,683,1607,-1034,-568,-325,88,220,-110
3872,4824,0,2023-03-01T18:55:21.392117,1910926,241,683,1607,-1034,-568,-325,88,220,-110
3873,4825,0,2023-03-01T18:55:21.398291,1910932,241,683,1607,-1034,-568,-325,88,220,-110
3874,4826,0,2023-03-01T18:55:21.403218,1910937,241,683,1607,-1034,-568,-325,88,220,-110
3875,4827,0,2023-03-01T18:55:21.408433,1910942,243,683,1599,-1033,-570,-326,88,220,-110
3876,4828,0,2023-03-01T18:55:21.414674,1910948,243,683,1599,-1033,-570,-326,88,220,-110
3877,4829,0,2023-03-01T18:55:21.421517,1910956,243,683,1599,-1033,-570,-326,88,220,-110
3878,4830,0,2023-03-01T18:55:21.426688,1910961,243,683,1599,-1033,-570,-326,88,220,-110
3879,4831,0,2023-03-01T18:55:21.431853,1910966,243,685,1605,-1036,-575,-325,88,220,-110
3880,4832,0,2023-03-01T18:55:21.438774,1910973,243,685,1605,-1036,-575,-325,88,220,-110
3881,4833,0,2023-03-01T18:55:21.444060,1910978,243,685,1605,-1036,-575,-325,88,220,-110
3882,4834,0,2023-03-01T18:55:21.450344,1910984,242,685,1601,-1037,-575,-326,88,220,-110
3883,4835,0,2023-03-01T18:55:21.456928,1910991,242,685,1601,-1037,-575,-326,88,220,-110
3884,4836,0,2023-03-01T18:55:21.462506,1910996,242,685,1601,-1037,-575,-326,88,220,-110
3885,4837,0,2023-03-01T18:55:21.467530,1911002,241,682,1603,-1036,-572,-324,88,220,-110
3886,4838,0,2023-03-01T18:55:21.473953,1911008,241,682,1603,-1036,-572,-324,88,220,-110
3887,4839,0,2023-03-01T18:55:21.481397,1911015,241,682,1603,-1036,-572,-324,88,220,-110
3888,4840,0,2023-03-01T18:55:21.486817,1911021,245,681,1606,-1039,-576,-323,88,220,-110
3889,4841,0,2023-03-01T18:55:21.492636,1911026,245,681,1606,-1039,-576,-323,94,222,-98
3890,4842,0,2023-03-01T18:55:21.499186,1911033,245,681,1606,-1039,-576,-323,94,222,-98
3891,4843,0,2023-03-01T18:55:21.504912,1911038,245,681,1606,-1039,-576,-323,94,222,-98
3892,4844,0,2023-03-01T18:55:21.509926,1911044,242,682,1608,-1036,-570,-321,94,222,-98
3893,4845,0,2023-03-01T18:55:21.516199,1911050,242,682,1608,-1036,-570,-321,94,222,-98
3894,4846,0,2023-03-01T18:55:21.522326,1911056,242,682,1608,-1036,-570,-321,94,222,-98
3895,4847,0,2023-03-01T18:55:21.527460,1911061,241,681,1604,-1038,-562,-317,94,222,-98
3896,4848,0,2023-03-01T18:55:21.533368,1911067,241,681,1604,-1038,-562,-317,94,222,-98
3897,4849,0,2023-03-01T18:55:21.539793,1911073,241,681,1604,-1038,-562,-317,94,222,-98
3898,4850,0,2023-03-01T18:55:21.544949,1911078,241,681,1604,-1038,-562,-317,94,222,-98
3899,4851,0,2023-03-01T18:55:21.550197,1911085,240,681,1605,-1036,-566,-318,94,222,-98
3900,4852,0,2023-03-01T18:55:21.558944,1911093,240,681,1605,-1036,-566,-318,94,222,-98
3901,4853,0,2023-03-01T18:55:21.564036,1911098,240,681,1605,-1036,-566,-318,94,222,-98
3902,4854,0,2023-03-01T18:55:21.569247,1911103,241,679,1602,-1030,-565,-323,94,222,-98
3903,4855,0,2023-03-01T18:55:21.575304,1911109,241,679,1602,-1030,-565,-323,94,222,-98
3904,4856,0,2023-03-01T18:55:21.581171,1911115,241,679,1602,-1030,-565,-323,94,222,-98
3905,4857,0,2023-03-01T18:55:21.586439,1911120,241,679,1602,-1030,-565,-323,94,222,-98
3906,4858,0,2023-03-01T18:55:21.591237,1911126,242,682,1606,-1029,-569,-317,94,222,-98
3907,4859,0,2023-03-01T18:55:21.598235,1911132,242,682,1606,-1029,-569,-317,94,222,-98
3908,4860,0,2023-03-01T18:55:21.603884,1911138,242,682,1606,-1029,-569,-317,94,222,-98
3909,4861,0,2023-03-01T18:55:21.608895,1911143,246,680,1600,-1037,-575,-321,95,211,-97
3910,4862,0,2023-03-01T18:55:21.615431,1911150,246,680,1600,-1037,-575,-321,95,211,-97
3911,4863,0,2023-03-01T18:55:21.620534,1911154,246,680,1600,-1037,-575,-321,95,211,-97
3912,4864,0,2023-03-01T18:55:21.625471,1911159,246,680,1600,-1037,-575,-321,95,211,-97
3913,4865,0,2023-03-01T18:55:21.630996,1911164,248,679,1599,-1037,-571,-322,95,211,-97
3914,4866,0,2023-03-01T18:55:21.638915,1911173,248,679,1599,-1037,-571,-322,95,211,-97
3915,4867,0,2023-03-01T18:55:21.644653,1911179,248,679,1599,-1037,-571,-322,95,211,-97
3916,4868,0,2023-03-01T18:55:21.649207,1911183,244,678,1605,-1035,-575,-327,95,211,-97
3917,4869,0,2023-03-01T18:55:21.655040,1911189,244,678,1605,-1035,-575,-327,95,211,-97
3918,4870,0,2023-03-01T18:55:21.660843,1911195,244,678,1605,-1035,-575,-327,95,211,-97
3919,4871,0,2023-03-01T18:55:21.666788,1911200,244,678,1605,-1035,-575,-327,95,211,-97
3920,4872,0,2023-03-01T18:55:21.671712,1911205,243,682,1606,-1031,-573,-328,95,211,-97
3921,4873,0,2023-03-01T18:55:21.678330,1911213,243,682,1606,-1031,-573,-328,95,211,-97
3922,4874,0,2023-03-01T18:55:21.683193,1911218,243,682,1606,-1031,-573,-328,95,211,-97
3923,4875,0,2023-03-01T18:55:21.687975,1911222,242,681,1607,-1025,-570,-330,95,211,-97
3924,4876,0,2023-03-01T18:55:21.694089,1911228,242,681,1607,-1025,-570,-330,95,211,-97
3925,4877,0,2023-03-01T18:55:21.699122,1911233,242,681,1607,-1025,-570,-330,95,211,-97
3926,4878,0,2023-03-01T18:55:21.704132,1911238,242,681,1607,-1025,-570,-330,95,211,-97
3927,4879,0,2023-03-01T18:55:21.708956,1911243,240,682,1605,-1034,-565,-322,95,211,-97
3928,4880,0,2023-03-01T18:55:21.715209,1911249,240,682,1605,-1034,-565,-322,95,211,-97
3929,4881,0,2023-03-01T18:55:21.720086,1911255,240,682,1605,-1034,-565,-322,95,211,-97
3930,4882,0,2023-03-01T18:55:21.724955,1911259,240,682,1605,-1034,-565,-322,95,211,-97
3931,4883,0,2023-03-01T18:55:21.729604,1911264,246,684,1602,-1035,-571,-320,95,211,-97
3932,4884,0,2023-03-01T18:55:21.735623,1911270,246,684,1602,-1035,-571,-320,95,211,-97
3933,4885,0,2023-03-01T18:55:21.740994,1911275,246,684,1602,-1035,-571,-320,95,211,-97
3934,4886,0,2023-03-01T18:55:21.746969,1911281,246,684,1602,-1035,-571,-320,95,211,-97
3935,4887,0,2023-03-01T18:55:21.751781,1911286,243,686,1603,-1037,-571,-326,98,216,-94
3936,4888,0,2023-03-01T18:55:21.758697,1911292,243,686,1603,-1037,-571,-326,98,216,-94
3937,4889,0,2023-03-01T18:55:21.763579,1911298,243,686,1603,-1037,-571,-326,98,216,-94
3938,4890,0,2023-03-01T18:55:21.768817,1911303,242,683,1603,-1030,-568,-324,98,216,-94
3939,4891,0,2023-03-01T18:55:21.775052,1911309,242,683,1603,-1030,-568,-324,98,216,-94
3940,4892,0,2023-03-01T18:55:21.781319,1911315,242,683,1603,-1030,-568,-324,98,216,-94
3941,4893,0,2023-03-01T18:55:21.786848,1911321,242,683,1603,-1030,-568,-324,98,216,-94
3942,4894,0,2023-03-01T18:55:21.791529,1911326,244,684,1607,-1038,-570,-322,98,216,-94
3943,4895,0,2023-03-01T18:55:21.798178,1911332,244,684,1607,-1038,-570,-322,98,216,-94
3944,4896,0,2023-03-01T18:55:21.803884,1911337,244,684,1607,-1038,-570,-322,98,216,-94
3945,4897,0,2023-03-01T18:55:21.808873,1911343,245,683,1603,-1039,-568,-324,98,216,-94
3946,4898,0,2023-03-01T18:55:21.815177,1911350,245,683,1603,-1039,-568,-324,98,216,-94
3947,4899,0,2023-03-01T18:55:21.820067,1911354,245,683,1603,-1039,-568,-324,98,216,-94
3948,4900,0,2023-03-01T18:55:21.825191,1911359,245,683,1603,-1039,-568,-324,98,216,-94
3949,4901,0,2023-03-01T18:55:21.830383,1911364,242,684,1605,-1031,-571,-328,98,216,-94
3950,4902,0,2023-03-01T18:55:21.836737,1911370,242,684,1605,-1031,-571,-328,98,216,-94
3951,4903,0,2023-03-01T18:55:21.842745,1911376,242,684,1605,-1031,-571,-328,98,216,-94
3952,4904,0,2023-03-01T18:55:21.848070,1911382,242,683,1601,-1036,-582,-317,98,216,-94
3953,4905,0,2023-03-01T18:55:21.853533,1911388,242,683,1601,-1036,-582,-317,98,216,-94
3954,4906,0,2023-03-01T18:55:21.858521,1911393,242,683,1601,-1036,-582,-317,98,216,-94
3955,4907,0,2023-03-01T18:55:21.864001,1911398,242,683,1601,-1036,-582,-317,98,216,-94
3956,4908,0,2023-03-01T18:55:21.870040,1911404,240,682,1605,-1043,-569,-326,89,213,-107
3957,4909,0,2023-03-01T18:55:21.877197,1911411,240,682,1605,-1043,-569,-326,89,213,-107
3958,4910,0,2023-03-01T18:55:21.883499,1911417,240,682,1605,-1043,-569,-326,89,213,-107
3959,4911,0,2023-03-01T18:55:21.889366,1911424,244,681,1607,-1040,-571,-321,89,213,-107
3960,4912,0,2023-03-01T18:55:21.894559,1911429,244,681,1607,-1040,-571,-321,89,213,-107
3961,4913,0,2023-03-01T18:55:21.899861,1911434,244,681,1607,-1040,-571,-321,89,213,-107
3962,4914,0,2023-03-01T18:55:21.905137,1911439,244,681,1607,-1040,-571,-321,89,213,-107
3963,4915,0,2023-03-01T18:55:21.910518,1911444,243,681,1608,-1043,-568,-317,89,213,-107
3964,4916,0,2023-03-01T18:55:21.917188,1911451,243,681,1608,-1043,-568,-317,89,213,-107
3965,4917,0,2023-03-01T18:55:21.923169,1911456,243,681,1608,-1043,-568,-317,89,213,-107
3966,4918,0,2023-03-01T18:55:21.928942,1911462,241,684,1609,-1027,-567,-322,89,213,-107
3967,4919,0,2023-03-01T18:55:21.934022,1911468,241,684,1609,-1027,-567,-322,89,213,-107
3968,4920,0,2023-03-01T18:55:21.939296,1911473,241,684,1609,-1027,-567,-322,89,213,-107
3969,4921,0,2023-03-01T18:55:21.944772,1911479,241,684,1609,-1027,-567,-322,89,213,-107
3970,4922,0,2023-03-01T18:55:21.950011,1911484,245,681,1606,-1034,-567,-314,89,213,-107
3971,4923,0,2023-03-01T18:55:21.956834,1911490,245,681,1606,-1034,-567,-314,89,213,-107
3972,4924,0,2023-03-01T18:55:21.963167,1911496,245,681,1606,-1034,-567,-314,89,213,-107
3973,4925,0,2023-03-01T18:55:21.969527,1911502,240,684,1604,-1032,-570,-320,89,213,-107
3974,4926,0,2023-03-01T18:55:21.977109,1911511,240,684,1604,-1032,-570,-320,89,213,-107
3975,4927,0,2023-03-01T18:55:21.983390,1911517,240,684,1604,-1032,-570,-320,89,213,-107
3976,4928,0,2023-03-01T18:55:21.988421,1911523,242,683,1609,-1037,-568,-330,89,213,-107
3977,4929,0,2023-03-01T18:55:21.995746,1911529,242,683,1609,-1037,-568,-330,89,213,-107
3978,4930,0,2023-03-01T18:55:22.002651,1911536,242,683,1609,-1037,-568,-330,89,213,-107
3979,4931,0,2023-03-01T18:55:22.007893,1911542,243,684,1610,-1034,-574,-329,88,218,-96
3980,4932,0,2023-03-01T18:55:22.013568,1911547,243,684,1610,-1034,-574,-329,88,218,-96
3981,4933,0,2023-03-01T18:55:22.018492,1911553,243,684,1610,-1034,-574,-329,88,218,-96
3982,4934,0,2023-03-01T18:55:22.024031,1911558,243,684,1610,-1034,-574,-329,88,218,-96
3983,4935,0,2023-03-01T18:55:22.029092,1911563,247,682,1606,-1028,-570,-326,88,218,-96
3984,4936,0,2023-03-01T18:55:22.035793,1911570,247,682,1606,-1028,-570,-326,88,218,-96
3985,4937,0,2023-03-01T18:55:22.040980,1911575,247,682,1606,-1028,-570,-326,88,218,-96
3986,4938,0,2023-03-01T18:55:22.046218,1911580,247,682,1606,-1028,-570,-326,88,218,-96
3987,4939,0,2023-03-01T18:55:22.051324,1911585,245,686,1601,-1027,-571,-322,88,218,-96
3988,4940,0,2023-03-01T18:55:22.058248,1911592,245,686,1601,-1027,-571,-322,88,218,-96
3989,4941,0,2023-03-01T18:55:22.063172,1911598,245,686,1601,-1027,-571,-322,88,218,-96
3990,4942,0,2023-03-01T18:55:22.067911,1911603,242,682,1605,-1040,-572,-329,88,218,-96
3991,4943,0,2023-03-01T18:55:22.074298,1911608,242,682,1605,-1040,-572,-329,88,218,-96
3992,4944,0,2023-03-01T18:55:22.080014,1911614,242,682,1605,-1040,-572,-329,88,218,-96
3993,4945,0,2023-03-01T18:55:22.085205,1911619,242,682,1605,-1040,-572,-329,88,218,-96
3994,4946,0,2023-03-01T18:55:22.091249,1911624,244,684,1601,-1041,-569,-326,88,218,-96
3995,4947,0,2023-03-01T18:55:22.097157,1911631,244,684,1601,-1041,-569,-326,88,218,-96
3996,4948,0,2023-03-01T18:55:22.103426,1911638,244,684,1601,-1041,-569,-326,88,218,-96
3997,4949,0,2023-03-01T18:55:22.109018,1911643,241,682,1600,-1038,-573,-324,88,218,-96
3998,4950,0,2023-03-01T18:55:22.115533,1911650,241,682,1600,-1038,-573,-324,88,218,-96
3999,4951,0,2023-03-01T18:55:22.120388,1911655,241,682,1600,-1038,-573,-324,88,218,-96
4000,4952,0,2023-03-01T18:55:22.125598,1911660,241,682,1600,-1038,-573,-324,88,218,-96
4001,4953,0,2023-03-01T18:55:22.130894,1911665,241,680,1604,-1034,-576,-323,82,218,-104
4002,4954,0,2023-03-01T18:55:22.138026,1911672,241,680,1604,-1034,-576,-323,82,218,-104
4003,4955,0,2023-03-01T18:55:22.143668,1911677,241,680,1604,-1034,-576,-323,82,218,-104
4004,4956,0,2023-03-01T18:55:22.148873,1911683,243,685,1606,-1040,-574,-321,82,218,-104
4005,4957,0,2023-03-01T18:55:22.154945,1911689,243,685,1606,-1040,-574,-321,82,218,-104
4006,4958,0,2023-03-01T18:55:22.160034,1911694,243,685,1606,-1040,-574,-321,82,218,-104
4007,4959,0,2023-03-01T18:55:22.165162,1911699,243,685,1606,-1040,-574,-321,82,218,-104
4008,4960,0,2023-03-01T18:55:22.170309,1911704,245,680,1608,-1039,-570,-321,82,218,-104
4009,4961,0,2023-03-01T18:55:22.176467,1911710,245,680,1608,-1039,-570,-321,82,218,-104
4010,4962,0,2023-03-01T18:55:22.183029,1911716,245,680,1608,-1039,-570,-321,82,218,-104
4011,4963,0,2023-03-01T18:55:22.188206,1911723,242,683,1602,-1035,-574,-325,82,218,-104
4012,4964,0,2023-03-01T18:55:22.194621,1911729,242,683,1602,-1035,-574,-325,82,218,-104
4013,4965,0,2023-03-01T18:55:22.201032,1911735,242,683,1602,-1035,-574,-325,82,218,-104
4014,4966,0,2023-03-01T18:55:22.206357,1911740,242,683,1602,-1035,-574,-325,82,218,-104
4015,4967,0,2023-03-01T18:55:22.211595,1911745,242,683,1602,-1044,-567,-317,82,218,-104
4016,4968,0,2023-03-01T18:55:22.218537,1911752,242,683,1602,-1044,-567,-317,82,218,-104
4017,4969,0,2023-03-01T18:55:22.223936,1911757,242,683,1602,-1044,-567,-317,82,218,-104
4018,4970,0,2023-03-01T18:55:22.229283,1911763,245,680,1602,-1041,-572,-319,82,218,-104
4019,4971,0,2023-03-01T18:55:22.235505,1911770,245,680,1602,-1041,-572,-319,82,218,-104
4020,4972,0,2023-03-01T18:55:22.240824,1911775,245,680,1602,-1041,-572,-319,82,218,-104
4021,4973,0,2023-03-01T18:55:22.246090,1911780,245,680,1602,-1041,-572,-319,82,218,-104
4022,4974,0,2023-03-01T18:55:22.250960,1911785,243,681,1603,-1031,-568,-321,82,218,-104
4023,4975,0,2023-03-01T18:55:22.256991,1911791,243,681,1603,-1031,-568,-321,82,218,-104
4024,4976,0,2023-03-01T18:55:22.261938,1911796,243,681,1603,-1031,-568,-321,82,218,-104
4025,4977,0,2023-03-01T18:55:22.267039,1911801,243,681,1603,-1031,-568,-321,82,218,-104
4026,4978,0,2023-03-01T18:55:22.272228,1911806,245,682,1609,-1032,-573,-319,90,224,-102
4027,4979,0,2023-03-01T18:55:22.279486,1911814,245,682,1609,-1032,-573,-319,90,224,-102
4028,4980,0,2023-03-01T18:55:22.284599,1911819,245,682,1609,-1032,-573,-319,90,224,-102
4029,4981,0,2023-03-01T18:55:22.289430,1911824,241,680,1607,-1039,-574,-321,90,224,-102
4030,4982,0,2023-03-01T18:55:22.295882,1911830,241,680,1607,-1039,-574,-321,90,224,-102
4031,4983,0,2023-03-01T18:55:22.300989,1911835,241,680,1607,-1039,-574,-321,90,224,-102
4032,4984,0,2023-03-01T18:55:22.305880,1911840,241,680,1607,-1039,-574,-321,90,224,-102
4033,4985,0,2023-03-01T18:55:22.310767,1911845,243,683,1601,-1038,-570,-323,90,224,-102
4034,4986,0,2023-03-01T18:55:22.316430,1911851,243,683,1601,-1038,-570,-323,90,224,-102
4035,4987,0,2023-03-01T18:55:22.321319,1911856,243,683,1601,-1038,-570,-323,90,224,-102
4036,4988,0,2023-03-01T18:55:22.326549,1911861,243,683,1601,-1038,-570,-323,90,224,-102
4037,4989,0,2023-03-01T18:55:22.331537,1911866,245,681,1603,-1037,-572,-324,90,224,-102
4038,4990,0,2023-03-01T18:55:22.338532,1911873,245,681,1603,-1037,-572,-324,90,224,-102
4039,4991,0,2023-03-01T18:55:22.343963,1911878,245,681,1603,-1037,-572,-324,90,224,-102
4040,4992,0,2023-03-01T18:55:22.348910,1911883,244,683,1601,-1036,-572,-324,90,224,-102
4041,4993,0,2023-03-01T18:55:22.354977,1911889,244,683,1601,-1036,-572,-324,90,224,-102
4042,4994,0,2023-03-01T18:55:22.360019,1911894,244,683,1601,-1036,-572,-324,90,224,-102
4043,4995,0,2023-03-01T18:55:22.365092,1911899,244,683,1601,-1036,-572,-324,90,224,-102
4044,4996,0,2023-03-01T18:55:22.370242,1911905,244,681,1599,-1037,-572,-319,90,224,-102
4045,4997,0,2023-03-01T18:55:22.376291,1911910,244,681,1599,-1037,-572,-319,90,224,-102
4046,4998,0,2023-03-01T18:55:22.382121,1911916,244,681,1599,-1037,-572,-319,90,224,-102
4047,4999,0,2023-03-01T18:55:22.387328,1911921,244,681,1599,-1037,-572,-319,90,224,-102
4048,5000,0,2023-03-01T18:55:22.392917,1911926,243,684,1603,-1033,-573,-323,89,217,-101
4049,5001,0,2023-03-01T18:55:22.399311,1911933,243,684,1603,-1033,-573,-323,89,217,-101
4050,5002,0,2023-03-01T18:55:22.404128,1911939,243,684,1603,-1033,-573,-323,89,217,-101
4051,5003,0,2023-03-01T18:55:22.409165,1911944,243,685,1609,-1030,-573,-322,89,217,-101
4052,5004,0,2023-03-01T18:55:22.415023,1911950,243,685,1609,-1030,-573,-322,89,217,-101
4053,5005,0,2023-03-01T18:55:22.420155,1911954,243,685,1609,-1030,-573,-322,89,217,-101
4054,5006,0,2023-03-01T18:55:22.426298,1911960,243,685,1609,-1030,-573,-322,89,217,-101
4055,5007,0,2023-03-01T18:55:22.431738,1911965,247,683,1606,-1041,-573,-324,89,217,-101
4056,5008,0,2023-03-01T18:55:22.438201,1911972,247,683,1606,-1041,-573,-324,89,217,-101
4057,5009,0,2023-03-01T18:55:22.443723,1911977,247,683,1606,-1041,-573,-324,89,217,-101
4058,5010,0,2023-03-01T18:55:22.449259,1911983,245,683,1605,-1036,-573,-323,89,217,-101
4059,5011,0,2023-03-01T18:55:22.455590,1911990,245,683,1605,-1036,-573,-323,89,217,-101
4060,5012,0,2023-03-01T18:55:22.461103,1911995,245,683,1605,-1036,-573,-323,89,217,-101
4061,5013,0,2023-03-01T18:55:22.466211,1912000,245,683,1605,-1036,-573,-323,89,217,-101
4062,5014,0,2023-03-01T18:55:22.471013,1912005,244,681,1602,-1035,-574,-324,89,217,-101
4063,5015,0,2023-03-01T18:55:22.477773,1912011,244,681,1602,-1035,-574,-324,89,217,-101
4064,5016,0,2023-03-01T18:55:22.483005,1912017,244,681,1602,-1035,-574,-324,89,217,-101
4065,5017,0,2023-03-01T18:55:22.487946,1912022,244,681,1602,-1035,-574,-324,89,217,-101
4066,5018,0,2023-03-01T18:55:22.493868,1912028,244,682,1601,-1041,-571,-326,89,217,-101
4067,5019,0,2023-03-01T18:55:22.500541,1912035,244,682,1601,-1041,-571,-326,89,217,-101
4068,5020,0,2023-03-01T18:55:22.505970,1912040,244,682,1601,-1041,-571,-326,89,217,-101
4069,5021,0,2023-03-01T18:55:22.511319,1912045,238,683,1608,-1035,-573,-329,95,215,-99
4070,5022,0,2023-03-01T18:55:22.517629,1912052,238,683,1608,-1035,-573,-329,95,215,-99
4071,5023,0,2023-03-01T18:55:22.523387,1912057,238,683,1608,-1035,-573,-329,95,215,-99
4072,5024,0,2023-03-01T18:55:22.529225,1912062,242,681,1606,-1031,-570,-321,95,215,-99
4073,5025,0,2023-03-01T18:55:22.535764,1912070,242,681,1606,-1031,-570,-321,95,215,-99
4074,5026,0,2023-03-01T18:55:22.542155,1912076,242,681,1606,-1031,-570,-321,95,215,-99
4075,5027,0,2023-03-01T18:55:22.547315,1912081,242,681,1606,-1031,-570,-321,95,215,-99
4076,5028,0,2023-03-01T18:55:22.552752,1912087,243,682,1609,-1035,-572,-321,95,215,-99
4077,5029,0,2023-03-01T18:55:22.560266,1912094,243,682,1609,-1035,-572,-321,95,215,-99
4078,5030,0,2023-03-01T18:55:22.565432,1912099,243,682,1609,-1035,-572,-321,95,215,-99
4079,5031,0,2023-03-01T18:55:22.570890,1912104,244,684,1605,-1030,-569,-324,95,215,-99
4080,5032,0,2023-03-01T18:55:22.577209,1912112,244,684,1605,-1030,-569,-324,95,215,-99
4081,5033,0,2023-03-01T18:55:22.582732,1912117,244,684,1605,-1030,-569,-324,95,215,-99
4082,5034,0,2023-03-01T18:55:22.588025,1912122,244,684,1605,-1030,-569,-324,95,215,-99
4083,5035,0,2023-03-01T18:55:22.593091,1912127,241,683,1604,-1039,-582,-315,95,215,-99
4084,5036,0,2023-03-01T18:55:22.599822,1912134,241,683,1604,-1039,-582,-315,95,215,-99
4085,5037,0,2023-03-01T18:55:22.604622,1912138,241,683,1604,-1039,-582,-315,95,215,-99
4086,5038,0,2023-03-01T18:55:22.610005,1912144,243,684,1604,-1041,-571,-326,95,215,-99
4087,5039,0,2023-03-01T18:55:22.616549,1912151,243,684,1604,-1041,-571,-326,95,215,-99
4088,5040,0,2023-03-01T18:55:22.622812,1912157,243,684,1604,-1041,-571,-326,95,215,-99
4089,5041,0,2023-03-01T18:55:22.627716,1912162,243,684,1604,-1041,-571,-326,95,215,-99
4090,5042,0,2023-03-01T18:55:22.632556,1912167,244,683,1608,-1038,-564,-325,95,215,-99
4091,5043,0,2023-03-01T18:55:22.638800,1912173,244,683,1608,-1038,-564,-325,95,215,-99
4092,5044,0,2023-03-01T18:55:22.643915,1912178,244,683,1608,-1038,-564,-325,95,215,-99
4093,5045,0,2023-03-01T18:55:22.649088,1912183,242,683,1606,-1034,-573,-319,93,219,-99
4094,5046,0,2023-03-01T18:55:22.655465,1912189,242,683,1606,-1034,-573,-319,93,219,-99
4095,5047,0,2023-03-01T18:55:22.661035,1912195,242,683,1606,-1034,-573,-319,93,219,-99
4096,5048,0,2023-03-01T18:55:22.666222,1912201,242,683,1606,-1034,-573,-319,93,219,-99
4097,5049,0,2023-03-01T18:55:22.671244,1912206,243,682,1608,-1033,-575,-323,93,219,-99
4098,5050,0,2023-03-01T18:55:22.678111,1912212,243,682,1608,-1033,-575,-323,93,219,-99
4099,5051,0,2023-03-01T18:55:22.682612,1912217,243,682,1608,-1033,-575,-323,93,219,-99
4100,5052,0,2023-03-01T18:55:22.687498,1912221,243,682,1608,-1033,-575,-323,93,219,-99
4101,5053,0,2023-03-01T18:55:22.692351,1912226,244,682,1606,-1035,-571,-321,93,219,-99
4102,5054,0,2023-03-01T18:55:22.698936,1912232,244,682,1606,-1035,-571,-321,93,219,-99
4103,5055,0,2023-03-01T18:55:22.703817,1912238,244,682,1606,-1035,-571,-321,93,219,-99
4104,5056,0,2023-03-01T18:55:22.709016,1912243,242,682,1605,-1043,-570,-323,93,219,-99
4105,5057,0,2023-03-01T18:55:22.715376,1912250,242,682,1605,-1043,-570,-323,93,219,-99
4106,5058,0,2023-03-01T18:55:22.721491,1912256,242,682,1605,-1043,-570,-323,93,219,-99
4107,5059,0,2023-03-01T18:55:22.726402,1912261,242,682,1605,-1043,-570,-323,93,219,-99
4108,5060,0,2023-03-01T18:55:22.731404,1912265,244,681,1604,-1038,-568,-324,93,219,-99
4109,5061,0,2023-03-01T18:55:22.737639,1912272,244,681,1604,-1038,-568,-324,93,219,-99
4110,5062,0,2023-03-01T18:55:22.743280,1912278,244,681,1604,-1038,-568,-324,93,219,-99
4111,5063,0,2023-03-01T18:55:22.748055,1912283,244,681,1604,-1038,-568,-324,93,219,-99
4112,5064,0,2023-03-01T18:55:22.753413,1912288,247,685,1602,-1038,-566,-320,93,219,-99
4113,5065,0,2023-03-01T18:55:22.761163,1912295,247,685,1602,-1038,-566,-320,93,219,-99
4114,5066,0,2023-03-01T18:55:22.766291,1912301,247,685,1602,-1038,-566,-320,93,219,-99
4115,5067,0,2023-03-01T18:55:22.771534,1912305,242,683,1607,-1036,-568,-328,87,211,-97
4116,5068,0,2023-03-01T18:55:22.778136,1912312,242,683,1607,-1036,-568,-328,87,211,-97
4117,5069,0,2023-03-01T18:55:22.782945,1912317,242,683,1607,-1036,-568,-328,87,211,-97
4118,5070,0,2023-03-01T18:55:22.787706,1912322,242,683,1607,-1036,-568,-328,87,211,-97
4119,5071,0,2023-03-01T18:55:22.792353,1912327,243,684,1607,-1052,-577,-326,87,211,-97
4120,5072,0,2023-03-01T18:55:22.798966,1912334,243,684,1607,-1052,-577,-326,87,211,-97
4121,5073,0,2023-03-01T18:55:22.803354,1912338,243,684,1607,-1052,-577,-326,87,211,-97
4122,5074,0,2023-03-01T18:55:22.808086,1912342,243,684,1607,-1052,-577,-326,87,211,-97
4123,5075,0,2023-03-01T18:55:22.814382,1912348,245,686,1605,-1031,-574,-326,87,211,-97
4124,5076,0,2023-03-01T18:55:22.820689,1912355,245,686,1605,-1031,-574,-326,87,211,-97
4125,5077,0,2023-03-01T18:55:22.825434,1912359,245,686,1605,-1031,-574,-326,87,211,-97
4126,5078,0,2023-03-01T18:55:22.830665,1912365,241,682,1603,-1032,-578,-320,87,211,-97
4127,5079,0,2023-03-01T18:55:22.836728,1912371,241,682,1603,-1032,-578,-320,87,211,-97
4128,5080,0,2023-03-01T18:55:22.841896,1912376,241,682,1603,-1032,-578,-320,87,211,-97
4129,5081,0,2023-03-01T18:55:22.846806,1912381,241,682,1603,-1032,-578,-320,87,211,-97
4130,5082,0,2023-03-01T18:55:22.851727,1912386,244,679,1608,-1037,-578,-326,87,211,-97
4131,5083,0,2023-03-01T18:55:22.857918,1912392,244,679,1608,-1037,-578,-326,87,211,-97
4132,5084,0,2023-03-01T18:55:22.863973,1912397,244,679,1608,-1037,-578,-326,87,211,-97
4133,5085,0,2023-03-01T18:55:22.871173,1912404,244,682,1601,-1042,-572,-322,87,211,-97
4134,5086,0,2023-03-01T18:55:22.877511,1912412,244,682,1601,-1042,-572,-322,87,211,-97
4135,5087,0,2023-03-01T18:55:22.883186,1912417,244,682,1601,-1042,-572,-322,87,211,-97
4136,5088,0,2023-03-01T18:55:22.888570,1912423,244,682,1601,-1042,-572,-322,87,211,-97
4137,5089,0,2023-03-01T18:55:22.895578,1912429,239,681,1605,-1032,-572,-327,87,211,-97
4138,5090,0,2023-03-01T18:55:22.901970,1912436,239,681,1605,-1032,-572,-327,87,211,-97
4139,5091,0,2023-03-01T18:55:22.907007,1912441,239,681,1605,-1032,-572,-327,87,211,-97
4140,5092,0,2023-03-01T18:55:22.912033,1912446,240,684,1610,-1029,-567,-328,95,227,-105
4141,5093,0,2023-03-01T18:55:22.918007,1912452,240,684,1610,-1029,-567,-328,95,227,-105
4142,5094,0,2023-03-01T18:55:22.923748,1912458,240,684,1610,-1029,-567,-328,95,227,-105
4143,5095,0,2023-03-01T18:55:22.928885,1912463,247,682,1607,-1030,-571,-321,95,227,-105
4144,5096,0,2023-03-01T18:55:22.936078,1912470,247,682,1607,-1030,-571,-321,95,227,-105
4145,5097,0,2023-03-01T18:55:22.941819,1912476,247,682,1607,-1030,-571,-321,95,227,-105
4146,5098,0,2023-03-01T18:55:22.947949,1912482,247,682,1607,-1030,-571,-321,95,227,-105
4147,5099,0,2023-03-01T18:55:22.952997,1912487,242,681,1606,-1029,-581,-326,95,227,-105
4148,5100,0,2023-03-01T18:55:22.960181,1912495,242,681,1606,-1029,-581,-326,95,227,-105
4149,5101,0,2023-03-01T18:55:22.965240,1912500,242,681,1606,-1029,-581,-326,95,227,-105
4150,5102,0,2023-03-01T18:55:22.970075,1912504,245,682,1606,-1029,-577,-331,95,227,-105
4151,5103,0,2023-03-01T18:55:22.976438,1912510,245,682,1606,-1029,-577,-331,95,227,-105
4152,5104,0,2023-03-01T18:55:22.982980,1912517,245,682,1606,-1029,-577,-331,95,227,-105
4153,5105,0,2023-03-01T18:55:22.988182,1912522,245,682,1606,-1029,-577,-331,95,227,-105
4154,5106,0,2023-03-01T18:55:22.994038,1912528,241,681,1604,-1026,-578,-325,95,227,-105
4155,5107,0,2023-03-01T18:55:23.000671,1912535,241,681,1604,-1026,-578,-325,95,227,-105
4156,5108,0,2023-03-01T18:55:23.005615,1912540,241,681,1604,-1026,-578,-325,95,227,-105
4157,5109,0,2023-03-01T18:55:23.010958,1912545,243,683,1601,-1036,-571,-326,95,227,-105
4158,5110,0,2023-03-01T18:55:23.018859,1912552,243,683,1601,-1036,-571,-326,95,227,-105
4159,5111,0,2023-03-01T18:55:23.024943,1912559,243,683,1601,-1036,-571,-326,95,227,-105
4160,5112,0,2023-03-01T18:55:23.030072,1912564,244,682,1608,-1031,-573,-322,90,222,-108
4161,5113,0,2023-03-01T18:55:23.037142,1912570,244,682,1608,-1031,-573,-322,90,222,-108
4162,5114,0,2023-03-01T18:55:23.043296,1912578,244,682,1608,-1031,-573,-322,90,222,-108
4163,5115,0,2023-03-01T18:55:23.048479,1912583,244,682,1608,-1031,-573,-322,90,222,-108
4164,5116,0,2023-03-01T18:55:23.055011,1912589,245,684,1607,-1030,-575,-317,90,222,-108
4165,5117,0,2023-03-01T18:55:23.061598,1912595,245,684,1607,-1030,-575,-317,90,222,-108
4166,5118,0,2023-03-01T18:55:23.067151,1912601,245,684,1607,-1030,-575,-317,90,222,-108
4167,5119,0,2023-03-01T18:55:23.072993,1912607,245,683,1602,-1043,-576,-317,90,222,-108
4168,5120,0,2023-03-01T18:55:23.079595,1912614,245,683,1602,-1043,-576,-317,90,222,-108
4169,5121,0,2023-03-01T18:55:23.085426,1912619,245,683,1602,-1043,-576,-317,90,222,-108
4170,5122,0,2023-03-01T18:55:23.091937,1912626,239,680,1602,-1044,-575,-327,90,222,-108
4171,5123,0,2023-03-01T18:55:23.098760,1912633,239,680,1602,-1044,-575,-327,90,222,-108
4172,5124,0,2023-03-01T18:55:23.103815,1912638,239,680,1602,-1044,-575,-327,90,222,-108
4173,5125,0,2023-03-01T18:55:23.109282,1912643,241,681,1602,-1036,-580,-324,90,222,-108
4174,5126,0,2023-03-01T18:55:23.116040,1912650,241,681,1602,-1036,-580,-324,90,222,-108
4175,5127,0,2023-03-01T18:55:23.121057,1912655,241,681,1602,-1036,-580,-324,90,222,-108
4176,5128,0,2023-03-01T18:55:23.126229,1912660,241,681,1602,-1036,-580,-324,90,222,-108
4177,5129,0,2023-03-01T18:55:23.131237,1912666,241,682,1604,-1042,-573,-324,90,222,-108
4178,5130,0,2023-03-01T18:55:23.136572,1912671,241,682,1604,-1042,-573,-324,90,222,-108
4179,5131,0,2023-03-01T18:55:23.141822,1912676,241,682,1604,-1042,-573,-324,90,222,-108
4180,5132,0,2023-03-01T18:55:23.147375,1912681,241,682,1604,-1042,-573,-324,90,222,-108
4181,5133,0,2023-03-01T18:55:23.152080,1912686,243,681,1607,-1034,-572,-323,90,222,-108
4182,5134,0,2023-03-01T18:55:23.158092,1912692,243,681,1607,-1034,-572,-323,90,222,-108
4183,5135,0,2023-03-01T18:55:23.163630,1912697,243,681,1607,-1034,-572,-323,90,222,-108
4184,5136,0,2023-03-01T18:55:23.168549,1912702,243,681,1607,-1034,-572,-323,90,222,-108
4185,5137,0,2023-03-01T18:55:23.174166,1912709,241,681,1609,-1024,-570,-324,94,214,-100
4186,5138,0,2023-03-01T18:55:23.181238,1912715,241,681,1609,-1024,-570,-324,94,214,-100
4187,5139,0,2023-03-01T18:55:23.186726,1912721,241,681,1609,-1024,-570,-324,94,214,-100
4188,5140,0,2023-03-01T18:55:23.191508,1912726,244,685,1604,-1025,-565,-324,94,214,-100
4189,5141,0,2023-03-01T18:55:23.197755,1912731,244,685,1604,-1025,-565,-324,94,214,-100
4190,5142,0,2023-03-01T18:55:23.202788,1912737,244,685,1604,-1025,-565,-324,94,214,-100
4191,5143,0,2023-03-01T18:55:23.208044,1912742,244,685,1604,-1025,-565,-324,94,214,-100
4192,5144,0,2023-03-01T18:55:23.212797,1912748,246,680,1611,-1030,-573,-321,94,214,-100
4193,5145,0,2023-03-01T18:55:23.219832,1912754,246,680,1611,-1030,-573,-321,94,214,-100
4194,5146,0,2023-03-01T18:55:23.225362,1912759,246,680,1611,-1030,-573,-321,94,214,-100
4195,5147,0,2023-03-01T18:55:23.230451,1912765,243,684,1604,-1047,-576,-327,94,214,-100
4196,5148,0,2023-03-01T18:55:23.236629,1912771,243,684,1604,-1047,-576,-327,94,214,-100
4197,5149,0,2023-03-01T18:55:23.242314,1912776,243,684,1604,-1047,-576,-327,94,214,-100
4198,5150,0,2023-03-01T18:55:23.247427,1912781,243,684,1604,-1047,-576,-327,94,214,-100
4199,5151,0,2023-03-01T18:55:23.252170,1912786,243,682,1610,-1034,-574,-321,94,214,-100
4200,5152,0,2023-03-01T18:55:23.258561,1912793,243,682,1610,-1034,-574,-321,94,214,-100
4201,5153,0,2023-03-01T18:55:23.263454,1912798,243,682,1610,-1034,-574,-321,94,214,-100
4202,5154,0,2023-03-01T18:55:23.268807,1912803,243,682,1610,-1034,-574,-321,94,214,-100
4203,5155,0,2023-03-01T18:55:23.273744,1912808,243,684,1602,-1035,-571,-315,94,214,-100
4204,5156,0,2023-03-01T18:55:23.278683,1912813,243,684,1602,-1035,-571,-315,94,214,-100
4205,5157,0,2023-03-01T18:55:23.283853,1912818,243,684,1602,-1035,-571,-315,94,214,-100
4206,5158,0,2023-03-01T18:55:23.288581,1912822,243,684,1602,-1035,-571,-315,94,214,-100
4207,5159,0,2023-03-01T18:55:23.294815,1912828,240,683,1607,-1037,-571,-323,97,217,-107
4208,5160,0,2023-03-01T18:55:23.301174,1912836,240,683,1607,-1037,-571,-323,97,217,-107
4209,5161,0,2023-03-01T18:55:23.306553,1912841,240,683,1607,-1037,-571,-323,97,217,-107
4210,5162,0,2023-03-01T18:55:23.311694,1912846,241,682,1605,-1037,-574,-323,97,217,-107
4211,5163,0,2023-03-01T18:55:23.317934,1912852,241,682,1605,-1037,-574,-323,97,217,-107
4212,5164,0,2023-03-01T18:55:23.323987,1912858,241,682,1605,-1037,-574,-323,97,217,-107
4213,5165,0,2023-03-01T18:55:23.328956,1912863,242,681,1602,-1046,-571,-328,97,217,-107
4214,5166,0,2023-03-01T18:55:23.335883,1912869,242,681,1602,-1046,-571,-328,97,217,-107
4215,5167,0,2023-03-01T18:55:23.342264,1912877,242,681,1602,-1046,-571,-328,97,217,-107
4216,5168,0,2023-03-01T18:55:23.347300,1912882,242,681,1602,-1046,-571,-328,97,217,-107
4217,5169,0,2023-03-01T18:55:23.352840,1912887,243,683,1604,-1041,-570,-322,97,217,-107
4218,5170,0,2023-03-01T18:55:23.359562,1912894,243,683,1604,-1041,-570,-322,97,217,-107
4219,5171,0,2023-03-01T18:55:23.364682,1912899,243,683,1604,-1041,-570,-322,97,217,-107
4220,5172,0,2023-03-01T18:55:23.370537,1912904,243,684,1605,-1030,-569,-321,97,217,-107
4221,5173,0,2023-03-01T18:55:23.377255,1912911,243,684,1605,-1030,-569,-321,97,217,-107
4222,5174,0,2023-03-01T18:55:23.382776,1912916,243,684,1605,-1030,-569,-321,97,217,-107
4223,5175,0,2023-03-01T18:55:23.388208,1912922,243,684,1605,-1030,-569,-321,97,217,-107
4224,5176,0,2023-03-01T18:55:23.393817,1912928,241,682,1603,-1041,-570,-321,97,217,-107
4225,5177,0,2023-03-01T18:55:23.401412,1912936,241,682,1603,-1041,-570,-321,97,217,-107
4226,5178,0,2023-03-01T18:55:23.406388,1912941,241,682,1603,-1041,-570,-321,97,217,-107
4227,5179,0,2023-03-01T18:55:23.411076,1912945,245,683,1606,-1028,-572,-322,90,214,-100
4228,5180,0,2023-03-01T18:55:23.417516,1912951,245,683,1606,-1028,-572,-322,90,214,-100
4229,5181,0,2023-03-01T18:55:23.423852,1912957,245,683,1606,-1028,-572,-322,90,214,-100
4230,5182,0,2023-03-01T18:55:23.428943,1912963,245,683,1606,-1028,-572,-322,90,214,-100
4231,5183,0,2023-03-01T18:55:23.434888,1912969,241,682,1606,-1036,-582,-320,90,214,-100
4232,5184,0,2023-03-01T18:55:23.440895,1912975,241,682,1606,-1036,-582,-320,90,214,-100
4233,5185,0,2023-03-01T18:55:23.445985,1912980,241,682,1606,-1036,-582,-320,90,214,-100
4234,5186,0,2023-03-01T18:55:23.451230,1912985,241,687,1606,-1036,-581,-322,90,214,-100
4235,5187,0,2023-03-01T18:55:23.457637,1912991,241,687,1606,-1036,-581,-322,90,214,-100
4236,5188,0,2023-03-01T18:55:23.462474,1912996,241,687,1606,-1036,-581,-322,90,214,-100
4237,5189,0,2023-03-01T18:55:23.467186,1913001,241,687,1606,-1036,-581,-322,90,214,-100
4238,5190,0,2023-03-01T18:55:23.471908,1913007,248,685,1600,-1038,-574,-313,90,214,-100
4239,5191,0,2023-03-01T18:55:23.477836,1913012,248,685,1600,-1038,-574,-313,90,214,-100
4240,5192,0,2023-03-01T18:55:23.483704,1913018,248,685,1600,-1038,-574,-313,90,214,-100
4241,5193,0,2023-03-01T18:55:23.488634,1913023,248,685,1600,-1038,-574,-313,90,214,-100
4242,5194,0,2023-03-01T18:55:23.494280,1913028,243,680,1605,-1031,-570,-316,90,214,-100
4243,5195,0,2023-03-01T18:55:23.500419,1913034,243,680,1605,-1031,-570,-316,90,214,-100
4244,5196,0,2023-03-01T18:55:23.505379,1913039,243,680,1605,-1031,-570,-316,90,214,-100
4245,5197,0,2023-03-01T18:55:23.510735,1913044,242,680,1605,-1041,-574,-324,90,214,-100
4246,5198,0,2023-03-01T18:55:23.516973,1913051,242,680,1605,-1041,-574,-324,90,214,-100
4247,5199,0,2023-03-01T18:55:23.523219,1913057,242,680,1605,-1041,-574,-324,90,214,-100
4248,5200,0,2023-03-01T18:55:23.528724,1913063,242,680,1605,-1041,-574,-324,90,214,-100
4249,5201,0,2023-03-01T18:55:23.534568,1913068,242,682,1604,-1037,-565,-317,90,214,-100
4250,5202,0,2023-03-01T18:55:23.541826,1913075,242,682,1604,-1037,-565,-317,90,214,-100
4251,5203,0,2023-03-01T18:55:23.546799,1913081,242,682,1604,-1037,-565,-317,90,214,-100
4252,5204,0,2023-03-01T18:55:23.551904,1913085,243,682,1608,-1036,-579,-321,92,220,-96
4253,5205,0,2023-03-01T18:55:23.557826,1913093,243,682,1608,-1036,-579,-321,92,220,-96
4254,5206,0,2023-03-01T18:55:23.563628,1913098,243,682,1608,-1036,-579,-321,92,220,-96
4255,5207,0,2023-03-01T18:55:23.568594,1913103,243,682,1608,-1036,-579,-321,92,220,-96
4256,5208,0,2023-03-01T18:55:23.574359,1913108,243,681,1603,-1033,-567,-328,92,220,-96
4257,5209,0,2023-03-01T18:55:23.580146,1913114,243,681,1603,-1033,-567,-328,92,220,-96
4258,5210,0,2023-03-01T18:55:23.585350,1913119,243,681,1603,-1033,-567,-328,92,220,-96
4259,5211,0,2023-03-01T18:55:23.590714,1913124,240,682,1605,-1027,-562,-318,92,220,-96
4260,5212,0,2023-03-01T18:55:23.597482,1913132,240,682,1605,-1027,-562,-318,92,220,-96
4261,5213,0,2023-03-01T18:55:23.605211,1913140,240,682,1605,-1027,-562,-318,92,220,-96
4262,5214,0,2023-03-01T18:55:23.610800,1913145,244,681,1601,-1036,-567,-317,92,220,-96
4263,5215,0,2023-03-01T18:55:23.617312,1913151,244,681,1601,-1036,-567,-317,92,220,-96
4264,5216,0,2023-03-01T18:55:23.623800,1913158,244,681,1601,-1036,-567,-317,92,220,-96
4265,5217,0,2023-03-01T18:55:23.629297,1913163,244,681,1601,-1036,-567,-317,92,220,-96
4266,5218,0,2023-03-01T18:55:23.635174,1913169,244,684,1606,-1027,-568,-325,92,220,-96
4267,5219,0,2023-03-01T18:55:23.641639,1913176,244,684,1606,-1027,-568,-325,92,220,-96
4268,5220,0,2023-03-01T18:55:23.646780,1913181,244,684,1606,-1027,-568,-325,92,220,-96
4269,5221,0,2023-03-01T18:55:23.652137,1913186,243,681,1606,-1032,-565,-328,92,220,-96
4270,5222,0,2023-03-01T18:55:23.658267,1913193,243,681,1606,-1032,-565,-328,92,220,-96
4271,5223,0,2023-03-01T18:55:23.663287,1913197,243,681,1606,-1032,-565,-328,92,220,-96
4272,5224,0,2023-03-01T18:55:23.668859,1913202,243,681,1606,-1032,-565,-328,92,220,-96
4273,5225,0,2023-03-01T18:55:23.674761,1913208,242,685,1602,-1026,-577,-332,96,214,-104
4274,5226,0,2023-03-01T18:55:23.681146,1913216,242,685,1602,-1026,-577,-332,96,214,-104
4275,5227,0,2023-03-01T18:55:23.686080,1913221,242,685,1602,-1026,-577,-332,96,214,-104
4276,5228,0,2023-03-01T18:55:23.690956,1913226,240,686,1607,-1040,-576,-321,96,214,-104
4277,5229,0,2023-03-01T18:55:23.697934,1913232,240,686,1607,-1040,-576,-321,96,214,-104
4278,5230,0,2023-03-01T18:55:23.703068,1913237,240,686,1607,-1040,-576,-321,96,214,-104
4279,5231,0,2023-03-01T18:55:23.708568,1913242,240,686,1607,-1040,-576,-321,96,214,-104
4280,5232,0,2023-03-01T18:55:23.713369,1913247,243,686,1605,-1035,-573,-319,96,214,-104
4281,5233,0,2023-03-01T18:55:23.718207,1913252,243,686,1605,-1035,-573,-319,96,214,-104
4282,5234,0,2023-03-01T18:55:23.723432,1913257,243,686,1605,-1035,-573,-319,96,214,-104
4283,5235,0,2023-03-01T18:55:23.729113,1913264,243,686,1605,-1035,-573,-319,96,214,-104
4284,5236,0,2023-03-01T18:55:23.734725,1913269,243,684,1602,-1031,-576,-323,96,214,-104
4285,5237,0,2023-03-01T18:55:23.741160,1913275,243,684,1602,-1031,-576,-323,96,214,-104
4286,5238,0,2023-03-01T18:55:23.746481,1913281,243,684,1602,-1031,-576,-323,96,214,-104
4287,5239,0,2023-03-01T18:55:23.751701,1913286,244,682,1608,-1031,-574,-327,96,214,-104
4288,5240,0,2023-03-01T18:55:23.758065,1913292,244,682,1608,-1031,-574,-327,96,214,-104
4289,5241,0,2023-03-01T18:55:23.763066,1913297,244,682,1608,-1031,-574,-327,96,214,-104
4290,5242,0,2023-03-01T18:55:23.768238,1913303,244,682,1608,-1031,-574,-327,96,214,-104
4291,5243,0,2023-03-01T18:55:23.773550,1913308,241,683,1601,-1034,-572,-328,96,214,-104
4292,5244,0,2023-03-01T18:55:23.779909,1913314,241,683,1601,-1034,-572,-328,96,214,-104
4293,5245,0,2023-03-01T18:55:23.784996,1913319,241,683,1601,-1034,-572,-328,96,214,-104
4294,5246,0,2023-03-01T18:55:23.790126,1913324,243,682,1607,-1039,-572,-318,96,214,-104
4295,5247,0,2023-03-01T18:55:23.796290,1913330,243,682,1607,-1039,-572,-318,96,214,-104
4296,5248,0,2023-03-01T18:55:23.801923,1913336,243,682,1607,-1039,-572,-318,96,214,-104
4297,5249,0,2023-03-01T18:55:23.807262,1913341,243,682,1607,-1039,-572,-318,96,214,-104
4298,5250,0,2023-03-01T18:55:23.812495,1913347,242,683,1605,-1036,-575,-327,93,217,-107
4299,5251,0,2023-03-01T18:55:23.819373,1913353,242,683,1605,-1036,-575,-327,93,217,-107
4300,5252,0,2023-03-01T18:55:23.824925,1913359,242,683,1605,-1036,-575,-327,93,217,-107
4301,5253,0,2023-03-01T18:55:23.829519,1913364,242,683,1605,-1036,-575,-327,93,217,-107
4302,5254,0,2023-03-01T18:55:23.834475,1913369,241,684,1608,-1029,-570,-326,93,217,-107
4303,5255,0,2023-03-01T18:55:23.841406,1913375,241,684,1608,-1029,-570,-326,93,217,-107
4304,5256,0,2023-03-01T18:55:23.846916,1913381,241,684,1608,-1029,-570,-326,93,217,-107
4305,5257,0,2023-03-01T18:55:23.852043,1913387,243,683,1603,-1029,-569,-321,93,217,-107
4306,5258,0,2023-03-01T18:55:23.858267,1913393,243,683,1603,-1029,-569,-321,93,217,-107
4307,5259,0,2023-03-01T18:55:23.863626,1913398,243,683,1603,-1029,-569,-321,93,217,-107
4308,5260,0,2023-03-01T18:55:23.868716,1913403,243,683,1603,-1029,-569,-321,93,217,-107
4309,5261,0,2023-03-01T18:55:23.874908,1913409,240,684,1601,-1029,-572,-319,93,217,-107
4310,5262,0,2023-03-01T18:55:23.881385,1913415,240,684,1601,-1029,-572,-319,93,217,-107
4311,5263,0,2023-03-01T18:55:23.886218,1913420,240,684,1601,-1029,-572,-319,93,217,-107
4312,5264,0,2023-03-01T18:55:23.890953,1913425,242,684,1606,-1035,-575,-323,93,217,-107
4313,5265,0,2023-03-01T18:55:23.897993,1913432,242,684,1606,-1035,-575,-323,93,217,-107
4314,5266,0,2023-03-01T18:55:23.902971,1913437,242,684,1606,-1035,-575,-323,93,217,-107
4315,5267,0,2023-03-01T18:55:23.907614,1913442,242,684,1606,-1035,-575,-323,93,217,-107
4316,5268,0,2023-03-01T18:55:23.912592,1913447,245,684,1607,-1033,-582,-325,93,217,-107
4317,5269,0,2023-03-01T18:55:23.918545,1913453,245,684,1607,-1033,-582,-325,93,217,-107
4318,5270,0,2023-03-01T18:55:23.923176,1913457,245,684,1607,-1033,-582,-325,93,217,-107
4319,5271,0,2023-03-01T18:55:23.928159,1913462,245,684,1607,-1033,-582,-325,93,217,-107
4320,5272,0,2023-03-01T18:55:23.933310,1913467,243,684,1606,-1040,-576,-323,89,207,-99
4321,5273,0,2023-03-01T18:55:23.939306,1913474,243,684,1606,-1040,-576,-323,89,207,-99
4322,5274,0,2023-03-01T18:55:23.944290,1913479,243,684,1606,-1040,-576,-323,89,207,-99
4323,5275,0,2023-03-01T18:55:23.949472,1913484,243,684,1606,-1040,-576,-323,89,207,-99
4324,5276,0,2023-03-01T18:55:23.955628,1913490,243,684,1602,-1044,-574,-323,89,207,-99
4325,5277,0,2023-03-01T18:55:23.961653,1913496,243,684,1602,-1044,-574,-323,89,207,-99
4326,5278,0,2023-03-01T18:55:23.966688,1913501,243,684,1602,-1044,-574,-323,89,207,-99
4327,5279,0,2023-03-01T18:55:23.971504,1913506,240,684,1606,-1033,-570,-327,89,207,-99
4328,5280,0,2023-03-01T18:55:23.976387,1913510,240,684,1606,-1033,-570,-327,89,207,-99
4329,5281,0,2023-03-01T18:55:23.981837,1913516,240,684,1606,-1033,-570,-327,89,207,-99
4330,5282,0,2023-03-01T18:55:23.987245,1913521,240,684,1606,-1033,-570,-327,89,207,-99
4331,5283,0,2023-03-01T18:55:23.992253,1913527,244,682,1612,-1036,-575,-328,89,207,-99
4332,5284,0,2023-03-01T18:55:23.999081,1913533,244,682,1612,-1036,-575,-328,89,207,-99
4333,5285,0,2023-03-01T18:55:24.003988,1913538,244,682,1612,-1036,-575,-328,89,207,-99
4334,5286,0,2023-03-01T18:55:24.009645,1913544,244,682,1612,-1036,-575,-328,89,207,-99
4335,5287,0,2023-03-01T18:55:24.015603,1913549,243,682,1603,-1032,-571,-317,89,207,-99
4336,5288,0,2023-03-01T18:55:24.021913,1913555,243,682,1603,-1032,-571,-317,89,207,-99
4337,5289,0,2023-03-01T18:55:24.026504,1913561,243,682,1603,-1032,-571,-317,89,207,-99
4338,5290,0,2023-03-01T18:55:24.031772,1913566,243,685,1600,-1033,-576,-322,89,207,-99
4339,5291,0,2023-03-01T18:55:24.037759,1913572,243,685,1600,-1033,-576,-322,89,207,-99
4340,5292,0,2023-03-01T18:55:24.043880,1913578,243,685,1600,-1033,-576,-322,89,207,-99
4341,5293,0,2023-03-01T18:55:24.049128,1913583,243,685,1600,-1033,-576,-322,89,207,-99
4342,5294,0,2023-03-01T18:55:24.054774,1913589,243,685,1600,-1033,-576,-322,89,207,-99
4343,5295,0,2023-03-01T18:55:24.059914,1913594,243,685,1600,-1033,-576,-322,89,207,-99
4344,5296,0,2023-03-01T18:55:24.064530,1913600,243,685,1600,-1033,-576,-322,89,207,-99
4345,5297,0,2023-03-01T18:55:24.070431,1913604,243,685,1600,-1033,-576,-322,89,207,-99
4346,5298,0,2023-03-01T18:55:24.076960,1913611,245,686,1605,-1038,-578,-318,94,212,-96
4347,5299,0,2023-03-01T18:55:24.082822,1913617,245,686,1605,-1038,-578,-318,94,212,-96
4348,5300,0,2023-03-01T18:55:24.087804,1913622,245,686,1605,-1038,-578,-318,94,212,-96
4349,5301,0,2023-03-01T18:55:24.092885,1913627,242,681,1604,-1046,-577,-324,94,212,-96
4350,5302,0,2023-03-01T18:55:24.099427,1913633,242,681,1604,-1046,-577,-324,94,212,-96
4351,5303,0,2023-03-01T18:55:24.104469,1913638,242,681,1604,-1046,-577,-324,94,212,-96
4352,5304,0,2023-03-01T18:55:24.109374,1913644,242,681,1604,-1046,-577,-324,94,212,-96
4353,5305,0,2023-03-01T18:55:24.115005,1913649,245,683,1607,-1040,-570,-319,94,212,-96
4354,5306,0,2023-03-01T18:55:24.121713,1913656,245,683,1607,-1040,-570,-319,94,212,-96
4355,5307,0,2023-03-01T18:55:24.126920,1913661,245,683,1607,-1040,-570,-319,94,212,-96
4356,5308,0,2023-03-01T18:55:24.131883,1913666,243,682,1602,-1035,-572,-323,94,212,-96
4357,5309,0,2023-03-01T18:55:24.137755,1913672,243,682,1602,-1035,-572,-323,94,212,-96
4358,5310,0,2023-03-01T18:55:24.142863,1913676,243,682,1602,-1035,-572,-323,94,212,-96
4359,5311,0,2023-03-01T18:55:24.147993,1913682,243,682,1602,-1035,-572,-323,94,212,-96
4360,5312,0,2023-03-01T18:55:24.153307,1913688,244,683,1602,-1042,-575,-330,94,212,-96
4361,5313,0,2023-03-01T18:55:24.160020,1913694,244,683,1602,-1042,-575,-330,94,212,-96
4362,5314,0,2023-03-01T18:55:24.165051,1913699,244,683,1602,-1042,-575,-330,94,212,-96
4363,5315,0,2023-03-01T18:55:24.170359,1913704,241,680,1607,-1028,-570,-322,94,212,-96
4364,5316,0,2023-03-01T18:55:24.177092,1913711,241,680,1607,-1028,-570,-322,94,212,-96
4365,5317,0,2023-03-01T18:55:24.182289,1913716,241,680,1607,-1028,-570,-322,94,212,-96
4366,5318,0,2023-03-01T18:55:24.187369,1913721,241,680,1607,-1028,-570,-322,94,212,-96
4367,5319,0,2023-03-01T18:55:24.192158,1913726,241,682,1605,-1028,-565,-319,93,223,-111
4368,5320,0,2023-03-01T18:55:24.197897,1913733,241,682,1605,-1028,-565,-319,93,223,-111
4369,5321,0,2023-03-01T18:55:24.202771,1913737,241,682,1605,-1028,-565,-319,93,223,-111
4370,5322,0,2023-03-01T18:55:24.207848,1913742,241,682,1605,-1028,-565,-319,93,223,-111
4371,5323,0,2023-03-01T18:55:24.213196,1913747,245,682,1606,-1033,-574,-323,93,223,-111
4372,5324,0,2023-03-01T18:55:24.219279,1913753,245,682,1606,-1033,-574,-323,93,223,-111
4373,5325,0,2023-03-01T18:55:24.225647,1913759,245,682,1606,-1033,-574,-323,93,223,-111
4374,5326,0,2023-03-01T18:55:24.231098,1913765,243,684,1606,-1034,-566,-321,93,223,-111
4375,5327,0,2023-03-01T18:55:24.237574,1913772,243,684,1606,-1034,-566,-321,93,223,-111
4376,5328,0,2023-03-01T18:55:24.242760,1913777,243,684,1606,-1034,-566,-321,93,223,-111
4377,5329,0,2023-03-01T18:55:24.247905,1913782,243,684,1606,-1034,-566,-321,93,223,-111
4378,5330,0,2023-03-01T18:55:24.252515,1913787,242,684,1604,-1034,-569,-323,93,223,-111
4379,5331,0,2023-03-01T18:55:24.258597,1913793,242,684,1604,-1034,-569,-323,93,223,-111
4380,5332,0,2023-03-01T18:55:24.264523,1913798,242,684,1604,-1034,-569,-323,93,223,-111
4381,5333,0,2023-03-01T18:55:24.270052,1913803,242,684,1604,-1034,-569,-323,93,223,-111
4382,5334,0,2023-03-01T18:55:24.275887,1913809,242,682,1605,-1034,-572,-325,93,223,-111
4383,5335,0,2023-03-01T18:55:24.281936,1913817,242,682,1605,-1034,-572,-325,93,223,-111
4384,5336,0,2023-03-01T18:55:24.286989,1913821,242,682,1605,-1034,-572,-325,93,223,-111
4385,5337,0,2023-03-01T18:55:24.293289,1913827,241,684,1602,-1036,-565,-322,93,223,-111
4386,5338,0,2023-03-01T18:55:24.298453,1913832,241,684,1602,-1036,-565,-322,93,223,-111
4387,5339,0,2023-03-01T18:55:24.304253,1913838,241,684,1602,-1036,-565,-322,93,223,-111
4388,5340,0,2023-03-01T18:55:24.309352,1913843,241,684,1602,-1036,-565,-322,93,223,-111
4389,5341,0,2023-03-01T18:55:24.314695,1913849,241,684,1602,-1036,-565,-322,93,225,-105
4390,5342,0,2023-03-01T18:55:24.320363,1913854,241,684,1602,-1036,-565,-322,93,225,-105
4391,5343,0,2023-03-01T18:55:24.325183,1913860,241,684,1602,-1036,-565,-322,93,225,-105
4392,5344,0,2023-03-01T18:55:24.330039,1913865,244,685,1607,-1037,-567,-317,93,225,-105
4393,5345,0,2023-03-01T18:55:24.335847,1913870,244,685,1607,-1037,-567,-317,93,225,-105
4394,5346,0,2023-03-01T18:55:24.341701,1913876,244,685,1607,-1037,-567,-317,93,225,-105
4395,5347,0,2023-03-01T18:55:24.346466,1913881,244,685,1607,-1037,-567,-317,93,225,-105
4396,5348,0,2023-03-01T18:55:24.351912,1913886,241,681,1609,-1033,-573,-323,93,225,-105
4397,5349,0,2023-03-01T18:55:24.357977,1913892,241,681,1609,-1033,-573,-323,93,225,-105
4398,5350,0,2023-03-01T18:55:24.363037,1913897,241,681,1609,-1033,-573,-323,93,225,-105
4399,5351,0,2023-03-01T18:55:24.367900,1913902,241,681,1609,-1033,-573,-323,93,225,-105
4400,5352,0,2023-03-01T18:55:24.373119,1913907,242,681,1601,-1034,-570,-327,93,225,-105
4401,5353,0,2023-03-01T18:55:24.379726,1913914,242,681,1601,-1034,-570,-327,93,225,-105
4402,5354,0,2023-03-01T18:55:24.385598,1913920,242,681,1601,-1034,-570,-327,93,225,-105
4403,5355,0,2023-03-01T18:55:24.390508,1913925,245,682,1602,-1033,-571,-321,93,225,-105
4404,5356,0,2023-03-01T18:55:24.396551,1913930,245,682,1602,-1033,-571,-321,93,225,-105
4405,5357,0,2023-03-01T18:55:24.401678,1913935,245,682,1602,-1033,-571,-321,93,225,-105
4406,5358,0,2023-03-01T18:55:24.406553,1913940,245,682,1602,-1033,-571,-321,93,225,-105
4407,5359,0,2023-03-01T18:55:24.411501,1913946,243,680,1602,-1033,-574,-326,93,225,-105
4408,5360,0,2023-03-01T18:55:24.417820,1913952,243,680,1602,-1033,-574,-326,93,225,-105
4409,5361,0,2023-03-01T18:55:24.422822,1913957,243,680,1602,-1033,-574,-326,93,225,-105
4410,5362,0,2023-03-01T18:55:24.427650,1913962,243,680,1602,-1033,-574,-326,93,225,-105
4411,5363,0,2023-03-01T18:55:24.432475,1913967,243,682,1603,-1032,-567,-328,93,225,-105
4412,5364,0,2023-03-01T18:55:24.439784,1913974,243,682,1603,-1032,-567,-328,93,225,-105
4413,5365,0,2023-03-01T18:55:24.445425,1913979,243,682,1603,-1032,-567,-328,93,225,-105
4414,5366,0,2023-03-01T18:55:24.449981,1913985,243,682,1603,-1032,-567,-328,93,225,-105
4415,5367,0,2023-03-01T18:55:24.455377,1913990,244,684,1614,-1033,-576,-320,86,212,-108
4416,5368,0,2023-03-01T18:55:24.461526,1913996,244,684,1614,-1033,-576,-320,86,212,-108
4417,5369,0,2023-03-01T18:55:24.466585,1914001,244,684,1614,-1033,-576,-320,86,212,-108
4418,5370,0,2023-03-01T18:55:24.471617,1914006,240,685,1607,-1030,-573,-325,86,212,-108
4419,5371,0,2023-03-01T18:55:24.478183,1914012,240,685,1607,-1030,-573,-325,86,212,-108
4420,5372,0,2023-03-01T18:55:24.483518,1914018,240,685,1607,-1030,-573,-325,86,212,-108
4421,5373,0,2023-03-01T18:55:24.488711,1914022,240,685,1607,-1030,-573,-325,86,212,-108
4422,5374,0,2023-03-01T18:55:24.495277,1914030,244,680,1604,-1037,-573,-323,86,212,-108
4423,5375,0,2023-03-01T18:55:24.500884,1914035,244,680,1604,-1037,-573,-323,86,212,-108
4424,5376,0,2023-03-01T18:55:24.506888,1914040,244,680,1604,-1037,-573,-323,86,212,-108
4425,5377,0,2023-03-01T18:55:24.512891,1914047,244,683,1601,-1031,-567,-322,86,212,-108
4426,5378,0,2023-03-01T18:55:24.519768,1914054,244,683,1601,-1031,-567,-322,86,212,-108
4427,5379,0,2023-03-01T18:55:24.524820,1914059,244,683,1601,-1031,-567,-322,86,212,-108
4428,5380,0,2023-03-01T18:55:24.529934,1914064,244,683,1601,-1031,-567,-322,86,212,-108
4429,5381,0,2023-03-01T18:55:24.536023,1914070,245,684,1600,-1037,-572,-329,86,212,-108
4430,5382,0,2023-03-01T18:55:24.542677,1914077,245,684,1600,-1037,-572,-329,86,212,-108
4431,5383,0,2023-03-01T18:55:24.547705,1914082,245,684,1600,-1037,-572,-329,86,212,-108
4432,5384,0,2023-03-01T18:55:24.552957,1914087,246,684,1604,-1032,-566,-317,86,212,-108
4433,5385,0,2023-03-01T18:55:24.559838,1914094,246,684,1604,-1032,-566,-317,86,212,-108
4434,5386,0,2023-03-01T18:55:24.564724,1914099,246,684,1604,-1032,-566,-317,86,212,-108
4435,5387,0,2023-03-01T18:55:24.570067,1914104,246,684,1604,-1032,-566,-317,86,212,-108
4436,5388,0,2023-03-01T18:55:24.575244,1914109,245,684,1607,-1032,-563,-322,89,217,-105
4437,5389,0,2023-03-01T18:55:24.581570,1914116,245,684,1607,-1032,-563,-322,89,217,-105
4438,5390,0,2023-03-01T18:55:24.587652,1914122,245,684,1607,-1032,-563,-322,89,217,-105
4439,5391,0,2023-03-01T18:55:24.592276,1914127,243,685,1607,-1031,-570,-311,89,217,-105
4440,5392,0,2023-03-01T18:55:24.598218,1914132,243,685,1607,-1031,-570,-311,89,217,-105
4441,5393,0,2023-03-01T18:55:24.603378,1914137,243,685,1607,-1031,-570,-311,89,217,-105
4442,5394,0,2023-03-01T18:55:24.608336,1914142,243,685,1607,-1031,-570,-311,89,217,-105
4443,5395,0,2023-03-01T18:55:24.614672,1914148,242,683,1608,-1034,-569,-318,89,217,-105
4444,5396,0,2023-03-01T18:55:24.620816,1914155,242,683,1608,-1034,-569,-318,89,217,-105
4445,5397,0,2023-03-01T18:55:24.625818,1914160,242,683,1608,-1034,-569,-318,89,217,-105
4446,5398,0,2023-03-01T18:55:24.630999,1914165,243,683,1604,-1033,-574,-321,89,217,-105
4447,5399,0,2023-03-01T18:55:24.637710,1914172,243,683,1604,-1033,-574,-321,89,217,-105
4448,5400,0,2023-03-01T18:55:24.643493,1914178,243,683,1604,-1033,-574,-321,89,217,-105
4449,5401,0,2023-03-01T18:55:24.648478,1914183,243,683,1604,-1033,-574,-321,89,217,-105
4450,5402,0,2023-03-01T18:55:24.654111,1914188,241,681,1602,-1028,-577,-322,89,217,-105
4451,5403,0,2023-03-01T18:55:24.660180,1914194,241,681,1602,-1028,-577,-322,89,217,-105
4452,5404,0,2023-03-01T18:55:24.665009,1914200,241,681,1602,-1028,-577,-322,89,217,-105
4453,5405,0,2023-03-01T18:55:24.670427,1914205,241,681,1602,-1028,-577,-322,89,217,-105
4454,5406,0,2023-03-01T18:55:24.676356,1914211,245,681,1602,-1030,-570,-323,89,217,-105
4455,5407,0,2023-03-01T18:55:24.681887,1914216,245,681,1602,-1030,-570,-323,89,217,-105
4456,5408,0,2023-03-01T18:55:24.686667,1914221,245,681,1602,-1030,-570,-323,89,217,-105
4457,5409,0,2023-03-01T18:55:24.691480,1914226,244,683,1605,-1043,-570,-321,89,217,-105
4458,5410,0,2023-03-01T18:55:24.697681,1914231,244,683,1605,-1043,-570,-321,89,217,-105
4459,5411,0,2023-03-01T18:55:24.703033,1914237,244,683,1605,-1043,-570,-321,89,217,-105
4460,5412,0,2023-03-01T18:55:24.708471,1914243,244,683,1605,-1043,-570,-321,89,217,-105
4461,5413,0,2023-03-01T18:55:24.713419,1914248,243,682,1605,-1033,-571,-317,93,211,-103
4462,5414,0,2023-03-01T18:55:24.719408,1914254,243,682,1605,-1033,-571,-317,93,211,-103
4463,5415,0,2023-03-01T18:55:24.725577,1914259,243,682,1605,-1033,-571,-317,93,211,-103
4464,5416,0,2023-03-01T18:55:24.731083,1914265,244,679,1603,-1035,-569,-323,93,211,-103
4465,5417,0,2023-03-01T18:55:24.737939,1914271,244,679,1603,-1035,-569,-323,93,211,-103
4466,5418,0,2023-03-01T18:55:24.743649,1914277,244,679,1603,-1035,-569,-323,93,211,-103
4467,5419,0,2023-03-01T18:55:24.748537,1914283,244,679,1603,-1035,-569,-323,93,211,-103
4468,5420,0,2023-03-01T18:55:24.754405,1914289,242,683,1602,-1031,-571,-320,93,211,-103
4469,5421,0,2023-03-01T18:55:24.760854,1914295,242,683,1602,-1031,-571,-320,93,211,-103
4470,5422,0,2023-03-01T18:55:24.765625,1914300,242,683,1602,-1031,-571,-320,93,211,-103
4471,5423,0,2023-03-01T18:55:24.770690,1914305,242,683,1602,-1031,-571,-320,93,211,-103
4472,5424,0,2023-03-01T18:55:24.776219,1914310,244,681,1606,-1032,-573,-316,93,211,-103
4473,5425,0,2023-03-01T18:55:24.782164,1914316,244,681,1606,-1032,-573,-316,93,211,-103
4474,5426,0,2023-03-01T18:55:24.787168,1914321,244,681,1606,-1032,-573,-316,93,211,-103
4475,5427,0,2023-03-01T18:55:24.792871,1914327,241,683,1600,-1031,-571,-327,93,211,-103
4476,5428,0,2023-03-01T18:55:24.798500,1914333,241,683,1600,-1031,-571,-327,93,211,-103
4477,5429,0,2023-03-01T18:55:24.804000,1914338,241,683,1600,-1031,-571,-327,93,211,-103
4478,5430,0,2023-03-01T18:55:24.808938,1914343,241,683,1600,-1031,-571,-327,93,211,-103
4479,5431,0,2023-03-01T18:55:24.815036,1914349,246,681,1604,-1032,-570,-326,93,211,-103
4480,5432,0,2023-03-01T18:55:24.820861,1914355,246,681,1604,-1032,-570,-326,93,211,-103
4481,5433,0,2023-03-01T18:55:24.825512,1914360,246,681,1604,-1032,-570,-326,93,211,-103
4482,5434,0,2023-03-01T18:55:24.830448,1914364,246,681,1604,-1032,-570,-326,93,211,-103
4483,5435,0,2023-03-01T18:55:24.836622,1914371,242,680,1613,-1034,-569,-326,92,216,-108
4484,5436,0,2023-03-01T18:55:24.843817,1914378,242,680,1613,-1034,-569,-326,92,216,-108
4485,5437,0,2023-03-01T18:55:24.848614,1914383,242,680,1613,-1034,-569,-326,92,216,-108
4486,5438,0,2023-03-01T18:55:24.854001,1914388,242,684,1608,-1045,-566,-319,92,216,-108
4487,5439,0,2023-03-01T18:55:24.859919,1914394,242,684,1608,-1045,-566,-319,92,216,-108
4488,5440,0,2023-03-01T18:55:24.864882,1914399,242,684,1608,-1045,-566,-319,92,216,-108
4489,5441,0,2023-03-01T18:55:24.869664,1914404,242,684,1608,-1045,-566,-319,92,216,-108
4490,5442,0,2023-03-01T18:55:24.875505,1914409,247,685,1612,-1046,-574,-324,92,216,-108
4491,5443,0,2023-03-01T18:55:24.881189,1914416,247,685,1612,-1046,-574,-324,92,216,-108
4492,5444,0,2023-03-01T18:55:24.886209,1914421,247,685,1612,-1046,-574,-324,92,216,-108
4493,5445,0,2023-03-01T18:55:24.890874,1914425,247,685,1612,-1046,-574,-324,92,216,-108
4494,5446,0,2023-03-01T18:55:24.896312,1914431,243,683,1605,-1031,-572,-328,92,216,-108
4495,5447,0,2023-03-01T18:55:24.902204,1914436,243,683,1605,-1031,-572,-328,92,216,-108
4496,5448,0,2023-03-01T18:55:24.907309,1914441,243,683,1605,-1031,-572,-328,92,216,-108
4497,5449,0,2023-03-01T18:55:24.912454,1914446,243,684,1603,-1027,-570,-323,92,216,-108
4498,5450,0,2023-03-01T18:55:24.919302,1914454,243,684,1603,-1027,-570,-323,92,216,-108
4499,5451,0,2023-03-01T18:55:24.925108,1914460,243,684,1603,-1027,-570,-323,92,216,-108
4500,5452,0,2023-03-01T18:55:24.930087,1914464,243,684,1603,-1027,-570,-323,92,216,-108
4501,5453,0,2023-03-01T18:55:24.935778,1914470,244,684,1602,-1029,-573,-322,92,216,-108
4502,5454,0,2023-03-01T18:55:24.942139,1914476,244,684,1602,-1029,-573,-322,92,216,-108
4503,5455,0,2023-03-01T18:55:24.947876,1914481,244,684,1602,-1029,-573,-322,92,216,-108
4504,5456,0,2023-03-01T18:55:24.953002,1914487,243,682,1602,-1033,-579,-319,92,216,-108
4505,5457,0,2023-03-01T18:55:24.959154,1914493,243,682,1602,-1033,-579,-319,92,216,-108
4506,5458,0,2023-03-01T18:55:24.963951,1914499,243,682,1602,-1033,-579,-319,92,216,-108
4507,5459,0,2023-03-01T18:55:24.969012,1914504,243,682,1602,-1033,-579,-319,92,216,-108
4508,5460,0,2023-03-01T18:55:24.975079,1914509,245,680,1609,-1039,-578,-324,87,209,-101
4509,5461,0,2023-03-01T18:55:24.981722,1914516,245,680,1609,-1039,-578,-324,87,209,-101
4510,5462,0,2023-03-01T18:55:24.987018,1914521,245,680,1609,-1039,-578,-324,87,209,-101
4511,5463,0,2023-03-01T18:55:24.992115,1914526,246,677,1609,-1034,-571,-324,87,209,-101
4512,5464,0,2023-03-01T18:55:24.998129,1914532,246,677,1609,-1034,-571,-324,87,209,-101
4513,5465,0,2023-03-01T18:55:25.003096,1914537,246,677,1609,-1034,-571,-324,87,209,-101
4514,5466,0,2023-03-01T18:55:25.007983,1914543,246,677,1609,-1034,-571,-324,87,209,-101
4515,5467,0,2023-03-01T18:55:25.013177,1914548,244,681,1605,-1030,-573,-321,87,209,-101
4516,5468,0,2023-03-01T18:55:25.019925,1914554,244,681,1605,-1030,-573,-321,87,209,-101
4517,5469,0,2023-03-01T18:55:25.025677,1914560,244,681,1605,-1030,-573,-321,87,209,-101
4518,5470,0,2023-03-01T18:55:25.031020,1914565,244,681,1605,-1030,-573,-321,87,209,-101
4519,5471,0,2023-03-01T18:55:25.037443,1914571,239,684,1601,-1037,-570,-318,87,209,-101
4520,5472,0,2023-03-01T18:55:25.044049,1914578,239,684,1601,-1037,-570,-318,87,209,-101
4521,5473,0,2023-03-01T18:55:25.049386,1914584,239,684,1601,-1037,-570,-318,87,209,-101
4522,5474,0,2023-03-01T18:55:25.056028,1914589,243,680,1606,-1039,-571,-321,87,209,-101
4523,5475,0,2023-03-01T18:55:25.063659,1914598,243,680,1606,-1039,-571,-321,87,209,-101
4524,5476,0,2023-03-01T18:55:25.068899,1914603,243,680,1606,-1039,-571,-321,87,209,-101
4525,5477,0,2023-03-01T18:55:25.074850,1914609,244,684,1612,-1041,-573,-317,87,209,-101
4526,5478,0,2023-03-01T18:55:25.081067,1914615,244,684,1612,-1041,-573,-317,87,209,-101
4527,5479,0,2023-03-01T18:55:25.085963,1914620,244,684,1612,-1041,-573,-317,87,209,-101
4528,5480,0,2023-03-01T18:55:25.091300,1914626,244,684,1612,-1041,-573,-317,87,209,-101
4529,5481,0,2023-03-01T18:55:25.097926,1914632,244,687,1612,-1038,-577,-319,92,214,-100
4530,5482,0,2023-03-01T18:55:25.104448,1914639,244,687,1612,-1038,-577,-319,92,214,-100
4531,5483,0,2023-03-01T18:55:25.110042,1914644,244,687,1612,-1038,-577,-319,92,214,-100
4532,5484,0,2023-03-01T18:55:25.115407,1914649,244,684,1604,-1032,-576,-326,92,214,-100
4533,5485,0,2023-03-01T18:55:25.122090,1914656,244,684,1604,-1032,-576,-326,92,214,-100
4534,5486,0,2023-03-01T18:55:25.127424,1914661,244,684,1604,-1032,-576,-326,92,214,-100
4535,5487,0,2023-03-01T18:55:25.132256,1914667,245,685,1601,-1030,-574,-323,92,214,-100
4536,5488,0,2023-03-01T18:55:25.138729,1914673,245,685,1601,-1030,-574,-323,92,214,-100
4537,5489,0,2023-03-01T18:55:25.143874,1914678,245,685,1601,-1030,-574,-323,92,214,-100
4538,5490,0,2023-03-01T18:55:25.149217,1914683,245,685,1601,-1030,-574,-323,92,214,-100
4539,5491,0,2023-03-01T18:55:25.155026,1914689,240,681,1603,-1031,-569,-328,92,214,-100
4540,5492,0,2023-03-01T18:55:25.160615,1914695,240,681,1603,-1031,-569,-328,92,214,-100
4541,5493,0,2023-03-01T18:55:25.166934,1914700,240,681,1603,-1031,-569,-328,92,214,-100
4542,5494,0,2023-03-01T18:55:25.172141,1914706,247,681,1607,-1037,-577,-324,92,214,-100
4543,5495,0,2023-03-01T18:55:25.178492,1914713,247,681,1607,-1037,-577,-324,92,214,-100
4544,5496,0,2023-03-01T18:55:25.184332,1914719,247,681,1607,-1037,-577,-324,92,214,-100
4545,5497,0,2023-03-01T18:55:25.190170,1914724,247,681,1607,-1037,-577,-324,92,214,-100
4546,5498,0,2023-03-01T18:55:25.195730,1914730,244,681,1604,-1041,-579,-325,92,214,-100
4547,5499,0,2023-03-01T18:55:25.200740,1914735,244,681,1604,-1041,-579,-325,92,214,-100
4548,5500,0,2023-03-01T18:55:25.205501,1914740,244,681,1604,-1041,-579,-325,92,214,-100
4549,5501,0,2023-03-01T18:55:25.210601,1914745,244,681,1604,-1041,-579,-325,92,214,-100
4550,5502,0,2023-03-01T18:55:25.216177,1914750,240,684,1606,-1038,-577,-317,86,218,-108
4551,5503,0,2023-03-01T18:55:25.221724,1914756,240,684,1606,-1038,-577,-317,86,218,-108
4552,5504,0,2023-03-01T18:55:25.227173,1914761,240,684,1606,-1038,-577,-317,86,218,-108
4553,5505,0,2023-03-01T18:55:25.232194,1914767,244,682,1605,-1039,-569,-320,86,218,-108
4554,5506,0,2023-03-01T18:55:25.238189,1914773,244,682,1605,-1039,-569,-320,86,218,-108
4555,5507,0,2023-03-01T18:55:25.243874,1914778,244,682,1605,-1039,-569,-320,86,218,-108
4556,5508,0,2023-03-01T18:55:25.248728,1914783,244,682,1605,-1039,-569,-320,86,218,-108
4557,5509,0,2023-03-01T18:55:25.254310,1914788,246,682,1605,-1043,-568,-320,86,218,-108
4558,5510,0,2023-03-01T18:55:25.260184,1914795,246,682,1605,-1043,-568,-320,86,218,-108
4559,5511,0,2023-03-01T18:55:25.265859,1914800,246,682,1605,-1043,-568,-320,86,218,-108
4560,5512,0,2023-03-01T18:55:25.270929,1914805,246,682,1605,-1043,-568,-320,86,218,-108
4561,5513,0,2023-03-01T18:55:25.276771,1914811,243,684,1605,-1034,-567,-325,86,218,-108
4562,5514,0,2023-03-01T18:55:25.282948,1914817,243,684,1605,-1034,-567,-325,86,218,-108
4563,5515,0,2023-03-01T18:55:25.287938,1914822,243,684,1605,-1034,-567,-325,86,218,-108
4564,5516,0,2023-03-01T18:55:25.293393,1914827,243,681,1604,-1039,-576,-330,86,218,-108
4565,5517,0,2023-03-01T18:55:25.300035,1914834,243,681,1604,-1039,-576,-330,86,218,-108
4566,5518,0,2023-03-01T18:55:25.305053,1914840,243,681,1604,-1039,-576,-330,86,218,-108
4567,5519,0,2023-03-01T18:55:25.309817,1914844,243,681,1604,-1039,-576,-330,86,218,-108
4568,5520,0,2023-03-01T18:55:25.315622,1914850,244,681,1598,-1039,-570,-320,86,218,-108
4569,5521,0,2023-03-01T18:55:25.321477,1914856,244,681,1598,-1039,-570,-320,86,218,-108
4570,5522,0,2023-03-01T18:55:25.326267,1914861,244,681,1598,-1039,-570,-320,86,218,-108
4571,5523,0,2023-03-01T18:55:25.331260,1914865,244,681,1598,-1039,-570,-320,86,218,-108
4572,5524,0,2023-03-01T18:55:25.337177,1914871,243,681,1601,-1035,-578,-318,86,218,-108
4573,5525,0,2023-03-01T18:55:25.343841,1914878,243,681,1601,-1035,-578,-318,86,218,-108
4574,5526,0,2023-03-01T18:55:25.348926,1914883,243,681,1601,-1035,-578,-318,86,218,-108
4575,5527,0,2023-03-01T18:55:25.354732,1914889,240,684,1606,-1039,-571,-323,88,216,-98
4576,5528,0,2023-03-01T18:55:25.361535,1914895,240,684,1606,-1039,-571,-323,88,216,-98
4577,5529,0,2023-03-01T18:55:25.366828,1914901,240,684,1606,-1039,-571,-323,88,216,-98
4578,5530,0,2023-03-01T18:55:25.372211,1914906,245,684,1612,-1036,-567,-321,88,216,-98
4579,5531,0,2023-03-01T18:55:25.378544,1914913,245,684,1612,-1036,-567,-321,88,216,-98
4580,5532,0,2023-03-01T18:55:25.384381,1914918,245,684,1612,-1036,-567,-321,88,216,-98
4581,5533,0,2023-03-01T18:55:25.389816,1914924,245,684,1612,-1036,-567,-321,88,216,-98
4582,5534,0,2023-03-01T18:55:25.395547,1914930,243,679,1600,-1032,-571,-328,88,216,-98
4583,5535,0,2023-03-01T18:55:25.402033,1914936,243,679,1600,-1032,-571,-328,88,216,-98
4584,5536,0,2023-03-01T18:55:25.406973,1914941,243,679,1600,-1032,-571,-328,88,216,-98
4585,5537,0,2023-03-01T18:55:25.411838,1914946,242,680,1603,-1032,-576,-320,88,216,-98
4586,5538,0,2023-03-01T18:55:25.418083,1914952,242,680,1603,-1032,-576,-320,88,216,-98
4587,5539,0,2023-03-01T18:55:25.423138,1914957,242,680,1603,-1032,-576,-320,88,216,-98
4588,5540,0,2023-03-01T18:55:25.428239,1914962,242,680,1603,-1032,-576,-320,88,216,-98
4589,5541,0,2023-03-01T18:55:25.433048,1914968,246,685,1607,-1028,-573,-321,88,216,-98
4590,5542,0,2023-03-01T18:55:25.439053,1914974,246,685,1607,-1028,-573,-321,88,216,-98
4591,5543,0,2023-03-01T18:55:25.444124,1914978,246,685,1607,-1028,-573,-321,88,216,-98
4592,5544,0,2023-03-01T18:55:25.449353,1914984,246,685,1607,-1028,-573,-321,88,216,-98
4593,5545,0,2023-03-01T18:55:25.455239,1914989,244,681,1601,-1034,-574,-331,88,216,-98
4594,5546,0,2023-03-01T18:55:25.460585,1914995,244,681,1601,-1034,-574,-331,88,216,-98
4595,5547,0,2023-03-01T18:55:25.465892,1915000,244,681,1601,-1034,-574,-331,88,216,-98
4596,5548,0,2023-03-01T18:55:25.470787,1915005,244,681,1601,-1034,-574,-331,88,216,-98
4597,5549,0,2023-03-01T18:55:25.476102,1915011,244,682,1609,-1033,-574,-319,89,219,-105
4598,5550,0,2023-03-01T18:55:25.482307,1915017,244,682,1609,-1033,-574,-319,89,219,-105
4599,5551,0,2023-03-01T18:55:25.487255,1915022,244,682,1609,-1033,-574,-319,89,219,-105
4600,5552,0,2023-03-01T18:55:25.492255,1915027,241,682,1605,-1041,-573,-323,89,219,-105
4601,5553,0,2023-03-01T18:55:25.499522,1915034,241,682,1605,-1041,-573,-323,89,219,-105
4602,5554,0,2023-03-01T18:55:25.505827,1915040,241,682,1605,-1041,-573,-323,89,219,-105
4603,5555,0,2023-03-01T18:55:25.511323,1915045,241,682,1605,-1041,-573,-323,89,219,-105
4604,5556,0,2023-03-01T18:55:25.516980,1915052,244,683,1607,-1040,-570,-316,89,219,-105
4605,5557,0,2023-03-01T18:55:25.522732,1915057,244,683,1607,-1040,-570,-316,89,219,-105
4606,5558,0,2023-03-01T18:55:25.527685,1915062,244,683,1607,-1040,-570,-316,89,219,-105
4607,5559,0,2023-03-01T18:55:25.532713,1915067,244,683,1607,-1040,-570,-316,89,219,-105
4608,5560,0,2023-03-01T18:55:25.538372,1915072,244,683,1607,-1040,-570,-316,89,219,-105
4609,5561,0,2023-03-01T18:55:25.544265,1915078,244,683,1607,-1040,-570,-316,89,219,-105
4610,5562,0,2023-03-01T18:55:25.549335,1915083,244,683,1607,-1040,-570,-316,89,219,-105
4611,5563,0,2023-03-01T18:55:25.554630,1915089,243,682,1602,-1036,-571,-321,89,219,-105
4612,5564,0,2023-03-01T18:55:25.561263,1915096,243,682,1602,-1036,-571,-321,89,219,-105
4613,5565,0,2023-03-01T18:55:25.566072,1915101,243,682,1602,-1036,-571,-321,89,219,-105
4614,5566,0,2023-03-01T18:55:25.571066,1915105,243,682,1602,-1036,-571,-321,89,219,-105
4615,5567,0,2023-03-01T18:55:25.577318,1915111,243,684,1605,-1032,-573,-317,89,219,-105
4616,5568,0,2023-03-01T18:55:25.583942,1915118,243,684,1605,-1032,-573,-317,89,219,-105
4617,5569,0,2023-03-01T18:55:25.589498,1915123,243,684,1605,-1032,-573,-317,89,219,-105
4618,5570,0,2023-03-01T18:55:25.595962,1915130,242,683,1602,-1031,-565,-321,89,219,-105
4619,5571,0,2023-03-01T18:55:25.602671,1915137,242,683,1602,-1031,-565,-321,89,219,-105
4620,5572,0,2023-03-01T18:55:25.608111,1915142,242,683,1602,-1031,-565,-321,89,219,-105
4621,5573,0,2023-03-01T18:55:25.612968,1915147,242,685,1609,-1042,-572,-325,85,217,-103
4622,5574,0,2023-03-01T18:55:25.619222,1915153,242,685,1609,-1042,-572,-325,85,217,-103
4623,5575,0,2023-03-01T18:55:25.625487,1915160,242,685,1609,-1042,-572,-325,85,217,-103
4624,5576,0,2023-03-01T18:55:25.630439,1915165,242,685,1609,-1042,-572,-325,85,217,-103
4625,5577,0,2023-03-01T18:55:25.635327,1915169,242,685,1609,-1042,-572,-325,85,217,-103
4626,5578,0,2023-03-01T18:55:25.640767,1915175,242,685,1609,-1042,-572,-325,85,217,-103
4627,5579,0,2023-03-01T18:55:25.645690,1915180,242,685,1609,-1042,-572,-325,85,217,-103
4628,5580,0,2023-03-01T18:55:25.650859,1915185,242,685,1609,-1042,-572,-325,85,217,-103
4629,5581,0,2023-03-01T18:55:25.656561,1915191,245,682,1606,-1043,-570,-321,85,217,-103
4630,5582,0,2023-03-01T18:55:25.662220,1915197,245,682,1606,-1043,-570,-321,85,217,-103
4631,5583,0,2023-03-01T18:55:25.667529,1915201,245,682,1606,-1043,-570,-321,85,217,-103
4632,5584,0,2023-03-01T18:55:25.672556,1915207,241,685,1602,-1034,-567,-318,85,217,-103
4633,5585,0,2023-03-01T18:55:25.677936,1915212,241,685,1602,-1034,-567,-318,85,217,-103
4634,5586,0,2023-03-01T18:55:25.684064,1915217,241,685,1602,-1034,-567,-318,85,217,-103
4635,5587,0,2023-03-01T18:55:25.690039,1915224,241,685,1602,-1034,-567,-318,85,217,-103
4636,5588,0,2023-03-01T18:55:25.696077,1915230,242,683,1604,-1035,-569,-309,85,217,-103
4637,5589,0,2023-03-01T18:55:25.702934,1915237,242,683,1604,-1035,-569,-309,85,217,-103
4638,5590,0,2023-03-01T18:55:25.708277,1915242,242,683,1604,-1035,-569,-309,85,217,-103
4639,5591,0,2023-03-01T18:55:25.713823,1915248,242,682,1603,-1035,-576,-322,85,217,-103
4640,5592,0,2023-03-01T18:55:25.720370,1915254,242,682,1603,-1035,-576,-322,85,217,-103
4641,5593,0,2023-03-01T18:55:25.726307,1915260,242,682,1603,-1035,-576,-322,85,217,-103
4642,5594,0,2023-03-01T18:55:25.731993,1915266,242,682,1603,-1035,-576,-322,85,217,-103
4643,5595,0,2023-03-01T18:55:25.738636,1915272,243,680,1606,-1035,-581,-320,84,212,-100
4644,5596,0,2023-03-01T18:55:25.744966,1915279,243,680,1606,-1035,-581,-320,84,212,-100
4645,5597,0,2023-03-01T18:55:25.750066,1915284,243,680,1606,-1035,-581,-320,84,212,-100
4646,5598,0,2023-03-01T18:55:25.755650,1915290,244,681,1608,-1030,-573,-316,84,212,-100
4647,5599,0,2023-03-01T18:55:25.762002,1915296,244,681,1608,-1030,-573,-316,84,212,-100
4648,5600,0,2023-03-01T18:55:25.766645,1915301,244,681,1608,-1030,-573,-316,84,212,-100
4649,5601,0,2023-03-01T18:55:25.771509,1915305,244,681,1608,-1030,-573,-316,84,212,-100
4650,5602,0,2023-03-01T18:55:25.776989,1915312,246,684,1605,-1031,-571,-328,84,212,-100
4651,5603,0,2023-03-01T18:55:25.782672,1915317,246,684,1605,-1031,-571,-328,84,212,-100
4652,5604,0,2023-03-01T18:55:25.787363,1915322,246,684,1605,-1031,-571,-328,84,212,-100
4653,5605,0,2023-03-01T18:55:25.792589,1915327,241,683,1603,-1040,-577,-329,84,212,-100
4654,5606,0,2023-03-01T18:55:25.798742,1915333,241,683,1603,-1040,-577,-329,84,212,-100
4655,5607,0,2023-03-01T18:55:25.803924,1915338,241,683,1603,-1040,-577,-329,84,212,-100
4656,5608,0,2023-03-01T18:55:25.808545,1915343,241,683,1603,-1040,-577,-329,84,212,-100
4657,5609,0,2023-03-01T18:55:25.813918,1915347,240,685,1601,-1036,-573,-317,84,212,-100
4658,5610,0,2023-03-01T18:55:25.820186,1915355,240,685,1601,-1036,-573,-317,84,212,-100
4659,5611,0,2023-03-01T18:55:25.826368,1915360,240,685,1601,-1036,-573,-317,84,212,-100
4660,5612,0,2023-03-01T18:55:25.831692,1915366,240,685,1601,-1036,-573,-317,84,212,-100
4661,5613,0,2023-03-01T18:55:25.837460,1915372,242,683,1595,-1033,-571,-323,84,212,-100
4662,5614,0,2023-03-01T18:55:25.844132,1915378,242,683,1595,-1033,-571,-323,84,212,-100
4663,5615,0,2023-03-01T18:55:25.848947,1915383,242,683,1595,-1033,-571,-323,84,212,-100
4664,5616,0,2023-03-01T18:55:25.854437,1915388,242,685,1602,-1032,-570,-328,85,215,-101
4665,5617,0,2023-03-01T18:55:25.859676,1915395,242,685,1602,-1032,-570,-328,85,215,-101
4666,5618,0,2023-03-01T18:55:25.864473,1915399,242,685,1602,-1032,-570,-328,85,215,-101
4667,5619,0,2023-03-01T18:55:25.869782,1915404,242,685,1602,-1032,-570,-328,85,215,-101
4668,5620,0,2023-03-01T18:55:25.875840,1915410,243,684,1607,-1038,-574,-329,85,215,-101
4669,5621,0,2023-03-01T18:55:25.882017,1915416,243,684,1607,-1038,-574,-329,85,215,-101
4670,5622,0,2023-03-01T18:55:25.886767,1915421,243,684,1607,-1038,-574,-329,85,215,-101
4671,5623,0,2023-03-01T18:55:25.891745,1915426,243,684,1607,-1038,-574,-329,85,215,-101
4672,5624,0,2023-03-01T18:55:25.897677,1915432,244,687,1605,-1032,-569,-322,85,215,-101
4673,5625,0,2023-03-01T18:55:25.903917,1915438,244,687,1605,-1032,-569,-322,85,215,-101
4674,5626,0,2023-03-01T18:55:25.908851,1915443,244,687,1605,-1032,-569,-322,85,215,-101
4675,5627,0,2023-03-01T18:55:25.915062,1915449,246,683,1607,-1032,-572,-323,85,215,-101
4676,5628,0,2023-03-01T18:55:25.920718,1915455,246,683,1607,-1032,-572,-323,85,215,-101
4677,5629,0,2023-03-01T18:55:25.926409,1915461,246,683,1607,-1032,-572,-323,85,215,-101
4678,5630,0,2023-03-01T18:55:25.932512,1915466,246,683,1607,-1032,-572,-323,85,215,-101
4679,5631,0,2023-03-01T18:55:25.937758,1915471,243,683,1603,-1039,-576,-330,85,215,-101
4680,5632,0,2023-03-01T18:55:25.944214,1915479,243,683,1603,-1039,-576,-330,85,215,-101
4681,5633,0,2023-03-01T18:55:25.949103,1915484,243,683,1603,-1039,-576,-330,85,215,-101
4682,5634,0,2023-03-01T18:55:25.954984,1915490,245,682,1604,-1045,-567,-319,85,215,-101
4683,5635,0,2023-03-01T18:55:25.961110,1915496,245,682,1604,-1045,-567,-319,85,215,-101
4684,5636,0,2023-03-01T18:55:25.965782,1915500,245,682,1604,-1045,-567,-319,85,215,-101
4685,5637,0,2023-03-01T18:55:25.970674,1915505,245,682,1604,-1045,-567,-319,85,215,-101
4686,5638,0,2023-03-01T18:55:25.975286,1915509,244,683,1609,-1041,-571,-330,85,215,-101
4687,5639,0,2023-03-01T18:55:25.980730,1915515,244,683,1609,-1041,-571,-330,85,215,-101
4688,5640,0,2023-03-01T18:55:25.986009,1915521,244,683,1609,-1041,-571,-330,85,215,-101
4689,5641,0,2023-03-01T18:55:25.990990,1915526,244,683,1609,-1041,-571,-330,85,215,-101
4690,5642,0,2023-03-01T18:55:25.996704,1915531,244,682,1610,-1025,-570,-325,100,214,-104
4691,5643,0,2023-03-01T18:55:26.003208,1915538,244,682,1610,-1025,-570,-325,100,214,-104
4692,5644,0,2023-03-01T18:55:26.008295,1915542,244,682,1610,-1025,-570,-325,100,214,-104
4693,5645,0,2023-03-01T18:55:26.014331,1915548,245,683,1602,-1034,-571,-326,100,214,-104
4694,5646,0,2023-03-01T18:55:26.020736,1915555,245,683,1602,-1034,-571,-326,100,214,-104
4695,5647,0,2023-03-01T18:55:26.026361,1915560,245,683,1602,-1034,-571,-326,100,214,-104
4696,5648,0,2023-03-01T18:55:26.031264,1915566,245,683,1602,-1034,-571,-326,100,214,-104
4697,5649,0,2023-03-01T18:55:26.036951,1915571,242,684,1605,-1041,-569,-330,100,214,-104
4698,5650,0,2023-03-01T18:55:26.043894,1915578,242,684,1605,-1041,-569,-330,100,214,-104
4699,5651,0,2023-03-01T18:55:26.049067,1915583,242,684,1605,-1041,-569,-330,100,214,-104
4700,5652,0,2023-03-01T18:55:26.054889,1915589,242,685,1605,-1032,-571,-324,100,214,-104
4701,5653,0,2023-03-01T18:55:26.060304,1915594,242,685,1605,-1032,-571,-324,100,214,-104
4702,5654,0,2023-03-01T18:55:26.065929,1915600,242,685,1605,-1032,-571,-324,100,214,-104
4703,5655,0,2023-03-01T18:55:26.070827,1915606,242,685,1605,-1032,-571,-324,100,214,-104
4704,5656,0,2023-03-01T18:55:26.077102,1915612,241,684,1604,-1026,-573,-320,100,214,-104
4705,5657,0,2023-03-01T18:55:26.083861,1915618,241,684,1604,-1026,-573,-320,100,214,-104
4706,5658,0,2023-03-01T18:55:26.089079,1915623,241,684,1604,-1026,-573,-320,100,214,-104
4707,5659,0,2023-03-01T18:55:26.094983,1915629,242,683,1602,-1028,-571,-330,100,214,-104
4708,5660,0,2023-03-01T18:55:26.100948,1915635,242,683,1602,-1028,-571,-330,100,214,-104
4709,5661,0,2023-03-01T18:55:26.105920,1915640,242,683,1602,-1028,-571,-330,100,214,-104
4710,5662,0,2023-03-01T18:55:26.111253,1915645,242,683,1602,-1028,-571,-330,100,214,-104
4711,5663,0,2023-03-01T18:55:26.116965,1915652,245,684,1597,-1031,-573,-326,89,205,-97
4712,5664,0,2023-03-01T18:55:26.122925,1915657,245,684,1597,-1031,-573,-326,89,205,-97
4713,5665,0,2023-03-01T18:55:26.127891,1915662,245,684,1597,-1031,-573,-326,89,205,-97
4714,5666,0,2023-03-01T18:55:26.133116,1915667,242,684,1605,-1032,-574,-324,89,205,-97
4715,5667,0,2023-03-01T18:55:26.139257,1915673,242,684,1605,-1032,-574,-324,89,205,-97
4716,5668,0,2023-03-01T18:55:26.144136,1915678,242,684,1605,-1032,-574,-324,89,205,-97
4717,5669,0,2023-03-01T18:55:26.150203,1915683,242,684,1605,-1032,-574,-324,89,205,-97
4718,5670,0,2023-03-01T18:55:26.157005,1915692,243,681,1606,-1033,-573,-320,89,205,-97
4719,5671,0,2023-03-01T18:55:26.163321,1915698,243,681,1606,-1033,-573,-320,89,205,-97
4720,5672,0,2023-03-01T18:55:26.168489,1915703,243,681,1606,-1033,-573,-320,89,205,-97
4721,5673,0,2023-03-01T18:55:26.174072,1915708,239,685,1602,-1036,-572,-318,89,205,-97
4722,5674,0,2023-03-01T18:55:26.180776,1915715,239,685,1602,-1036,-572,-318,89,205,-97
4723,5675,0,2023-03-01T18:55:26.186611,1915721,239,685,1602,-1036,-572,-318,89,205,-97
4724,5676,0,2023-03-01T18:55:26.191725,1915726,239,685,1602,-1036,-572,-318,89,205,-97
4725,5677,0,2023-03-01T18:55:26.197316,1915731,242,686,1607,-1038,-572,-319,89,205,-97
4726,5678,0,2023-03-01T18:55:26.203432,1915738,242,686,1607,-1038,-572,-319,89,205,-97
4727,5679,0,2023-03-01T18:55:26.208889,1915743,242,686,1607,-1038,-572,-319,89,205,-97
4728,5680,0,2023-03-01T18:55:26.214141,1915748,242,686,1607,-1038,-572,-319,89,205,-97
4729,5681,0,2023-03-01T18:55:26.220070,1915754,242,686,1607,-1038,-572,-319,89,205,-97
4730,5682,0,2023-03-01T18:55:26.225297,1915759,242,686,1607,-1038,-572,-319,89,205,-97
4731,5683,0,2023-03-01T18:55:26.230846,1915765,242,686,1607,-1038,-572,-319,89,205,-97
4732,5684,0,2023-03-01T18:55:26.236467,1915770,247,685,1598,-1033,-572,-316,89,205,-97
4733,5685,0,2023-03-01T18:55:26.242541,1915777,247,685,1598,-1033,-572,-316,89,205,-97
4734,5686,0,2023-03-01T18:55:26.247338,1915782,247,685,1598,-1033,-572,-316,89,205,-97
4735,5687,0,2023-03-01T18:55:26.252825,1915787,247,685,1598,-1033,-572,-316,89,205,-97
4736,5688,0,2023-03-01T18:55:26.258327,1915792,246,684,1608,-1031,-578,-317,88,220,-104
4737,5689,0,2023-03-01T18:55:26.265501,1915799,246,684,1608,-1031,-578,-317,88,220,-104
4738,5690,0,2023-03-01T18:55:26.271121,1915805,246,684,1608,-1031,-578,-317,88,220,-104
4739,5691,0,2023-03-01T18:55:26.276900,1915811,243,684,1608,-1033,-575,-320,88,220,-104
4740,5692,0,2023-03-01T18:55:26.283033,1915817,243,684,1608,-1033,-575,-320,88,220,-104
4741,5693,0,2023-03-01T18:55:26.287912,1915823,243,684,1608,-1033,-575,-320,88,220,-104
4742,5694,0,2023-03-01T18:55:26.293164,1915827,243,683,1602,-1040,-571,-318,88,220,-104
4743,5695,0,2023-03-01T18:55:26.299948,1915834,243,683,1602,-1040,-571,-318,88,220,-104
4744,5696,0,2023-03-01T18:55:26.304943,1915839,243,683,1602,-1040,-571,-318,88,220,-104
4745,5697,0,2023-03-01T18:55:26.309941,1915844,243,683,1602,-1040,-571,-318,88,220,-104
4746,5698,0,2023-03-01T18:55:26.315384,1915849,243,685,1608,-1031,-572,-327,88,220,-104
4747,5699,0,2023-03-01T18:55:26.321661,1915855,243,685,1608,-1031,-572,-327,88,220,-104
4748,5700,0,2023-03-01T18:55:26.327395,1915862,243,685,1608,-1031,-572,-327,88,220,-104
4749,5701,0,2023-03-01T18:55:26.332132,1915867,243,685,1608,-1031,-572,-327,88,220,-104
4750,5702,0,2023-03-01T18:55:26.337876,1915872,243,681,1606,-1038,-572,-328,88,220,-104
4751,5703,0,2023-03-01T18:55:26.344613,1915879,243,681,1606,-1038,-572,-328,88,220,-104
4752,5704,0,2023-03-01T18:55:26.350027,1915884,243,681,1606,-1038,-572,-328,88,220,-104
4753,5705,0,2023-03-01T18:55:26.355483,1915890,242,687,1603,-1040,-581,-320,88,220,-104
4754,5706,0,2023-03-01T18:55:26.361520,1915896,242,687,1603,-1040,-581,-320,88,220,-104
4755,5707,0,2023-03-01T18:55:26.366500,1915900,242,687,1603,-1040,-581,-320,88,220,-104
4756,5708,0,2023-03-01T18:55:26.372161,1915907,242,687,1603,-1040,-581,-320,88,220,-104
4757,5709,0,2023-03-01T18:55:26.378051,1915913,243,683,1599,-1037,-572,-324,91,217,-105
4758,5710,0,2023-03-01T18:55:26.384468,1915919,243,683,1599,-1037,-572,-324,91,217,-105
4759,5711,0,2023-03-01T18:55:26.390014,1915924,243,683,1599,-1037,-572,-324,91,217,-105
4760,5712,0,2023-03-01T18:55:26.395664,1915930,241,683,1605,-1040,-573,-325,91,217,-105
4761,5713,0,2023-03-01T18:55:26.403069,1915936,241,683,1605,-1040,-573,-325,91,217,-105
4762,5714,0,2023-03-01T18:55:26.408166,1915942,241,683,1605,-1040,-573,-325,91,217,-105
4763,5715,0,2023-03-01T18:55:26.412981,1915948,242,682,1602,-1033,-574,-321,91,217,-105
4764,5716,0,2023-03-01T18:55:26.418648,1915953,242,682,1602,-1033,-574,-321,91,217,-105
4765,5717,0,2023-03-01T18:55:26.424252,1915959,242,682,1602,-1033,-574,-321,91,217,-105
4766,5718,0,2023-03-01T18:55:26.429957,1915964,242,682,1602,-1033,-574,-321,91,217,-105
4767,5719,0,2023-03-01T18:55:26.436129,1915970,245,684,1606,-1034,-574,-321,91,217,-105
4768,5720,0,2023-03-01T18:55:26.442664,1915977,245,684,1606,-1034,-574,-321,91,217,-105
4769,5721,0,2023-03-01T18:55:26.447953,1915982,245,684,1606,-1034,-574,-321,91,217,-105
4770,5722,0,2023-03-01T18:55:26.453040,1915987,241,682,1606,-1032,-570,-317,91,217,-105
4771,5723,0,2023-03-01T18:55:26.459511,1915994,241,682,1606,-1032,-570,-317,91,217,-105
4772,5724,0,2023-03-01T18:55:26.465056,1916000,241,682,1606,-1032,-570,-317,91,217,-105
4773,5725,0,2023-03-01T18:55:26.469985,1916005,241,682,1606,-1032,-570,-317,91,217,-105
4774,5726,0,2023-03-01T18:55:26.474946,1916009,245,679,1603,-1036,-573,-322,91,217,-105
4775,5727,0,2023-03-01T18:55:26.483045,1916017,245,679,1603,-1036,-573,-322,91,217,-105
4776,5728,0,2023-03-01T18:55:26.488303,1916022,245,679,1603,-1036,-573,-322,91,217,-105
4777,5729,0,2023-03-01T18:55:26.494161,1916028,243,683,1604,-1037,-574,-319,91,217,-105
4778,5730,0,2023-03-01T18:55:26.500184,1916035,243,683,1604,-1037,-574,-319,91,217,-105
4779,5731,0,2023-03-01T18:55:26.504860,1916040,243,683,1604,-1037,-574,-319,91,217,-105
4780,5732,0,2023-03-01T18:55:26.509942,1916044,243,683,1604,-1037,-574,-319,91,217,-105
4781,5733,0,2023-03-01T18:55:26.515221,1916050,244,681,1614,-1037,-568,-317,87,217,-105
4782,5734,0,2023-03-01T18:55:26.521146,1916055,244,681,1614,-1037,-568,-317,87,217,-105
4783,5735,0,2023-03-01T18:55:26.526203,1916060,244,681,1614,-1037,-568,-317,87,217,-105
4784,5736,0,2023-03-01T18:55:26.531625,1916066,244,681,1614,-1037,-568,-317,87,217,-105
4785,5737,0,2023-03-01T18:55:26.537600,1916071,241,684,1610,-1038,-576,-329,87,217,-105
4786,5738,0,2023-03-01T18:55:26.543538,1916078,241,684,1610,-1038,-576,-329,87,217,-105
4787,5739,0,2023-03-01T18:55:26.548640,1916083,241,684,1610,-1038,-576,-329,87,217,-105
4788,5740,0,2023-03-01T18:55:26.553453,1916088,242,683,1606,-1030,-574,-333,87,217,-105
4789,5741,0,2023-03-01T18:55:26.559290,1916094,242,683,1606,-1030,-574,-333,87,217,-105
4790,5742,0,2023-03-01T18:55:26.564781,1916099,242,683,1606,-1030,-574,-333,87,217,-105
4791,5743,0,2023-03-01T18:55:26.569871,1916104,242,683,1606,-1030,-574,-333,87,217,-105
4792,5744,0,2023-03-01T18:55:26.575570,1916110,244,683,1606,-1038,-574,-320,87,217,-105
4793,5745,0,2023-03-01T18:55:26.581805,1916116,244,683,1606,-1038,-574,-320,87,217,-105
4794,5746,0,2023-03-01T18:55:26.587176,1916122,244,683,1606,-1038,-574,-320,87,217,-105
4795,5747,0,2023-03-01T18:55:26.593156,1916127,244,683,1606,-1038,-574,-320,87,217,-105
4796,5748,0,2023-03-01T18:55:26.599147,1916133,241,681,1604,-1031,-568,-320,87,217,-105
4797,5749,0,2023-03-01T18:55:26.605997,1916140,241,681,1604,-1031,-568,-320,87,217,-105
4798,5750,0,2023-03-01T18:55:26.611111,1916145,241,681,1604,-1031,-568,-320,87,217,-105
4799,5751,0,2023-03-01T18:55:26.616946,1916151,245,682,1598,-1035,-571,-330,87,217,-105
4800,5752,0,2023-03-01T18:55:26.623476,1916157,245,682,1598,-1035,-571,-330,87,217,-105
4801,5753,0,2023-03-01T18:55:26.628437,1916163,245,682,1598,-1035,-571,-330,87,217,-105
4802,5754,0,2023-03-01T18:55:26.633539,1916168,239,683,1609,-1029,-563,-320,86,218,-98
4803,5755,0,2023-03-01T18:55:26.639831,1916174,239,683,1609,-1029,-563,-320,86,218,-98
4804,5756,0,2023-03-01T18:55:26.645367,1916180,239,683,1609,-1029,-563,-320,86,218,-98
4805,5757,0,2023-03-01T18:55:26.650811,1916185,239,683,1609,-1029,-563,-320,86,218,-98
4806,5758,0,2023-03-01T18:55:26.656867,1916191,240,683,1607,-1030,-568,-325,86,218,-98
4807,5759,0,2023-03-01T18:55:26.663803,1916198,240,683,1607,-1030,-568,-325,86,218,-98
4808,5760,0,2023-03-01T18:55:26.669141,1916203,240,683,1607,-1030,-568,-325,86,218,-98
4809,5761,0,2023-03-01T18:55:26.674347,1916209,244,682,1603,-1038,-575,-324,86,218,-98
4810,5762,0,2023-03-01T18:55:26.681052,1916216,244,682,1603,-1038,-575,-324,86,218,-98
4811,5763,0,2023-03-01T18:55:26.687238,1916221,244,682,1603,-1038,-575,-324,86,218,-98
4812,5764,0,2023-03-01T18:55:26.694614,1916227,244,682,1603,-1038,-575,-324,86,218,-98
4813,5765,0,2023-03-01T18:55:26.701422,1916235,244,682,1603,-1038,-575,-324,86,218,-98
4814,5766,0,2023-03-01T18:55:26.707250,1916241,244,682,1603,-1038,-575,-324,86,218,-98
4815,5767,0,2023-03-01T18:55:26.712879,1916247,244,682,1603,-1038,-575,-324,86,218,-98
4816,5768,0,2023-03-01T18:55:26.717678,1916252,242,684,1603,-1032,-577,-322,86,218,-98
4817,5769,0,2023-03-01T18:55:26.723361,1916258,242,684,1603,-1032,-577,-322,86,218,-98
4818,5770,0,2023-03-01T18:55:26.728406,1916263,242,684,1603,-1032,-577,-322,86,218,-98
4819,5771,0,2023-03-01T18:55:26.733505,1916268,242,684,1603,-1032,-577,-322,86,218,-98
4820,5772,0,2023-03-01T18:55:26.739423,1916273,243,685,1593,-1036,-570,-322,86,218,-98
4821,5773,0,2023-03-01T18:55:26.745684,1916280,243,685,1593,-1036,-570,-322,86,218,-98
4822,5774,0,2023-03-01T18:55:26.750529,1916284,243,685,1593,-1036,-570,-322,86,218,-98
4823,5775,0,2023-03-01T18:55:26.756201,1916291,244,681,1603,-1034,-576,-325,90,222,-100
4824,5776,0,2023-03-01T18:55:26.762218,1916297,244,681,1603,-1034,-576,-325,90,222,-100
4825,5777,0,2023-03-01T18:55:26.767494,1916302,244,681,1603,-1034,-576,-325,90,222,-100
4826,5778,0,2023-03-01T18:55:26.772314,1916307,244,681,1603,-1034,-576,-325,90,222,-100
4827,5779,0,2023-03-01T18:55:26.778119,1916312,243,683,1610,-1032,-578,-321,90,222,-100
4828,5780,0,2023-03-01T18:55:26.784729,1916319,243,683,1610,-1032,-578,-321,90,222,-100
4829,5781,0,2023-03-01T18:55:26.789777,1916324,243,683,1610,-1032,-578,-321,90,222,-100
4830,5782,0,2023-03-01T18:55:26.795706,1916331,244,683,1604,-1038,-579,-329,90,222,-100
4831,5783,0,2023-03-01T18:55:26.801106,1916336,244,683,1604,-1038,-579,-329,90,222,-100
4832,5784,0,2023-03-01T18:55:26.806205,1916341,244,683,1604,-1038,-579,-329,90,222,-100
4833,5785,0,2023-03-01T18:55:26.811198,1916346,244,683,1604,-1038,-579,-329,90,222,-100
4834,5786,0,2023-03-01T18:55:26.816503,1916351,243,682,1607,-1039,-575,-325,90,222,-100
4835,5787,0,2023-03-01T18:55:26.822436,1916356,243,682,1607,-1039,-575,-325,90,222,-100
4836,5788,0,2023-03-01T18:55:26.827658,1916362,243,682,1607,-1039,-575,-325,90,222,-100
4837,5789,0,2023-03-01T18:55:26.832355,1916367,243,682,1607,-1039,-575,-325,90,222,-100
4838,5790,0,2023-03-01T18:55:26.837907,1916372,245,681,1606,-1030,-570,-321,90,222,-100
4839,5791,0,2023-03-01T18:55:26.844157,1916379,245,681,1606,-1030,-570,-321,90,222,-100
4840,5792,0,2023-03-01T18:55:26.849547,1916384,245,681,1606,-1030,-570,-321,90,222,-100
4841,5793,0,2023-03-01T18:55:26.855220,1916390,242,683,1604,-1033,-574,-316,90,222,-100
4842,5794,0,2023-03-01T18:55:26.860974,1916395,242,683,1604,-1033,-574,-316,90,222,-100
4843,5795,0,2023-03-01T18:55:26.866091,1916400,242,683,1604,-1033,-574,-316,90,222,-100
4844,5796,0,2023-03-01T18:55:26.870728,1916405,242,683,1604,-1033,-574,-316,90,222,-100
4845,5797,0,2023-03-01T18:55:26.876510,1916410,243,682,1611,-1027,-571,-318,90,222,-100
4846,5798,0,2023-03-01T18:55:26.882658,1916417,243,682,1611,-1027,-571,-318,90,222,-100
4847,5799,0,2023-03-01T18:55:26.887364,1916422,243,682,1611,-1027,-571,-318,90,222,-100
4848,5800,0,2023-03-01T18:55:26.892194,1916427,243,682,1611,-1027,-571,-318,90,222,-100
4849,5801,0,2023-03-01T18:55:26.897769,1916432,243,682,1607,-1029,-566,-322,93,217,-95
4850,5802,0,2023-03-01T18:55:26.903567,1916438,243,682,1607,-1029,-566,-322,93,217,-95
4851,5803,0,2023-03-01T18:55:26.908476,1916443,243,682,1607,-1029,-566,-322,93,217,-95
4852,5804,0,2023-03-01T18:55:26.913682,1916448,243,682,1607,-1029,-566,-322,93,217,-95
4853,5805,0,2023-03-01T18:55:26.918844,1916453,242,683,1602,-1034,-567,-321,93,217,-95
4854,5806,0,2023-03-01T18:55:26.924306,1916459,242,683,1602,-1034,-567,-321,93,217,-95
4855,5807,0,2023-03-01T18:55:26.928899,1916464,242,683,1602,-1034,-567,-321,93,217,-95
4856,5808,0,2023-03-01T18:55:26.934820,1916469,244,685,1605,-1032,-565,-318,93,217,-95
4857,5809,0,2023-03-01T18:55:26.940345,1916475,244,685,1605,-1032,-565,-318,93,217,-95
4858,5810,0,2023-03-01T18:55:26.945862,1916480,244,685,1605,-1032,-565,-318,93,217,-95
4859,5811,0,2023-03-01T18:55:26.950796,1916485,244,685,1605,-1032,-565,-318,93,217,-95
4860,5812,0,2023-03-01T18:55:26.955840,1916490,244,683,1603,-1039,-568,-321,93,217,-95
4861,5813,0,2023-03-01T18:55:26.962038,1916495,244,683,1603,-1039,-568,-321,93,217,-95
4862,5814,0,2023-03-01T18:55:26.967208,1916502,244,683,1603,-1039,-568,-321,93,217,-95
4863,5815,0,2023-03-01T18:55:26.972273,1916507,244,683,1603,-1039,-568,-321,93,217,-95
4864,5816,0,2023-03-01T18:55:26.977923,1916512,244,681,1600,-1038,-569,-328,93,217,-95
4865,5817,0,2023-03-01T18:55:26.983121,1916518,244,681,1600,-1038,-569,-328,93,217,-95
4866,5818,0,2023-03-01T18:55:26.988761,1916523,244,681,1600,-1038,-569,-328,93,217,-95
4867,5819,0,2023-03-01T18:55:26.994197,1916528,244,686,1600,-1031,-572,-318,93,217,-95
4868,5820,0,2023-03-01T18:55:27.000344,1916534,244,686,1600,-1031,-572,-318,93,217,-95
4869,5821,0,2023-03-01T18:55:27.005632,1916540,244,686,1600,-1031,-572,-318,93,217,-95
4870,5822,0,2023-03-01T18:55:27.010814,1916546,244,686,1600,-1031,-572,-318,93,217,-95
4871,5823,0,2023-03-01T18:55:27.016678,1916551,245,684,1606,-1037,-571,-321,94,224,-106
4872,5824,0,2023-03-01T18:55:27.022710,1916557,245,684,1606,-1037,-571,-321,94,224,-106
4873,5825,0,2023-03-01T18:55:27.027770,1916562,245,684,1606,-1037,-571,-321,94,224,-106
4874,5826,0,2023-03-01T18:55:27.032574,1916567,245,684,1606,-1037,-571,-321,94,224,-106
4875,5827,0,2023-03-01T18:55:27.038087,1916572,245,683,1610,-1029,-574,-327,94,224,-106
4876,5828,0,2023-03-01T18:55:27.044036,1916578,245,683,1610,-1029,-574,-327,94,224,-106
4877,5829,0,2023-03-01T18:55:27.049101,1916583,245,683,1610,-1029,-574,-327,94,224,-106
4878,5830,0,2023-03-01T18:55:27.054079,1916589,242,681,1608,-1033,-579,-332,94,224,-106
4879,5831,0,2023-03-01T18:55:27.060174,1916595,242,681,1608,-1033,-579,-332,94,224,-106
4880,5832,0,2023-03-01T18:55:27.066125,1916600,242,681,1608,-1033,-579,-332,94,224,-106
4881,5833,0,2023-03-01T18:55:27.071424,1916606,242,681,1608,-1033,-579,-332,94,224,-106
4882,5834,0,2023-03-01T18:55:27.077153,1916611,244,683,1604,-1032,-578,-322,94,224,-106
4883,5835,0,2023-03-01T18:55:27.083316,1916617,244,683,1604,-1032,-578,-322,94,224,-106
4884,5836,0,2023-03-01T18:55:27.088180,1916622,244,683,1604,-1032,-578,-322,94,224,-106
4885,5837,0,2023-03-01T18:55:27.092891,1916627,244,683,1604,-1032,-578,-322,94,224,-106
4886,5838,0,2023-03-01T18:55:27.098532,1916633,246,682,1601,-1031,-570,-321,94,224,-106
4887,5839,0,2023-03-01T18:55:27.104879,1916640,246,682,1601,-1031,-570,-321,94,224,-106
4888,5840,0,2023-03-01T18:55:27.109984,1916644,246,682,1601,-1031,-570,-321,94,224,-106
4889,5841,0,2023-03-01T18:55:27.115594,1916650,245,682,1603,-1030,-570,-318,94,224,-106
4890,5842,0,2023-03-01T18:55:27.121354,1916655,245,682,1603,-1030,-570,-318,94,224,-106
4891,5843,0,2023-03-01T18:55:27.126459,1916660,245,682,1603,-1030,-570,-318,94,224,-106
4892,5844,0,2023-03-01T18:55:27.131995,1916666,245,682,1603,-1030,-570,-318,94,224,-106
4893,5845,0,2023-03-01T18:55:27.138015,1916673,246,683,1610,-1033,-570,-327,94,224,-106
4894,5846,0,2023-03-01T18:55:27.144430,1916679,246,683,1610,-1033,-570,-327,94,224,-106
4895,5847,0,2023-03-01T18:55:27.149595,1916684,246,683,1610,-1033,-570,-327,94,224,-106
4896,5848,0,2023-03-01T18:55:27.155401,1916690,242,683,1610,-1038,-577,-318,83,215,-103
4897,5849,0,2023-03-01T18:55:27.161421,1916696,242,683,1610,-1038,-577,-318,83,215,-103
4898,5850,0,2023-03-01T18:55:27.166321,1916701,242,683,1610,-1038,-577,-318,83,215,-103
4899,5851,0,2023-03-01T18:55:27.171408,1916705,242,683,1610,-1038,-577,-318,83,215,-103
4900,5852,0,2023-03-01T18:55:27.177340,1916711,242,684,1611,-1031,-568,-322,83,215,-103
4901,5853,0,2023-03-01T18:55:27.183179,1916718,242,684,1611,-1031,-568,-322,83,215,-103
4902,5854,0,2023-03-01T18:55:27.188520,1916723,242,684,1611,-1031,-568,-322,83,215,-103
4903,5855,0,2023-03-01T18:55:27.193640,1916728,242,684,1611,-1031,-568,-322,83,215,-103
4904,5856,0,2023-03-01T18:55:27.199386,1916734,243,685,1606,-1038,-566,-327,83,215,-103
4905,5857,0,2023-03-01T18:55:27.205424,1916739,243,685,1606,-1038,-566,-327,83,215,-103
4906,5858,0,2023-03-01T18:55:27.210916,1916745,243,685,1606,-1038,-566,-327,83,215,-103
4907,5859,0,2023-03-01T18:55:27.217125,1916751,246,681,1600,-1038,-574,-327,83,215,-103
4908,5860,0,2023-03-01T18:55:27.222964,1916758,246,681,1600,-1038,-574,-327,83,215,-103
4909,5861,0,2023-03-01T18:55:27.227704,1916763,246,681,1600,-1038,-574,-327,83,215,-103
4910,5862,0,2023-03-01T18:55:27.233176,1916768,246,681,1600,-1038,-574,-327,83,215,-103
4911,5863,0,2023-03-01T18:55:27.239813,1916773,242,684,1598,-1037,-576,-328,83,215,-103
4912,5864,0,2023-03-01T18:55:27.246550,1916781,242,684,1598,-1037,-576,-328,83,215,-103
4913,5865,0,2023-03-01T18:55:27.251646,1916786,242,684,1598,-1037,-576,-328,83,215,-103
4914,5866,0,2023-03-01T18:55:27.257254,1916791,243,682,1598,-1034,-574,-327,83,215,-103
4915,5867,0,2023-03-01T18:55:27.263146,1916797,243,682,1598,-1034,-574,-327,83,215,-103
4916,5868,0,2023-03-01T18:55:27.268252,1916803,243,682,1598,-1034,-574,-327,83,215,-103
4917,5869,0,2023-03-01T18:55:27.273425,1916808,243,682,1598,-1034,-574,-327,83,215,-103
4918,5870,0,2023-03-01T18:55:27.279059,1916814,249,686,1606,-1043,-569,-322,88,216,-98
4919,5871,0,2023-03-01T18:55:27.284494,1916819,249,686,1606,-1043,-569,-322,88,216,-98
4920,5872,0,2023-03-01T18:55:27.289665,1916824,249,686,1606,-1043,-569,-322,88,216,-98
4921,5873,0,2023-03-01T18:55:27.295655,1916830,246,685,1603,-1040,-568,-326,88,216,-98
4922,5874,0,2023-03-01T18:55:27.300956,1916835,246,685,1603,-1040,-568,-326,88,216,-98
4923,5875,0,2023-03-01T18:55:27.305559,1916840,246,685,1603,-1040,-568,-326,88,216,-98
4924,5876,0,2023-03-01T18:55:27.310277,1916845,246,685,1603,-1040,-568,-326,88,216,-98
4925,5877,0,2023-03-01T18:55:27.315315,1916850,246,682,1603,-1032,-572,-322,88,216,-98
4926,5878,0,2023-03-01T18:55:27.320929,1916855,246,682,1603,-1032,-572,-322,88,216,-98
4927,5879,0,2023-03-01T18:55:27.326823,1916861,246,682,1603,-1032,-572,-322,88,216,-98
4928,5880,0,2023-03-01T18:55:27.332147,1916866,246,682,1603,-1032,-572,-322,88,216,-98
4929,5881,0,2023-03-01T18:55:27.337857,1916872,243,684,1601,-1021,-572,-322,88,216,-98
4930,5882,0,2023-03-01T18:55:27.343986,1916878,243,684,1601,-1021,-572,-322,88,216,-98
4931,5883,0,2023-03-01T18:55:27.349133,1916883,243,684,1601,-1021,-572,-322,88,216,-98
4932,5884,0,2023-03-01T18:55:27.354192,1916889,243,684,1595,-1027,-570,-326,88,216,-98
4933,5885,0,2023-03-01T18:55:27.359892,1916895,243,684,1595,-1027,-570,-326,88,216,-98
4934,5886,0,2023-03-01T18:55:27.364606,1916899,243,684,1595,-1027,-570,-326,88,216,-98
4935,5887,0,2023-03-01T18:55:27.369616,1916904,243,684,1595,-1027,-570,-326,88,216,-98
4936,5888,0,2023-03-01T18:55:27.374850,1916909,242,684,1594,-1039,-569,-315,88,216,-98
4937,5889,0,2023-03-01T18:55:27.380668,1916915,242,684,1594,-1039,-569,-315,88,216,-98
4938,5890,0,2023-03-01T18:55:27.386674,1916921,242,684,1594,-1039,-569,-315,88,216,-98
4939,5891,0,2023-03-01T18:55:27.391516,1916926,242,684,1594,-1039,-569,-315,88,216,-98
4940,5892,0,2023-03-01T18:55:27.397364,1916932,241,681,1601,-1038,-573,-321,88,216,-98
4941,5893,0,2023-03-01T18:55:27.403838,1916938,241,681,1601,-1038,-573,-321,88,216,-98
4942,5894,0,2023-03-01T18:55:27.408892,1916943,241,681,1601,-1038,-573,-321,88,216,-98
4943,5895,0,2023-03-01T18:55:27.413644,1916948,241,681,1601,-1038,-573,-321,88,216,-98
4944,5896,0,2023-03-01T18:55:27.419441,1916954,246,685,1602,-1029,-571,-319,88,210,-90
4945,5897,0,2023-03-01T18:55:27.425121,1916959,246,685,1602,-1029,-571,-319,88,210,-90
4946,5898,0,2023-03-01T18:55:27.429975,1916964,246,685,1602,-1029,-571,-319,88,210,-90
4947,5899,0,2023-03-01T18:55:27.436213,1916971,241,682,1607,-1036,-571,-320,88,210,-90
4948,5900,0,2023-03-01T18:55:27.442451,1916977,241,682,1607,-1036,-571,-320,88,210,-90
4949,5901,0,2023-03-01T18:55:27.447819,1916982,241,682,1607,-1036,-571,-320,88,210,-90
4950,5902,0,2023-03-01T18:55:27.453280,1916987,241,682,1607,-1036,-571,-320,88,210,-90
4951,5903,0,2023-03-01T18:55:27.459025,1916993,245,685,1606,-1039,-570,-317,88,210,-90
4952,5904,0,2023-03-01T18:55:27.465574,1917000,245,685,1606,-1039,-570,-317,88,210,-90
4953,5905,0,2023-03-01T18:55:27.470809,1917005,245,685,1606,-1039,-570,-317,88,210,-90
