,Unnamed: 0,imu,server_time,arduino_time,ax,ay,az,gx,gy,gz,mx,my,mz
35838,6790,0,2023-03-01T18:58:19.804931,2089349,1386,1791,-818,-1038,-572,-316,-32,114,-256
35839,6791,0,2023-03-01T18:58:19.810616,2089355,1385,1790,-817,-1032,-572,-325,-32,114,-256
35840,6792,0,2023-03-01T18:58:19.816213,2089360,1385,1790,-817,-1032,-572,-325,-32,114,-256
35841,6793,0,2023-03-01T18:58:19.820933,2089365,1385,1790,-817,-1032,-572,-325,-32,114,-256
35842,6794,0,2023-03-01T18:58:19.825626,2089370,1385,1790,-817,-1032,-572,-325,-32,114,-256
35843,6795,0,2023-03-01T18:58:19.831097,2089375,1385,1789,-821,-1035,-574,-325,-32,114,-256
35844,6796,0,2023-03-01T18:58:19.837516,2089381,1385,1789,-821,-1035,-574,-325,-32,114,-256
35845,6797,0,2023-03-01T18:58:19.843061,2089387,1385,1789,-821,-1035,-574,-325,-32,114,-256
35846,6798,0,2023-03-01T18:58:19.848518,2089393,1385,1789,-821,-1035,-574,-325,-32,114,-256
35847,6799,0,2023-03-01T18:58:19.853052,2089397,1384,1790,-818,-1044,-568,-307,-32,114,-256
35848,6800,0,2023-03-01T18:58:19.858938,2089403,1384,1790,-818,-1044,-568,-307,-32,114,-256
35849,6801,0,2023-03-01T18:58:19.864170,2089408,1384,1790,-818,-1044,-568,-307,-32,114,-256
35850,6802,0,2023-03-01T18:58:19.870762,2089414,1390,1790,-818,-1036,-565,-308,-32,114,-256
35851,6803,0,2023-03-01T18:58:19.878279,2089422,1390,1790,-818,-1036,-565,-308,-32,114,-256
35852,6804,0,2023-03-01T18:58:19.882902,2089427,1390,1790,-818,-1036,-565,-308,-32,114,-256
35853,6805,0,2023-03-01T18:58:19.887943,2089432,1390,1790,-818,-1036,-565,-308,-32,114,-256
35854,6806,0,2023-03-01T18:58:19.892459,2089437,1388,1787,-819,-1039,-567,-313,-33,111,-259
35855,6807,0,2023-03-01T18:58:19.898065,2089442,1388,1787,-819,-1039,-567,-313,-33,111,-259
35856,6808,0,2023-03-01T18:58:19.904172,2089447,1388,1787,-819,-1039,-567,-313,-33,111,-259
35857,6809,0,2023-03-01T18:58:19.909654,2089454,1388,1787,-819,-1039,-567,-313,-33,111,-259
35858,6810,0,2023-03-01T18:58:19.914751,2089458,1389,1786,-815,-1030,-566,-307,-33,111,-259
35859,6811,0,2023-03-01T18:58:19.919809,2089464,1389,1786,-815,-1030,-566,-307,-33,111,-259
35860,6812,0,2023-03-01T18:58:19.924538,2089468,1389,1786,-815,-1030,-566,-307,-33,111,-259
35861,6813,0,2023-03-01T18:58:19.929977,2089474,1389,1788,-822,-1035,-571,-312,-33,111,-259
35862,6814,0,2023-03-01T18:58:19.935704,2089480,1389,1788,-822,-1035,-571,-312,-33,111,-259
35863,6815,0,2023-03-01T18:58:19.941019,2089485,1389,1788,-822,-1035,-571,-312,-33,111,-259
35864,6816,0,2023-03-01T18:58:19.946132,2089490,1389,1788,-822,-1035,-571,-312,-33,111,-259
35865,6817,0,2023-03-01T18:58:19.951214,2089495,1388,1788,-820,-1047,-571,-321,-33,111,-259
35866,6818,0,2023-03-01T18:58:19.956860,2089500,1388,1788,-820,-1047,-571,-321,-33,111,-259
35867,6819,0,2023-03-01T18:58:19.961840,2089506,1388,1788,-820,-1047,-571,-321,-33,111,-259
35868,6820,0,2023-03-01T18:58:19.966701,2089510,1388,1788,-820,-1047,-571,-321,-33,111,-259
35869,6821,0,2023-03-01T18:58:19.972126,2089516,1386,1788,-817,-1036,-572,-325,-33,111,-259
35870,6822,0,2023-03-01T18:58:19.979174,2089523,1386,1788,-817,-1036,-572,-325,-33,111,-259
35871,6823,0,2023-03-01T18:58:19.984376,2089528,1386,1788,-817,-1036,-572,-325,-33,111,-259
35872,6824,0,2023-03-01T18:58:19.989907,2089534,1386,1793,-821,-1042,-569,-320,-33,111,-259
35873,6825,0,2023-03-01T18:58:19.996021,2089539,1386,1793,-821,-1042,-569,-320,-33,111,-259
35874,6826,0,2023-03-01T18:58:20.001032,2089545,1386,1793,-821,-1042,-569,-320,-33,111,-259
35875,6827,0,2023-03-01T18:58:20.006019,2089550,1386,1793,-821,-1042,-569,-320,-33,111,-259
35876,6828,0,2023-03-01T18:58:20.011270,2089554,1386,1790,-818,-1047,-570,-321,-33,111,-259
35877,6829,0,2023-03-01T18:58:20.016926,2089561,1386,1790,-818,-1047,-570,-321,-33,111,-259
35878,6830,0,2023-03-01T18:58:20.021983,2089566,1386,1790,-818,-1047,-570,-321,-33,111,-259
35879,6831,0,2023-03-01T18:58:20.027068,2089571,1386,1790,-818,-1047,-570,-321,-33,111,-259
35880,6832,0,2023-03-01T18:58:20.032652,2089577,1386,1788,-813,-1039,-567,-314,-22,110,-262
35881,6833,0,2023-03-01T18:58:20.039070,2089583,1386,1788,-813,-1039,-567,-314,-22,110,-262
35882,6834,0,2023-03-01T18:58:20.044104,2089588,1386,1788,-813,-1039,-567,-314,-22,110,-262
35883,6835,0,2023-03-01T18:58:20.049979,2089593,1386,1788,-813,-1039,-567,-314,-22,110,-262
35884,6836,0,2023-03-01T18:58:20.055729,2089600,1387,1790,-819,-1033,-571,-317,-22,110,-262
35885,6837,0,2023-03-01T18:58:20.061823,2089606,1387,1790,-819,-1033,-571,-317,-22,110,-262
35886,6838,0,2023-03-01T18:58:20.066768,2089611,1387,1790,-819,-1033,-571,-317,-22,110,-262
35887,6839,0,2023-03-01T18:58:20.071518,2089616,1387,1789,-819,-1033,-568,-319,-22,110,-262
35888,6840,0,2023-03-01T18:58:20.077787,2089621,1387,1789,-819,-1033,-568,-319,-22,110,-262
35889,6841,0,2023-03-01T18:58:20.082768,2089627,1387,1789,-819,-1033,-568,-319,-22,110,-262
35890,6842,0,2023-03-01T18:58:20.088308,2089632,1387,1789,-819,-1033,-568,-319,-22,110,-262
35891,6843,0,2023-03-01T18:58:20.094090,2089637,1387,1789,-819,-1037,-567,-314,-22,110,-262
35892,6844,0,2023-03-01T18:58:20.101449,2089645,1387,1789,-819,-1037,-567,-314,-22,110,-262
35893,6845,0,2023-03-01T18:58:20.106470,2089651,1387,1789,-819,-1037,-567,-314,-22,110,-262
35894,6846,0,2023-03-01T18:58:20.112303,2089656,1385,1791,-819,-1036,-572,-321,-22,110,-262
35895,6847,0,2023-03-01T18:58:20.118963,2089663,1385,1791,-819,-1036,-572,-321,-22,110,-262
35896,6848,0,2023-03-01T18:58:20.123706,2089668,1385,1791,-819,-1036,-572,-321,-22,110,-262
35897,6849,0,2023-03-01T18:58:20.128290,2089672,1385,1791,-819,-1036,-572,-321,-22,110,-262
35898,6850,0,2023-03-01T18:58:20.133280,2089677,1384,1792,-817,-1037,-567,-315,-22,110,-262
35899,6851,0,2023-03-01T18:58:20.139403,2089683,1384,1792,-817,-1037,-567,-315,-22,110,-262
35900,6852,0,2023-03-01T18:58:20.144403,2089689,1384,1792,-817,-1037,-567,-315,-22,110,-262
35901,6853,0,2023-03-01T18:58:20.149302,2089694,1384,1792,-817,-1037,-567,-315,-22,110,-262
35902,6854,0,2023-03-01T18:58:20.154311,2089698,1384,1787,-814,-1048,-570,-320,-31,117,-257
35903,6855,0,2023-03-01T18:58:20.159871,2089704,1384,1787,-814,-1048,-570,-320,-31,117,-257
35904,6856,0,2023-03-01T18:58:20.164610,2089709,1384,1787,-814,-1048,-570,-320,-31,117,-257
35905,6857,0,2023-03-01T18:58:20.170530,2089714,1385,1789,-816,-1045,-571,-320,-31,117,-257
35906,6858,0,2023-03-01T18:58:20.177038,2089720,1385,1789,-816,-1045,-571,-320,-31,117,-257
35907,6859,0,2023-03-01T18:58:20.182359,2089726,1385,1789,-816,-1045,-571,-320,-31,117,-257
35908,6860,0,2023-03-01T18:58:20.187507,2089732,1385,1789,-816,-1045,-571,-320,-31,117,-257
35909,6861,0,2023-03-01T18:58:20.193329,2089737,1390,1788,-817,-1040,-566,-324,-31,117,-257
35910,6862,0,2023-03-01T18:58:20.199601,2089743,1390,1788,-817,-1040,-566,-324,-31,117,-257
35911,6863,0,2023-03-01T18:58:20.204540,2089748,1390,1788,-817,-1040,-566,-324,-31,117,-257
35912,6864,0,2023-03-01T18:58:20.211232,2089755,1388,1788,-815,-1035,-569,-324,-31,117,-257
35913,6865,0,2023-03-01T18:58:20.217109,2089761,1388,1788,-815,-1035,-569,-324,-31,117,-257
35914,6866,0,2023-03-01T18:58:20.222576,2089766,1388,1788,-815,-1035,-569,-324,-31,117,-257
35915,6867,0,2023-03-01T18:58:20.227965,2089772,1388,1788,-815,-1035,-569,-324,-31,117,-257
35916,6868,0,2023-03-01T18:58:20.233902,2089778,1387,1786,-818,-1035,-573,-332,-31,117,-257
35917,6869,0,2023-03-01T18:58:20.239579,2089784,1387,1786,-818,-1035,-573,-332,-31,117,-257
35918,6870,0,2023-03-01T18:58:20.244203,2089788,1387,1786,-818,-1035,-573,-332,-31,117,-257
35919,6871,0,2023-03-01T18:58:20.249832,2089794,1387,1786,-818,-1035,-573,-332,-31,117,-257
35920,6872,0,2023-03-01T18:58:20.255277,2089799,1388,1790,-820,-1039,-571,-325,-31,117,-257
35921,6873,0,2023-03-01T18:58:20.260910,2089805,1388,1790,-820,-1039,-571,-325,-31,117,-257
35922,6874,0,2023-03-01T18:58:20.265666,2089809,1388,1790,-820,-1039,-571,-325,-31,117,-257
35923,6875,0,2023-03-01T18:58:20.270611,2089815,1386,1787,-823,-1042,-572,-325,-31,117,-257
35924,6876,0,2023-03-01T18:58:20.276187,2089821,1386,1787,-823,-1042,-572,-325,-31,117,-257
35925,6877,0,2023-03-01T18:58:20.281300,2089825,1386,1787,-823,-1042,-572,-325,-31,117,-257
35926,6878,0,2023-03-01T18:58:20.285967,2089830,1386,1787,-823,-1042,-572,-325,-31,117,-257
35927,6879,0,2023-03-01T18:58:20.290783,2089835,1384,1791,-812,-1041,-579,-328,-31,109,-267
35928,6880,0,2023-03-01T18:58:20.296595,2089840,1384,1791,-812,-1041,-579,-328,-31,109,-267
35929,6881,0,2023-03-01T18:58:20.301559,2089845,1384,1791,-812,-1041,-579,-328,-31,109,-267
35930,6882,0,2023-03-01T18:58:20.306832,2089850,1384,1791,-812,-1041,-579,-328,-31,109,-267
35931,6883,0,2023-03-01T18:58:20.313713,2089857,1386,1788,-819,-1042,-565,-320,-31,109,-267
35932,6884,0,2023-03-01T18:58:20.320878,2089865,1386,1788,-819,-1042,-565,-320,-31,109,-267
35933,6885,0,2023-03-01T18:58:20.325735,2089870,1386,1788,-819,-1042,-565,-320,-31,109,-267
35934,6886,0,2023-03-01T18:58:20.331697,2089876,1388,1788,-816,-1043,-570,-324,-31,109,-267
35935,6887,0,2023-03-01T18:58:20.338227,2089882,1388,1788,-816,-1043,-570,-324,-31,109,-267
35936,6888,0,2023-03-01T18:58:20.343798,2089887,1388,1788,-816,-1043,-570,-324,-31,109,-267
35937,6889,0,2023-03-01T18:58:20.349422,2089893,1388,1788,-816,-1043,-570,-324,-31,109,-267
35938,6890,0,2023-03-01T18:58:20.354912,2089899,1387,1789,-822,-1040,-576,-327,-31,109,-267
35939,6891,0,2023-03-01T18:58:20.361144,2089905,1387,1789,-822,-1040,-576,-327,-31,109,-267
35940,6892,0,2023-03-01T18:58:20.366588,2089910,1387,1789,-822,-1040,-576,-327,-31,109,-267
35941,6893,0,2023-03-01T18:58:20.372695,2089917,1386,1788,-820,-1032,-572,-324,-31,109,-267
35942,6894,0,2023-03-01T18:58:20.379771,2089923,1386,1788,-820,-1032,-572,-324,-31,109,-267
35943,6895,0,2023-03-01T18:58:20.384956,2089928,1386,1788,-820,-1032,-572,-324,-31,109,-267
35944,6896,0,2023-03-01T18:58:20.391259,2089935,1387,1789,-822,-1040,-574,-324,-31,109,-267
35945,6897,0,2023-03-01T18:58:20.397927,2089942,1387,1789,-822,-1040,-574,-324,-31,109,-267
35946,6898,0,2023-03-01T18:58:20.403355,2089947,1387,1789,-822,-1040,-574,-324,-31,109,-267
35947,6899,0,2023-03-01T18:58:20.409215,2089953,1387,1789,-822,-1040,-574,-324,-31,109,-267
35948,6900,0,2023-03-01T18:58:20.415173,2089959,1385,1790,-812,-1041,-570,-322,-28,110,-266
35949,6901,0,2023-03-01T18:58:20.421044,2089965,1385,1790,-812,-1041,-570,-322,-28,110,-266
35950,6902,0,2023-03-01T18:58:20.426402,2089970,1385,1790,-812,-1041,-570,-322,-28,110,-266
35951,6903,0,2023-03-01T18:58:20.431478,2089975,1389,1792,-814,-1041,-572,-330,-28,110,-266
35952,6904,0,2023-03-01T18:58:20.437971,2089981,1389,1792,-814,-1041,-572,-330,-28,110,-266
35953,6905,0,2023-03-01T18:58:20.442982,2089987,1389,1792,-814,-1041,-572,-330,-28,110,-266
35954,6906,0,2023-03-01T18:58:20.448943,2089993,1389,1792,-814,-1041,-572,-330,-28,110,-266
35955,6907,0,2023-03-01T18:58:20.453947,2089998,1384,1789,-814,-1043,-575,-323,-28,110,-266
35956,6908,0,2023-03-01T18:58:20.460268,2090004,1384,1789,-814,-1043,-575,-323,-28,110,-266
35957,6909,0,2023-03-01T18:58:20.465482,2090009,1384,1789,-814,-1043,-575,-323,-28,110,-266
35958,6910,0,2023-03-01T18:58:20.471095,2090015,1391,1787,-814,-1037,-567,-321,-28,110,-266
35959,6911,0,2023-03-01T18:58:20.476727,2090020,1391,1787,-814,-1037,-567,-321,-28,110,-266
35960,6912,0,2023-03-01T18:58:20.481549,2090025,1391,1787,-814,-1037,-567,-321,-28,110,-266
35961,6913,0,2023-03-01T18:58:20.486646,2090031,1391,1787,-814,-1037,-567,-321,-28,110,-266
35962,6914,0,2023-03-01T18:58:20.492186,2090036,1385,1790,-820,-1040,-566,-319,-28,110,-266
35963,6915,0,2023-03-01T18:58:20.498797,2090043,1385,1790,-820,-1040,-566,-319,-28,110,-266
35964,6916,0,2023-03-01T18:58:20.504024,2090048,1385,1790,-820,-1040,-566,-319,-28,110,-266
35965,6917,0,2023-03-01T18:58:20.509609,2090053,1385,1790,-820,-1040,-566,-319,-28,110,-266
35966,6918,0,2023-03-01T18:58:20.514431,2090058,1387,1788,-813,-1054,-574,-324,-28,110,-266
35967,6919,0,2023-03-01T18:58:20.520336,2090064,1387,1788,-813,-1054,-574,-324,-28,110,-266
35968,6920,0,2023-03-01T18:58:20.525484,2090070,1387,1788,-813,-1054,-574,-324,-28,110,-266
35969,6921,0,2023-03-01T18:58:20.531303,2090076,1384,1786,-819,-1047,-572,-314,-28,110,-266
35970,6922,0,2023-03-01T18:58:20.537617,2090082,1384,1786,-819,-1047,-572,-314,-28,110,-266
35971,6923,0,2023-03-01T18:58:20.542984,2090087,1384,1786,-819,-1047,-572,-314,-28,110,-266
35972,6924,0,2023-03-01T18:58:20.548744,2090093,1384,1786,-819,-1047,-572,-314,-28,110,-266
35973,6925,0,2023-03-01T18:58:20.554164,2090097,1385,1790,-819,-1037,-571,-317,-29,113,-261
35974,6926,0,2023-03-01T18:58:20.560515,2090104,1385,1790,-819,-1037,-571,-317,-29,113,-261
35975,6927,0,2023-03-01T18:58:20.566039,2090110,1385,1790,-819,-1037,-571,-317,-29,113,-261
35976,6928,0,2023-03-01T18:58:20.571741,2090116,1389,1788,-819,-1033,-578,-315,-29,113,-261
35977,6929,0,2023-03-01T18:58:20.578468,2090122,1389,1788,-819,-1033,-578,-315,-29,113,-261
35978,6930,0,2023-03-01T18:58:20.584440,2090128,1389,1788,-819,-1033,-578,-315,-29,113,-261
35979,6931,0,2023-03-01T18:58:20.590105,2090134,1389,1788,-819,-1033,-578,-315,-29,113,-261
35980,6932,0,2023-03-01T18:58:20.596276,2090140,1386,1786,-817,-1037,-568,-321,-29,113,-261
35981,6933,0,2023-03-01T18:58:20.602681,2090146,1386,1786,-817,-1037,-568,-321,-29,113,-261
35982,6934,0,2023-03-01T18:58:20.607821,2090151,1386,1786,-817,-1037,-568,-321,-29,113,-261
35983,6935,0,2023-03-01T18:58:20.614101,2090158,1387,1786,-820,-1038,-568,-324,-29,113,-261
35984,6936,0,2023-03-01T18:58:20.620388,2090164,1387,1786,-820,-1038,-568,-324,-29,113,-261
35985,6937,0,2023-03-01T18:58:20.625535,2090170,1387,1786,-820,-1038,-568,-324,-29,113,-261
35986,6938,0,2023-03-01T18:58:20.632027,2090175,1386,1786,-819,-1044,-567,-323,-29,113,-261
35987,6939,0,2023-03-01T18:58:20.639741,2090183,1386,1786,-819,-1044,-567,-323,-29,113,-261
35988,6940,0,2023-03-01T18:58:20.645477,2090188,1386,1786,-819,-1044,-567,-323,-29,113,-261
35989,6941,0,2023-03-01T18:58:20.651251,2090195,1387,1788,-816,-1037,-569,-324,-29,113,-261
35990,6942,0,2023-03-01T18:58:20.657042,2090201,1387,1788,-816,-1037,-569,-324,-29,113,-261
35991,6943,0,2023-03-01T18:58:20.662734,2090207,1387,1788,-816,-1037,-569,-324,-29,113,-261
35992,6944,0,2023-03-01T18:58:20.668000,2090212,1387,1788,-816,-1037,-569,-324,-29,113,-261
35993,6945,0,2023-03-01T18:58:20.673068,2090217,1385,1788,-815,-1039,-578,-317,-30,112,-264
35994,6946,0,2023-03-01T18:58:20.678706,2090222,1385,1788,-815,-1039,-578,-317,-30,112,-264
35995,6947,0,2023-03-01T18:58:20.683573,2090227,1385,1788,-815,-1039,-578,-317,-30,112,-264
35996,6948,0,2023-03-01T18:58:20.688678,2090232,1385,1788,-815,-1039,-578,-317,-30,112,-264
35997,6949,0,2023-03-01T18:58:20.694331,2090237,1387,1790,-818,-1036,-572,-325,-30,112,-264
35998,6950,0,2023-03-01T18:58:20.700753,2090245,1387,1790,-818,-1036,-572,-325,-30,112,-264
35999,6951,0,2023-03-01T18:58:20.706916,2090250,1387,1790,-818,-1036,-572,-325,-30,112,-264
36000,6952,0,2023-03-01T18:58:20.712966,2090257,1387,1790,-822,-1044,-572,-323,-30,112,-264
36001,6953,0,2023-03-01T18:58:20.718956,2090263,1387,1790,-822,-1044,-572,-323,-30,112,-264
36002,6954,0,2023-03-01T18:58:20.724218,2090268,1387,1790,-822,-1044,-572,-323,-30,112,-264
36003,6955,0,2023-03-01T18:58:20.729946,2090274,1387,1790,-822,-1044,-572,-323,-30,112,-264
36004,6956,0,2023-03-01T18:58:20.734740,2090278,1388,1790,-811,-1050,-567,-329,-30,112,-264
36005,6957,0,2023-03-01T18:58:20.740336,2090285,1388,1790,-811,-1050,-567,-329,-30,112,-264
36006,6958,0,2023-03-01T18:58:20.745333,2090289,1388,1790,-811,-1050,-567,-329,-30,112,-264
36007,6959,0,2023-03-01T18:58:20.750970,2090295,1384,1791,-819,-1046,-568,-320,-30,112,-264
36008,6960,0,2023-03-01T18:58:20.757018,2090301,1384,1791,-819,-1046,-568,-320,-30,112,-264
36009,6961,0,2023-03-01T18:58:20.761945,2090306,1384,1791,-819,-1046,-568,-320,-30,112,-264
36010,6962,0,2023-03-01T18:58:20.766468,2090310,1384,1791,-819,-1046,-568,-320,-30,112,-264
36011,6963,0,2023-03-01T18:58:20.771910,2090316,1386,1787,-819,-1033,-569,-329,-30,112,-264
36012,6964,0,2023-03-01T18:58:20.777103,2090321,1386,1787,-819,-1033,-569,-329,-30,112,-264
36013,6965,0,2023-03-01T18:58:20.782428,2090327,1386,1787,-819,-1033,-569,-329,-30,112,-264
36014,6966,0,2023-03-01T18:58:20.787583,2090332,1386,1787,-819,-1033,-569,-329,-30,112,-264
36015,6967,0,2023-03-01T18:58:20.793226,2090337,1386,1790,-822,-1032,-575,-325,-38,110,-258
36016,6968,0,2023-03-01T18:58:20.799915,2090344,1386,1790,-822,-1032,-575,-325,-38,110,-258
36017,6969,0,2023-03-01T18:58:20.805469,2090349,1386,1790,-822,-1032,-575,-325,-38,110,-258
36018,6970,0,2023-03-01T18:58:20.810509,2090354,1386,1790,-822,-1032,-575,-325,-38,110,-258
36019,6971,0,2023-03-01T18:58:20.815455,2090359,1390,1790,-817,-1040,-569,-318,-38,110,-258
36020,6972,0,2023-03-01T18:58:20.821180,2090365,1390,1790,-817,-1040,-569,-318,-38,110,-258
36021,6973,0,2023-03-01T18:58:20.826416,2090371,1390,1790,-817,-1040,-569,-318,-38,110,-258
36022,6974,0,2023-03-01T18:58:20.831823,2090376,1385,1787,-811,-1042,-575,-322,-38,110,-258
36023,6975,0,2023-03-01T18:58:20.837862,2090382,1385,1787,-811,-1042,-575,-322,-38,110,-258
36024,6976,0,2023-03-01T18:58:20.842769,2090387,1385,1787,-811,-1042,-575,-322,-38,110,-258
36025,6977,0,2023-03-01T18:58:20.848312,2090392,1385,1787,-811,-1042,-575,-322,-38,110,-258
36026,6978,0,2023-03-01T18:58:20.853473,2090397,1387,1790,-818,-1048,-572,-326,-38,110,-258
36027,6979,0,2023-03-01T18:58:20.859494,2090403,1387,1790,-818,-1048,-572,-326,-38,110,-258
36028,6980,0,2023-03-01T18:58:20.864877,2090408,1387,1790,-818,-1048,-572,-326,-38,110,-258
36029,6981,0,2023-03-01T18:58:20.870865,2090415,1387,1790,-818,-1048,-572,-326,-38,110,-258
36030,6982,0,2023-03-01T18:58:20.876447,2090420,1384,1789,-821,-1033,-571,-322,-38,110,-258
36031,6983,0,2023-03-01T18:58:20.881785,2090426,1384,1789,-821,-1033,-571,-322,-38,110,-258
36032,6984,0,2023-03-01T18:58:20.886720,2090431,1384,1789,-821,-1033,-571,-322,-38,110,-258
36033,6985,0,2023-03-01T18:58:20.892158,2090436,1386,1787,-818,-1036,-571,-315,-38,110,-258
36034,6986,0,2023-03-01T18:58:20.898141,2090442,1386,1787,-818,-1036,-571,-315,-38,110,-258
36035,6987,0,2023-03-01T18:58:20.903139,2090447,1386,1787,-818,-1036,-571,-315,-38,110,-258
36036,6988,0,2023-03-01T18:58:20.908640,2090452,1386,1787,-818,-1036,-571,-315,-38,110,-258
36037,6989,0,2023-03-01T18:58:20.913448,2090458,1387,1787,-820,-1034,-577,-315,-38,110,-258
36038,6990,0,2023-03-01T18:58:20.919418,2090464,1387,1787,-820,-1034,-577,-315,-38,110,-258
36039,6991,0,2023-03-01T18:58:20.924280,2090468,1387,1787,-820,-1034,-577,-315,-38,110,-258
36040,6992,0,2023-03-01T18:58:20.929774,2090474,1387,1787,-820,-1034,-577,-315,-38,110,-258
36041,6993,0,2023-03-01T18:58:20.935470,2090479,1388,1791,-815,-1039,-570,-326,-29,111,-255
36042,6994,0,2023-03-01T18:58:20.941778,2090485,1388,1791,-815,-1039,-570,-326,-29,111,-255
36043,6995,0,2023-03-01T18:58:20.946538,2090490,1388,1791,-815,-1039,-570,-326,-29,111,-255
36044,6996,0,2023-03-01T18:58:20.952058,2090497,1386,1790,-816,-1037,-575,-319,-29,111,-255
36045,6997,0,2023-03-01T18:58:20.959219,2090503,1386,1790,-816,-1037,-575,-319,-29,111,-255
36046,6998,0,2023-03-01T18:58:20.964731,2090508,1386,1790,-816,-1037,-575,-319,-29,111,-255
36047,6999,0,2023-03-01T18:58:20.970503,2090514,1386,1790,-816,-1037,-575,-319,-29,111,-255
36048,7000,0,2023-03-01T18:58:20.975069,2090519,1388,1785,-820,-1037,-571,-315,-29,111,-255
36049,7001,0,2023-03-01T18:58:20.980728,2090525,1388,1785,-820,-1037,-571,-315,-29,111,-255
36050,7002,0,2023-03-01T18:58:20.985324,2090529,1388,1785,-820,-1037,-571,-315,-29,111,-255
36051,7003,0,2023-03-01T18:58:20.990583,2090534,1388,1785,-820,-1037,-571,-315,-29,111,-255
36052,7004,0,2023-03-01T18:58:20.995563,2090540,1385,1787,-820,-1035,-569,-322,-29,111,-255
36053,7005,0,2023-03-01T18:58:21.001255,2090545,1385,1787,-820,-1035,-569,-322,-29,111,-255
36054,7006,0,2023-03-01T18:58:21.006431,2090551,1385,1787,-820,-1035,-569,-322,-29,111,-255
36055,7007,0,2023-03-01T18:58:21.011711,2090556,1388,1787,-816,-1040,-566,-319,-29,111,-255
36056,7008,0,2023-03-01T18:58:21.017886,2090562,1388,1787,-816,-1040,-566,-319,-29,111,-255
36057,7009,0,2023-03-01T18:58:21.022909,2090567,1388,1787,-816,-1040,-566,-319,-29,111,-255
36058,7010,0,2023-03-01T18:58:21.028719,2090572,1388,1787,-816,-1040,-566,-319,-29,111,-255
36059,7011,0,2023-03-01T18:58:21.033629,2090577,1386,1789,-818,-1040,-572,-321,-29,111,-255
36060,7012,0,2023-03-01T18:58:21.039719,2090584,1386,1789,-818,-1040,-572,-321,-29,111,-255
36061,7013,0,2023-03-01T18:58:21.045049,2090589,1386,1789,-818,-1040,-572,-321,-29,111,-255
36062,7014,0,2023-03-01T18:58:21.050124,2090594,1386,1789,-818,-1040,-572,-321,-29,111,-255
36063,7015,0,2023-03-01T18:58:21.055296,2090599,1386,1790,-820,-1040,-573,-325,-34,114,-260
36064,7016,0,2023-03-01T18:58:21.060651,2090605,1386,1790,-820,-1040,-573,-325,-34,114,-260
36065,7017,0,2023-03-01T18:58:21.065754,2090609,1386,1790,-820,-1040,-573,-325,-34,114,-260
36066,7018,0,2023-03-01T18:58:21.071337,2090615,1386,1790,-820,-1040,-573,-325,-34,114,-260
36067,7019,0,2023-03-01T18:58:21.077207,2090620,1388,1790,-814,-1031,-577,-319,-34,114,-260
36068,7020,0,2023-03-01T18:58:21.083220,2090627,1388,1790,-814,-1031,-577,-319,-34,114,-260
36069,7021,0,2023-03-01T18:58:21.088764,2090633,1388,1790,-814,-1031,-577,-319,-34,114,-260
36070,7022,0,2023-03-01T18:58:21.094481,2090638,1387,1790,-818,-1033,-583,-319,-34,114,-260
36071,7023,0,2023-03-01T18:58:21.101485,2090645,1387,1790,-818,-1033,-583,-319,-34,114,-260
36072,7024,0,2023-03-01T18:58:21.106697,2090650,1387,1790,-818,-1033,-583,-319,-34,114,-260
36073,7025,0,2023-03-01T18:58:21.112596,2090656,1384,1789,-815,-1036,-573,-322,-34,114,-260
36074,7026,0,2023-03-01T18:58:21.118683,2090662,1384,1789,-815,-1036,-573,-322,-34,114,-260
36075,7027,0,2023-03-01T18:58:21.123577,2090668,1384,1789,-815,-1036,-573,-322,-34,114,-260
36076,7028,0,2023-03-01T18:58:21.129470,2090674,1384,1789,-815,-1036,-573,-322,-34,114,-260
36077,7029,0,2023-03-01T18:58:21.134440,2090679,1383,1790,-822,-1042,-575,-323,-34,114,-260
36078,7030,0,2023-03-01T18:58:21.140530,2090685,1383,1790,-822,-1042,-575,-323,-34,114,-260
36079,7031,0,2023-03-01T18:58:21.145617,2090690,1383,1790,-822,-1042,-575,-323,-34,114,-260
36080,7032,0,2023-03-01T18:58:21.151149,2090695,1383,1790,-822,-1042,-575,-323,-34,114,-260
36081,7033,0,2023-03-01T18:58:21.156367,2090700,1384,1790,-815,-1050,-572,-314,-34,114,-260
36082,7034,0,2023-03-01T18:58:21.162590,2090706,1384,1790,-815,-1050,-572,-314,-34,114,-260
36083,7035,0,2023-03-01T18:58:21.167368,2090712,1384,1790,-815,-1050,-572,-314,-34,114,-260
36084,7036,0,2023-03-01T18:58:21.173097,2090717,1384,1790,-823,-1039,-568,-323,-34,114,-260
36085,7037,0,2023-03-01T18:58:21.179676,2090724,1384,1790,-823,-1039,-568,-323,-34,114,-260
36086,7038,0,2023-03-01T18:58:21.184785,2090729,1384,1790,-823,-1039,-568,-323,-34,114,-260
36087,7039,0,2023-03-01T18:58:21.190614,2090734,1384,1790,-823,-1039,-568,-323,-34,114,-260
36088,7040,0,2023-03-01T18:58:21.196641,2090740,1385,1787,-818,-1029,-571,-320,-30,112,-262
36089,7041,0,2023-03-01T18:58:21.202790,2090746,1385,1787,-818,-1029,-571,-320,-30,112,-262
36090,7042,0,2023-03-01T18:58:21.208083,2090752,1385,1787,-818,-1029,-571,-320,-30,112,-262
36091,7043,0,2023-03-01T18:58:21.213884,2090758,1387,1789,-820,-1042,-580,-315,-30,112,-262
36092,7044,0,2023-03-01T18:58:21.219812,2090764,1387,1789,-820,-1042,-580,-315,-30,112,-262
36093,7045,0,2023-03-01T18:58:21.224920,2090769,1387,1789,-820,-1042,-580,-315,-30,112,-262
36094,7046,0,2023-03-01T18:58:21.230306,2090774,1387,1789,-820,-1042,-580,-315,-30,112,-262
36095,7047,0,2023-03-01T18:58:21.235022,2090779,1385,1788,-821,-1039,-575,-319,-30,112,-262
36096,7048,0,2023-03-01T18:58:21.240754,2090784,1385,1788,-821,-1039,-575,-319,-30,112,-262
36097,7049,0,2023-03-01T18:58:21.245608,2090789,1385,1788,-821,-1039,-575,-319,-30,112,-262
36098,7050,0,2023-03-01T18:58:21.250946,2090796,1385,1788,-821,-1039,-575,-319,-30,112,-262
36099,7051,0,2023-03-01T18:58:21.256266,2090801,1386,1789,-820,-1031,-569,-321,-30,112,-262
36100,7052,0,2023-03-01T18:58:21.261822,2090806,1386,1789,-820,-1031,-569,-321,-30,112,-262
36101,7053,0,2023-03-01T18:58:21.266766,2090811,1386,1789,-820,-1031,-569,-321,-30,112,-262
36102,7054,0,2023-03-01T18:58:21.273019,2090816,1387,1792,-822,-1037,-569,-321,-30,112,-262
36103,7055,0,2023-03-01T18:58:21.279489,2090823,1387,1792,-822,-1037,-569,-321,-30,112,-262
36104,7056,0,2023-03-01T18:58:21.284587,2090828,1387,1792,-822,-1037,-569,-321,-30,112,-262
36105,7057,0,2023-03-01T18:58:21.290319,2090834,1387,1792,-822,-1037,-569,-321,-30,112,-262
36106,7058,0,2023-03-01T18:58:21.296263,2090840,1392,1791,-828,-1043,-571,-320,-30,112,-262
36107,7059,0,2023-03-01T18:58:21.302289,2090846,1392,1791,-828,-1043,-571,-320,-30,112,-262
36108,7060,0,2023-03-01T18:58:21.308349,2090852,1392,1791,-828,-1043,-571,-320,-30,112,-262
36109,7061,0,2023-03-01T18:58:21.313836,2090858,1387,1790,-816,-1036,-565,-311,-34,100,-258
36110,7062,0,2023-03-01T18:58:21.320139,2090864,1387,1790,-816,-1036,-565,-311,-34,100,-258
36111,7063,0,2023-03-01T18:58:21.326858,2090871,1387,1790,-816,-1036,-565,-311,-34,100,-258
36112,7064,0,2023-03-01T18:58:21.332543,2090876,1385,1788,-817,-1035,-559,-315,-34,100,-258
36113,7065,0,2023-03-01T18:58:21.338770,2090883,1385,1788,-817,-1035,-559,-315,-34,100,-258
36114,7066,0,2023-03-01T18:58:21.343322,2090888,1385,1788,-817,-1035,-559,-315,-34,100,-258
36115,7067,0,2023-03-01T18:58:21.348656,2090893,1385,1788,-817,-1035,-559,-315,-34,100,-258
36116,7068,0,2023-03-01T18:58:21.353726,2090898,1384,1790,-808,-1032,-572,-321,-34,100,-258
36117,7069,0,2023-03-01T18:58:21.359986,2090904,1384,1790,-808,-1032,-572,-321,-34,100,-258
36118,7070,0,2023-03-01T18:58:21.365252,2090909,1384,1790,-808,-1032,-572,-321,-34,100,-258
36119,7071,0,2023-03-01T18:58:21.371040,2090914,1384,1790,-808,-1032,-572,-321,-34,100,-258
36120,7072,0,2023-03-01T18:58:21.377170,2090921,1386,1790,-819,-1046,-567,-312,-34,100,-258
36121,7073,0,2023-03-01T18:58:21.383447,2090927,1386,1790,-819,-1046,-567,-312,-34,100,-258
36122,7074,0,2023-03-01T18:58:21.388752,2090933,1386,1790,-819,-1046,-567,-312,-34,100,-258
36123,7075,0,2023-03-01T18:58:21.393751,2090938,1387,1788,-822,-1041,-576,-317,-34,100,-258
36124,7076,0,2023-03-01T18:58:21.399413,2090943,1387,1788,-822,-1041,-576,-317,-34,100,-258
36125,7077,0,2023-03-01T18:58:21.404276,2090948,1387,1788,-822,-1041,-576,-317,-34,100,-258
36126,7078,0,2023-03-01T18:58:21.411212,2090954,1387,1788,-822,-1041,-576,-317,-34,100,-258
36127,7079,0,2023-03-01T18:58:21.416789,2090960,1387,1788,-822,-1041,-576,-317,-34,100,-258
36128,7080,0,2023-03-01T18:58:21.421940,2090966,1387,1788,-822,-1041,-576,-317,-34,100,-258
36129,7081,0,2023-03-01T18:58:21.426733,2090971,1387,1788,-822,-1041,-576,-317,-34,100,-258
36130,7082,0,2023-03-01T18:58:21.431913,2090976,1383,1788,-812,-1041,-566,-318,-30,112,-266
36131,7083,0,2023-03-01T18:58:21.437575,2090982,1383,1788,-812,-1041,-566,-318,-30,112,-266
36132,7084,0,2023-03-01T18:58:21.442449,2090986,1383,1788,-812,-1041,-566,-318,-30,112,-266
36133,7085,0,2023-03-01T18:58:21.447204,2090991,1383,1788,-812,-1041,-566,-318,-30,112,-266
36134,7086,0,2023-03-01T18:58:21.452713,2090996,1385,1790,-814,-1042,-579,-321,-30,112,-266
36135,7087,0,2023-03-01T18:58:21.458116,2091002,1385,1790,-814,-1042,-579,-321,-30,112,-266
36136,7088,0,2023-03-01T18:58:21.463491,2091008,1385,1790,-814,-1042,-579,-321,-30,112,-266
36137,7089,0,2023-03-01T18:58:21.469197,2091014,1385,1790,-814,-1042,-579,-321,-30,112,-266
36138,7090,0,2023-03-01T18:58:21.474137,2091018,1387,1794,-819,-1039,-567,-321,-30,112,-266
36139,7091,0,2023-03-01T18:58:21.480429,2091024,1387,1794,-819,-1039,-567,-321,-30,112,-266
36140,7092,0,2023-03-01T18:58:21.485574,2091029,1387,1794,-819,-1039,-567,-321,-30,112,-266
36141,7093,0,2023-03-01T18:58:21.491199,2091035,1387,1794,-819,-1039,-567,-321,-30,112,-266
36142,7094,0,2023-03-01T18:58:21.496710,2091041,1389,1787,-818,-1038,-564,-323,-30,112,-266
36143,7095,0,2023-03-01T18:58:21.502181,2091046,1389,1787,-818,-1038,-564,-323,-30,112,-266
36144,7096,0,2023-03-01T18:58:21.507068,2091052,1389,1787,-818,-1038,-564,-323,-30,112,-266
36145,7097,0,2023-03-01T18:58:21.512534,2091056,1389,1790,-821,-1039,-576,-312,-30,112,-266
36146,7098,0,2023-03-01T18:58:21.518670,2091063,1389,1790,-821,-1039,-576,-312,-30,112,-266
36147,7099,0,2023-03-01T18:58:21.523853,2091068,1389,1790,-821,-1039,-576,-312,-30,112,-266
36148,7100,0,2023-03-01T18:58:21.529193,2091073,1389,1790,-821,-1039,-576,-312,-30,112,-266
36149,7101,0,2023-03-01T18:58:21.534171,2091078,1390,1789,-822,-1028,-578,-314,-30,112,-266
36150,7102,0,2023-03-01T18:58:21.540368,2091084,1390,1789,-822,-1028,-578,-314,-30,112,-266
36151,7103,0,2023-03-01T18:58:21.545398,2091089,1390,1789,-822,-1028,-578,-314,-30,112,-266
36152,7104,0,2023-03-01T18:58:21.550886,2091095,1390,1789,-822,-1028,-578,-314,-30,112,-266
36153,7105,0,2023-03-01T18:58:21.556047,2091100,1388,1790,-817,-1036,-570,-322,-30,112,-266
36154,7106,0,2023-03-01T18:58:21.561573,2091106,1388,1790,-817,-1036,-570,-322,-30,112,-266
36155,7107,0,2023-03-01T18:58:21.566736,2091111,1388,1790,-817,-1036,-570,-322,-30,112,-266
36156,7108,0,2023-03-01T18:58:21.572539,2091116,1388,1790,-817,-1036,-570,-322,-40,116,-258
36157,7109,0,2023-03-01T18:58:21.577534,2091121,1388,1790,-817,-1036,-570,-322,-40,116,-258
36158,7110,0,2023-03-01T18:58:21.582447,2091126,1388,1790,-817,-1036,-570,-322,-40,116,-258
36159,7111,0,2023-03-01T18:58:21.587598,2091131,1388,1790,-817,-1036,-570,-322,-40,116,-258
36160,7112,0,2023-03-01T18:58:21.592623,2091137,1388,1790,-813,-1033,-574,-326,-40,116,-258
36161,7113,0,2023-03-01T18:58:21.599001,2091143,1388,1790,-813,-1033,-574,-326,-40,116,-258
36162,7114,0,2023-03-01T18:58:21.604117,2091148,1388,1790,-813,-1033,-574,-326,-40,116,-258
36163,7115,0,2023-03-01T18:58:21.609660,2091154,1388,1790,-813,-1033,-574,-326,-40,116,-258
36164,7116,0,2023-03-01T18:58:21.614279,2091158,1387,1787,-819,-1030,-565,-319,-40,116,-258
36165,7117,0,2023-03-01T18:58:21.619801,2091164,1387,1787,-819,-1030,-565,-319,-40,116,-258
36166,7118,0,2023-03-01T18:58:21.624918,2091169,1387,1787,-819,-1030,-565,-319,-40,116,-258
36167,7119,0,2023-03-01T18:58:21.631665,2091174,1387,1787,-819,-1030,-565,-319,-40,116,-258
36168,7120,0,2023-03-01T18:58:21.638246,2091182,1389,1786,-814,-1040,-569,-321,-40,116,-258
36169,7121,0,2023-03-01T18:58:21.644021,2091188,1389,1786,-814,-1040,-569,-321,-40,116,-258
36170,7122,0,2023-03-01T18:58:21.650026,2091194,1389,1786,-814,-1040,-569,-321,-40,116,-258
36171,7123,0,2023-03-01T18:58:21.655100,2091199,1386,1790,-818,-1031,-573,-319,-40,116,-258
36172,7124,0,2023-03-01T18:58:21.662220,2091206,1386,1790,-818,-1031,-573,-319,-40,116,-258
36173,7125,0,2023-03-01T18:58:21.667587,2091211,1386,1790,-818,-1031,-573,-319,-40,116,-258
36174,7126,0,2023-03-01T18:58:21.673495,2091217,1388,1787,-819,-1032,-571,-321,-40,116,-258
36175,7127,0,2023-03-01T18:58:21.680229,2091224,1388,1787,-819,-1032,-571,-321,-40,116,-258
36176,7128,0,2023-03-01T18:58:21.685503,2091230,1388,1787,-819,-1032,-571,-321,-40,116,-258
36177,7129,0,2023-03-01T18:58:21.691015,2091235,1388,1787,-819,-1032,-571,-321,-40,116,-258
36178,7130,0,2023-03-01T18:58:21.696310,2091240,1388,1788,-814,-1033,-573,-326,-33,113,-261
36179,7131,0,2023-03-01T18:58:21.701997,2091246,1388,1788,-814,-1033,-573,-326,-33,113,-261
36180,7132,0,2023-03-01T18:58:21.706830,2091251,1388,1788,-814,-1033,-573,-326,-33,113,-261
36181,7133,0,2023-03-01T18:58:21.711799,2091255,1388,1788,-814,-1033,-573,-326,-33,113,-261
36182,7134,0,2023-03-01T18:58:21.716689,2091260,1387,1789,-818,-1036,-571,-326,-33,113,-261
36183,7135,0,2023-03-01T18:58:21.722142,2091267,1387,1789,-818,-1036,-571,-326,-33,113,-261
36184,7136,0,2023-03-01T18:58:21.727228,2091272,1387,1789,-818,-1036,-571,-326,-33,113,-261
36185,7137,0,2023-03-01T18:58:21.732672,2091277,1387,1789,-823,-1032,-571,-323,-33,113,-261
36186,7138,0,2023-03-01T18:58:21.737526,2091281,1387,1789,-823,-1032,-571,-323,-33,113,-261
36187,7139,0,2023-03-01T18:58:21.743665,2091287,1387,1789,-823,-1032,-571,-323,-33,113,-261
36188,7140,0,2023-03-01T18:58:21.748838,2091293,1387,1789,-823,-1032,-571,-323,-33,113,-261
36189,7141,0,2023-03-01T18:58:21.754523,2091298,1389,1790,-818,-1045,-581,-319,-33,113,-261
36190,7142,0,2023-03-01T18:58:21.760055,2091304,1389,1790,-818,-1045,-581,-319,-33,113,-261
36191,7143,0,2023-03-01T18:58:21.764802,2091310,1389,1790,-818,-1045,-581,-319,-33,113,-261
36192,7144,0,2023-03-01T18:58:21.770883,2091314,1389,1790,-818,-1045,-581,-319,-33,113,-261
36193,7145,0,2023-03-01T18:58:21.776776,2091321,1389,1788,-823,-1036,-572,-327,-33,113,-261
36194,7146,0,2023-03-01T18:58:21.782117,2091326,1389,1788,-823,-1036,-572,-327,-33,113,-261
36195,7147,0,2023-03-01T18:58:21.786953,2091331,1389,1788,-823,-1036,-572,-327,-33,113,-261
36196,7148,0,2023-03-01T18:58:21.792063,2091336,1388,1791,-820,-1048,-577,-324,-33,113,-261
36197,7149,0,2023-03-01T18:58:21.798463,2091342,1388,1791,-820,-1048,-577,-324,-33,113,-261
36198,7150,0,2023-03-01T18:58:21.803650,2091347,1388,1791,-820,-1048,-577,-324,-33,113,-261
36199,7151,0,2023-03-01T18:58:21.808898,2091354,1388,1791,-820,-1048,-577,-324,-33,113,-261
36200,7152,0,2023-03-01T18:58:21.814181,2091358,1384,1789,-820,-1044,-574,-327,-33,113,-261
36201,7153,0,2023-03-01T18:58:21.819661,2091364,1384,1789,-820,-1044,-574,-327,-33,113,-261
36202,7154,0,2023-03-01T18:58:21.824523,2091369,1384,1789,-820,-1044,-574,-327,-33,113,-261
36203,7155,0,2023-03-01T18:58:21.829900,2091374,1384,1789,-820,-1044,-574,-327,-33,113,-261
36204,7156,0,2023-03-01T18:58:21.835452,2091379,1385,1787,-812,-1040,-565,-322,-33,121,-265
36205,7157,0,2023-03-01T18:58:21.841017,2091385,1385,1787,-812,-1040,-565,-322,-33,121,-265
36206,7158,0,2023-03-01T18:58:21.846063,2091390,1385,1787,-812,-1040,-565,-322,-33,121,-265
36207,7159,0,2023-03-01T18:58:21.851704,2091395,1385,1787,-812,-1040,-565,-322,-33,121,-265
36208,7160,0,2023-03-01T18:58:21.856867,2091401,1387,1786,-820,-1039,-573,-317,-33,121,-265
36209,7161,0,2023-03-01T18:58:21.862381,2091407,1387,1786,-820,-1039,-573,-317,-33,121,-265
36210,7162,0,2023-03-01T18:58:21.867617,2091412,1387,1786,-820,-1039,-573,-317,-33,121,-265
36211,7163,0,2023-03-01T18:58:21.872773,2091417,1386,1788,-815,-1045,-572,-319,-33,121,-265
36212,7164,0,2023-03-01T18:58:21.878800,2091422,1386,1788,-815,-1045,-572,-319,-33,121,-265
36213,7165,0,2023-03-01T18:58:21.883460,2091427,1386,1788,-815,-1045,-572,-319,-33,121,-265
36214,7166,0,2023-03-01T18:58:21.889110,2091433,1386,1788,-815,-1045,-572,-319,-33,121,-265
36215,7167,0,2023-03-01T18:58:21.893687,2091438,1388,1788,-814,-1037,-574,-325,-33,121,-265
36216,7168,0,2023-03-01T18:58:21.899117,2091444,1388,1788,-814,-1037,-574,-325,-33,121,-265
36217,7169,0,2023-03-01T18:58:21.904016,2091448,1388,1788,-814,-1037,-574,-325,-33,121,-265
36218,7170,0,2023-03-01T18:58:21.909750,2091454,1388,1788,-814,-1037,-574,-325,-33,121,-265
36219,7171,0,2023-03-01T18:58:21.914564,2091459,1385,1787,-820,-1036,-570,-327,-33,121,-265
36220,7172,0,2023-03-01T18:58:21.920644,2091465,1385,1787,-820,-1036,-570,-327,-33,121,-265
36221,7173,0,2023-03-01T18:58:21.925713,2091469,1385,1787,-820,-1036,-570,-327,-33,121,-265
36222,7174,0,2023-03-01T18:58:21.931712,2091475,1385,1787,-820,-1036,-570,-327,-33,121,-265
36223,7175,0,2023-03-01T18:58:21.937487,2091482,1386,1789,-824,-1037,-573,-325,-33,121,-265
36224,7176,0,2023-03-01T18:58:21.942618,2091487,1386,1789,-824,-1037,-573,-325,-33,121,-265
36225,7177,0,2023-03-01T18:58:21.947601,2091492,1386,1789,-824,-1037,-573,-325,-33,121,-265
36226,7178,0,2023-03-01T18:58:21.953072,2091497,1390,1792,-809,-1035,-574,-323,-33,109,-265
36227,7179,0,2023-03-01T18:58:21.958541,2091502,1390,1792,-809,-1035,-574,-323,-33,109,-265
36228,7180,0,2023-03-01T18:58:21.963910,2091508,1390,1792,-809,-1035,-574,-323,-33,109,-265
36229,7181,0,2023-03-01T18:58:21.969350,2091513,1390,1792,-809,-1035,-574,-323,-33,109,-265
36230,7182,0,2023-03-01T18:58:21.974556,2091518,1388,1789,-820,-1031,-567,-318,-33,109,-265
36231,7183,0,2023-03-01T18:58:21.980549,2091525,1388,1789,-820,-1031,-567,-318,-33,109,-265
36232,7184,0,2023-03-01T18:58:21.985916,2091530,1388,1789,-820,-1031,-567,-318,-33,109,-265
36233,7185,0,2023-03-01T18:58:21.992152,2091536,1388,1789,-820,-1031,-567,-318,-33,109,-265
36234,7186,0,2023-03-01T18:58:21.997305,2091542,1389,1786,-820,-1032,-566,-318,-33,109,-265
36235,7187,0,2023-03-01T18:58:22.002748,2091547,1389,1786,-820,-1032,-566,-318,-33,109,-265
36236,7188,0,2023-03-01T18:58:22.007871,2091552,1389,1786,-820,-1032,-566,-318,-33,109,-265
36237,7189,0,2023-03-01T18:58:22.013352,2091557,1384,1789,-818,-1043,-573,-322,-33,109,-265
36238,7190,0,2023-03-01T18:58:22.019397,2091564,1384,1789,-818,-1043,-573,-322,-33,109,-265
36239,7191,0,2023-03-01T18:58:22.024707,2091569,1384,1789,-818,-1043,-573,-322,-33,109,-265
36240,7192,0,2023-03-01T18:58:22.030163,2091575,1384,1789,-818,-1043,-573,-322,-33,109,-265
36241,7193,0,2023-03-01T18:58:22.035649,2091580,1385,1788,-823,-1040,-575,-313,-33,109,-265
36242,7194,0,2023-03-01T18:58:22.041111,2091585,1385,1788,-823,-1040,-575,-313,-33,109,-265
36243,7195,0,2023-03-01T18:58:22.045741,2091590,1385,1788,-823,-1040,-575,-313,-33,109,-265
36244,7196,0,2023-03-01T18:58:22.051653,2091595,1385,1788,-823,-1040,-575,-313,-33,109,-265
36245,7197,0,2023-03-01T18:58:22.056675,2091600,1388,1788,-819,-1033,-570,-316,-33,109,-265
36246,7198,0,2023-03-01T18:58:22.062250,2091607,1388,1788,-819,-1033,-570,-316,-33,109,-265
36247,7199,0,2023-03-01T18:58:22.066841,2091611,1388,1788,-819,-1033,-570,-316,-33,109,-265
36248,7200,0,2023-03-01T18:58:22.073992,2091618,1391,1789,-815,-1041,-573,-317,-33,109,-265
36249,7201,0,2023-03-01T18:58:22.080831,2091625,1391,1789,-815,-1041,-573,-317,-33,109,-265
36250,7202,0,2023-03-01T18:58:22.085773,2091630,1391,1789,-815,-1041,-573,-317,-33,109,-265
36251,7203,0,2023-03-01T18:58:22.091285,2091635,1391,1789,-815,-1041,-573,-317,-33,109,-265
36252,7204,0,2023-03-01T18:58:22.096620,2091640,1389,1790,-815,-1034,-569,-317,-36,112,-258
36253,7205,0,2023-03-01T18:58:22.102543,2091646,1389,1790,-815,-1034,-569,-317,-36,112,-258
36254,7206,0,2023-03-01T18:58:22.107194,2091652,1389,1790,-815,-1034,-569,-317,-36,112,-258
36255,7207,0,2023-03-01T18:58:22.112815,2091657,1390,1790,-818,-1038,-570,-323,-36,112,-258
36256,7208,0,2023-03-01T18:58:22.118307,2091663,1390,1790,-818,-1038,-570,-323,-36,112,-258
36257,7209,0,2023-03-01T18:58:22.123060,2091667,1390,1790,-818,-1038,-570,-323,-36,112,-258
36258,7210,0,2023-03-01T18:58:22.128778,2091673,1390,1790,-818,-1038,-570,-323,-36,112,-258
36259,7211,0,2023-03-01T18:58:22.133925,2091678,1387,1789,-823,-1038,-568,-320,-36,112,-258
36260,7212,0,2023-03-01T18:58:22.140135,2091684,1387,1789,-823,-1038,-568,-320,-36,112,-258
36261,7213,0,2023-03-01T18:58:22.145198,2091689,1387,1789,-823,-1038,-568,-320,-36,112,-258
36262,7214,0,2023-03-01T18:58:22.150620,2091695,1387,1789,-823,-1038,-568,-320,-36,112,-258
36263,7215,0,2023-03-01T18:58:22.155958,2091700,1386,1785,-823,-1039,-569,-323,-36,112,-258
36264,7216,0,2023-03-01T18:58:22.162622,2091707,1386,1785,-823,-1039,-569,-323,-36,112,-258
36265,7217,0,2023-03-01T18:58:22.167469,2091711,1386,1785,-823,-1039,-569,-323,-36,112,-258
36266,7218,0,2023-03-01T18:58:22.172768,2091717,1385,1788,-819,-1037,-564,-321,-36,112,-258
36267,7219,0,2023-03-01T18:58:22.179507,2091723,1385,1788,-819,-1037,-564,-321,-36,112,-258
36268,7220,0,2023-03-01T18:58:22.184746,2091728,1385,1788,-819,-1037,-564,-321,-36,112,-258
36269,7221,0,2023-03-01T18:58:22.190439,2091735,1385,1788,-819,-1037,-564,-321,-36,112,-258
36270,7222,0,2023-03-01T18:58:22.195378,2091740,1386,1790,-817,-1030,-570,-318,-36,112,-258
36271,7223,0,2023-03-01T18:58:22.201811,2091746,1386,1790,-817,-1030,-570,-318,-36,112,-258
36272,7224,0,2023-03-01T18:58:22.206893,2091751,1386,1790,-817,-1030,-570,-318,-36,112,-258
36273,7225,0,2023-03-01T18:58:22.212585,2091757,1386,1790,-817,-1030,-570,-318,-36,112,-258
36274,7226,0,2023-03-01T18:58:22.217217,2091761,1387,1788,-812,-1030,-575,-321,-32,116,-254
36275,7227,0,2023-03-01T18:58:22.222859,2091767,1387,1788,-812,-1030,-575,-321,-32,116,-254
36276,7228,0,2023-03-01T18:58:22.227662,2091771,1387,1788,-812,-1030,-575,-321,-32,116,-254
36277,7229,0,2023-03-01T18:58:22.232598,2091777,1387,1788,-812,-1030,-575,-321,-32,116,-254
36278,7230,0,2023-03-01T18:58:22.237758,2091782,1386,1788,-809,-1032,-565,-327,-32,116,-254
36279,7231,0,2023-03-01T18:58:22.243819,2091788,1386,1788,-809,-1032,-565,-327,-32,116,-254
36280,7232,0,2023-03-01T18:58:22.249523,2091794,1386,1788,-809,-1032,-565,-327,-32,116,-254
36281,7233,0,2023-03-01T18:58:22.255027,2091798,1387,1792,-816,-1030,-559,-321,-32,116,-254
36282,7234,0,2023-03-01T18:58:22.261292,2091805,1387,1792,-816,-1030,-559,-321,-32,116,-254
36283,7235,0,2023-03-01T18:58:22.266508,2091810,1387,1792,-816,-1030,-559,-321,-32,116,-254
36284,7236,0,2023-03-01T18:58:22.272152,2091816,1387,1792,-816,-1030,-559,-321,-32,116,-254
36285,7237,0,2023-03-01T18:58:22.277355,2091822,1387,1793,-815,-1033,-572,-324,-32,116,-254
36286,7238,0,2023-03-01T18:58:22.282914,2091827,1387,1793,-815,-1033,-572,-324,-32,116,-254
36287,7239,0,2023-03-01T18:58:22.287914,2091832,1387,1793,-815,-1033,-572,-324,-32,116,-254
36288,7240,0,2023-03-01T18:58:22.293754,2091838,1385,1793,-819,-1034,-575,-318,-32,116,-254
36289,7241,0,2023-03-01T18:58:22.299461,2091843,1385,1793,-819,-1034,-575,-318,-32,116,-254
36290,7242,0,2023-03-01T18:58:22.304611,2091848,1385,1793,-819,-1034,-575,-318,-32,116,-254
36291,7243,0,2023-03-01T18:58:22.309821,2091854,1385,1793,-819,-1034,-575,-318,-32,116,-254
36292,7244,0,2023-03-01T18:58:22.314759,2091858,1386,1790,-816,-1028,-568,-326,-32,116,-254
36293,7245,0,2023-03-01T18:58:22.319609,2091864,1386,1790,-816,-1028,-568,-326,-32,116,-254
36294,7246,0,2023-03-01T18:58:22.324931,2091869,1386,1790,-816,-1028,-568,-326,-32,116,-254
36295,7247,0,2023-03-01T18:58:22.330602,2091875,1386,1790,-816,-1028,-568,-326,-32,116,-254
36296,7248,0,2023-03-01T18:58:22.335302,2091880,1385,1786,-817,-1030,-566,-314,-30,116,-262
36297,7249,0,2023-03-01T18:58:22.340621,2091885,1385,1786,-817,-1030,-566,-314,-30,116,-262
36298,7250,0,2023-03-01T18:58:22.345111,2091889,1385,1786,-817,-1030,-566,-314,-30,116,-262
36299,7251,0,2023-03-01T18:58:22.351382,2091895,1385,1786,-817,-1030,-566,-314,-30,116,-262
36300,7252,0,2023-03-01T18:58:22.356467,2091900,1385,1789,-821,-1036,-571,-320,-30,116,-262
36301,7253,0,2023-03-01T18:58:22.362424,2091907,1385,1789,-821,-1036,-571,-320,-30,116,-262
36302,7254,0,2023-03-01T18:58:22.367065,2091912,1385,1789,-821,-1036,-571,-320,-30,116,-262
36303,7255,0,2023-03-01T18:58:22.372688,2091917,1385,1789,-821,-1036,-571,-320,-30,116,-262
36304,7256,0,2023-03-01T18:58:22.377479,2091921,1390,1787,-821,-1040,-580,-325,-30,116,-262
36305,7257,0,2023-03-01T18:58:22.383212,2091927,1390,1787,-821,-1040,-580,-325,-30,116,-262
36306,7258,0,2023-03-01T18:58:22.388990,2091933,1390,1787,-821,-1040,-580,-325,-30,116,-262
36307,7259,0,2023-03-01T18:58:22.393771,2091938,1385,1786,-818,-1041,-572,-320,-30,116,-262
36308,7260,0,2023-03-01T18:58:22.400267,2091944,1385,1786,-818,-1041,-572,-320,-30,116,-262
36309,7261,0,2023-03-01T18:58:22.406106,2091950,1385,1786,-818,-1041,-572,-320,-30,116,-262
36310,7262,0,2023-03-01T18:58:22.411068,2091955,1385,1786,-818,-1041,-572,-320,-30,116,-262
36311,7263,0,2023-03-01T18:58:22.417427,2091961,1387,1785,-822,-1041,-574,-319,-30,116,-262
36312,7264,0,2023-03-01T18:58:22.422733,2091967,1387,1785,-822,-1041,-574,-319,-30,116,-262
36313,7265,0,2023-03-01T18:58:22.427545,2091972,1387,1785,-822,-1041,-574,-319,-30,116,-262
36314,7266,0,2023-03-01T18:58:22.433471,2091977,1389,1788,-818,-1036,-569,-327,-30,116,-262
36315,7267,0,2023-03-01T18:58:22.439509,2091983,1389,1788,-818,-1036,-569,-327,-30,116,-262
36316,7268,0,2023-03-01T18:58:22.444340,2091988,1389,1788,-818,-1036,-569,-327,-30,116,-262
36317,7269,0,2023-03-01T18:58:22.449590,2091994,1389,1788,-818,-1036,-569,-327,-30,116,-262
36318,7270,0,2023-03-01T18:58:22.454748,2091999,1390,1788,-814,-1035,-572,-323,-30,116,-262
36319,7271,0,2023-03-01T18:58:22.460615,2092005,1390,1788,-814,-1035,-572,-323,-30,116,-262
36320,7272,0,2023-03-01T18:58:22.465764,2092010,1390,1788,-814,-1035,-572,-323,-30,116,-262
36321,7273,0,2023-03-01T18:58:22.471305,2092015,1390,1788,-814,-1035,-572,-323,-30,116,-262
36322,7274,0,2023-03-01T18:58:22.476289,2092020,1386,1788,-814,-1037,-573,-324,-29,109,-255
36323,7275,0,2023-03-01T18:58:22.482036,2092026,1386,1788,-814,-1037,-573,-324,-29,109,-255
36324,7276,0,2023-03-01T18:58:22.487392,2092032,1386,1788,-814,-1037,-573,-324,-29,109,-255
36325,7277,0,2023-03-01T18:58:22.493356,2092038,1387,1788,-821,-1043,-572,-328,-29,109,-255
36326,7278,0,2023-03-01T18:58:22.499801,2092044,1387,1788,-821,-1043,-572,-328,-29,109,-255
36327,7279,0,2023-03-01T18:58:22.506064,2092049,1387,1788,-821,-1043,-572,-328,-29,109,-255
36328,7280,0,2023-03-01T18:58:22.512522,2092056,1387,1788,-821,-1043,-572,-328,-29,109,-255
36329,7281,0,2023-03-01T18:58:22.518281,2092062,1385,1788,-824,-1047,-578,-328,-29,109,-255
36330,7282,0,2023-03-01T18:58:22.524234,2092068,1385,1788,-824,-1047,-578,-328,-29,109,-255
36331,7283,0,2023-03-01T18:58:22.529779,2092073,1385,1788,-824,-1047,-578,-328,-29,109,-255
36332,7284,0,2023-03-01T18:58:22.534439,2092079,1388,1787,-819,-1035,-570,-330,-29,109,-255
36333,7285,0,2023-03-01T18:58:22.540025,2092084,1388,1787,-819,-1035,-570,-330,-29,109,-255
36334,7286,0,2023-03-01T18:58:22.544574,2092089,1388,1787,-819,-1035,-570,-330,-29,109,-255
36335,7287,0,2023-03-01T18:58:22.549915,2092094,1388,1787,-819,-1035,-570,-330,-29,109,-255
36336,7288,0,2023-03-01T18:58:22.554823,2092099,1384,1789,-818,-1038,-571,-327,-29,109,-255
36337,7289,0,2023-03-01T18:58:22.561436,2092105,1384,1789,-818,-1038,-571,-327,-29,109,-255
36338,7290,0,2023-03-01T18:58:22.566738,2092110,1384,1789,-818,-1038,-571,-327,-29,109,-255
36339,7291,0,2023-03-01T18:58:22.572100,2092116,1384,1789,-818,-1038,-571,-327,-29,109,-255
36340,7292,0,2023-03-01T18:58:22.578022,2092122,1388,1790,-821,-1037,-576,-327,-29,109,-255
36341,7293,0,2023-03-01T18:58:22.583886,2092128,1388,1790,-821,-1037,-576,-327,-29,109,-255
36342,7294,0,2023-03-01T18:58:22.589554,2092134,1388,1790,-821,-1037,-576,-327,-29,109,-255
36343,7295,0,2023-03-01T18:58:22.594566,2092139,1386,1786,-816,-1033,-567,-323,-33,111,-263
36344,7296,0,2023-03-01T18:58:22.601079,2092145,1386,1786,-816,-1033,-567,-323,-33,111,-263
36345,7297,0,2023-03-01T18:58:22.606470,2092150,1386,1786,-816,-1033,-567,-323,-33,111,-263
36346,7298,0,2023-03-01T18:58:22.612098,2092156,1386,1786,-816,-1033,-567,-323,-33,111,-263
36347,7299,0,2023-03-01T18:58:22.617022,2092161,1387,1789,-819,-1045,-574,-321,-33,111,-263
36348,7300,0,2023-03-01T18:58:22.622774,2092167,1387,1789,-819,-1045,-574,-321,-33,111,-263
36349,7301,0,2023-03-01T18:58:22.628253,2092172,1387,1789,-819,-1045,-574,-321,-33,111,-263
36350,7302,0,2023-03-01T18:58:22.633910,2092178,1387,1787,-817,-1039,-570,-315,-33,111,-263
36351,7303,0,2023-03-01T18:58:22.640269,2092184,1387,1787,-817,-1039,-570,-315,-33,111,-263
36352,7304,0,2023-03-01T18:58:22.645343,2092189,1387,1787,-817,-1039,-570,-315,-33,111,-263
36353,7305,0,2023-03-01T18:58:22.651247,2092195,1387,1787,-817,-1039,-570,-315,-33,111,-263
36354,7306,0,2023-03-01T18:58:22.656634,2092200,1388,1792,-820,-1040,-570,-318,-33,111,-263
36355,7307,0,2023-03-01T18:58:22.663177,2092207,1388,1792,-820,-1040,-570,-318,-33,111,-263
36356,7308,0,2023-03-01T18:58:22.667993,2092212,1388,1792,-820,-1040,-570,-318,-33,111,-263
36357,7309,0,2023-03-01T18:58:22.673162,2092218,1387,1789,-825,-1040,-568,-323,-33,111,-263
36358,7310,0,2023-03-01T18:58:22.679801,2092224,1387,1789,-825,-1040,-568,-323,-33,111,-263
36359,7311,0,2023-03-01T18:58:22.685739,2092228,1387,1789,-825,-1040,-568,-323,-33,111,-263
36360,7312,0,2023-03-01T18:58:22.691887,2092235,1387,1789,-825,-1040,-568,-323,-33,111,-263
36361,7313,0,2023-03-01T18:58:22.697351,2092241,1387,1786,-817,-1035,-569,-324,-33,111,-263
36362,7314,0,2023-03-01T18:58:22.703467,2092248,1387,1786,-817,-1035,-569,-324,-33,111,-263
36363,7315,0,2023-03-01T18:58:22.708631,2092253,1387,1786,-817,-1035,-569,-324,-33,111,-263
36364,7316,0,2023-03-01T18:58:22.714626,2092259,1387,1790,-817,-1037,-570,-321,-33,111,-263
36365,7317,0,2023-03-01T18:58:22.720894,2092265,1387,1790,-817,-1037,-570,-321,-33,111,-263
36366,7318,0,2023-03-01T18:58:22.725731,2092270,1387,1790,-817,-1037,-570,-321,-33,111,-263
36367,7319,0,2023-03-01T18:58:22.731775,2092275,1387,1790,-817,-1037,-570,-321,-33,111,-263
36368,7320,0,2023-03-01T18:58:22.737534,2092281,1389,1789,-815,-1039,-577,-320,-36,116,-258
36369,7321,0,2023-03-01T18:58:22.743696,2092288,1389,1789,-815,-1039,-577,-320,-36,116,-258
36370,7322,0,2023-03-01T18:58:22.750056,2092295,1389,1789,-815,-1039,-577,-320,-36,116,-258
36371,7323,0,2023-03-01T18:58:22.754938,2092299,1388,1789,-817,-1044,-570,-318,-36,116,-258
36372,7324,0,2023-03-01T18:58:22.760817,2092305,1388,1789,-817,-1044,-570,-318,-36,116,-258
36373,7325,0,2023-03-01T18:58:22.765195,2092310,1388,1789,-817,-1044,-570,-318,-36,116,-258
36374,7326,0,2023-03-01T18:58:22.770703,2092315,1388,1789,-817,-1044,-570,-318,-36,116,-258
36375,7327,0,2023-03-01T18:58:22.775691,2092319,1386,1786,-818,-1038,-567,-315,-36,116,-258
36376,7328,0,2023-03-01T18:58:22.782300,2092326,1386,1786,-818,-1038,-567,-315,-36,116,-258
36377,7329,0,2023-03-01T18:58:22.787491,2092332,1386,1786,-818,-1038,-567,-315,-36,116,-258
36378,7330,0,2023-03-01T18:58:22.793376,2092338,1386,1786,-818,-1038,-567,-315,-36,116,-258
36379,7331,0,2023-03-01T18:58:22.801561,2092345,1389,1788,-817,-1033,-574,-323,-36,116,-258
36380,7332,0,2023-03-01T18:58:22.807332,2092351,1389,1788,-817,-1033,-574,-323,-36,116,-258
36381,7333,0,2023-03-01T18:58:22.812531,2092357,1389,1788,-817,-1033,-574,-323,-36,116,-258
36382,7334,0,2023-03-01T18:58:22.818353,2092362,1393,1788,-823,-1043,-576,-324,-36,116,-258
36383,7335,0,2023-03-01T18:58:22.824500,2092368,1393,1788,-823,-1043,-576,-324,-36,116,-258
36384,7336,0,2023-03-01T18:58:22.830647,2092375,1393,1788,-823,-1043,-576,-324,-36,116,-258
36385,7337,0,2023-03-01T18:58:22.837852,2092382,1387,1786,-821,-1036,-576,-319,-36,116,-258
36386,7338,0,2023-03-01T18:58:22.844081,2092388,1387,1786,-821,-1036,-576,-319,-36,116,-258
36387,7339,0,2023-03-01T18:58:22.849716,2092394,1387,1786,-821,-1036,-576,-319,-36,116,-258
36388,7340,0,2023-03-01T18:58:22.854870,2092399,1387,1789,-818,-1046,-577,-320,-36,114,-260
36389,7341,0,2023-03-01T18:58:22.861484,2092405,1387,1789,-818,-1046,-577,-320,-36,114,-260
36390,7342,0,2023-03-01T18:58:22.866713,2092410,1387,1789,-818,-1046,-577,-320,-36,114,-260
36391,7343,0,2023-03-01T18:58:22.872481,2092417,1387,1789,-818,-1046,-577,-320,-36,114,-260
36392,7344,0,2023-03-01T18:58:22.877397,2092422,1384,1789,-819,-1038,-576,-306,-36,114,-260
36393,7345,0,2023-03-01T18:58:22.883408,2092428,1384,1789,-819,-1038,-576,-306,-36,114,-260
36394,7346,0,2023-03-01T18:58:22.889322,2092433,1384,1789,-819,-1038,-576,-306,-36,114,-260
36395,7347,0,2023-03-01T18:58:22.894668,2092438,1385,1789,-813,-1037,-574,-318,-36,114,-260
36396,7348,0,2023-03-01T18:58:22.901092,2092445,1385,1789,-813,-1037,-574,-318,-36,114,-260
36397,7349,0,2023-03-01T18:58:22.906467,2092450,1385,1789,-813,-1037,-574,-318,-36,114,-260
36398,7350,0,2023-03-01T18:58:22.911854,2092455,1385,1789,-813,-1037,-574,-318,-36,114,-260
36399,7351,0,2023-03-01T18:58:22.918078,2092462,1387,1790,-823,-1042,-573,-318,-36,114,-260
36400,7352,0,2023-03-01T18:58:22.923595,2092468,1387,1790,-823,-1042,-573,-318,-36,114,-260
36401,7353,0,2023-03-01T18:58:22.928921,2092473,1387,1790,-823,-1042,-573,-318,-36,114,-260
36402,7354,0,2023-03-01T18:58:22.933742,2092478,1387,1790,-823,-1042,-573,-318,-36,114,-260
36403,7355,0,2023-03-01T18:58:22.941105,2092483,1388,1792,-818,-1042,-579,-316,-36,114,-260
36404,7356,0,2023-03-01T18:58:22.947619,2092492,1388,1792,-818,-1042,-579,-316,-36,114,-260
36405,7357,0,2023-03-01T18:58:22.953288,2092497,1388,1792,-818,-1042,-579,-316,-36,114,-260
36406,7358,0,2023-03-01T18:58:22.958692,2092503,1389,1786,-822,-1038,-580,-316,-36,114,-260
36407,7359,0,2023-03-01T18:58:22.964423,2092509,1389,1786,-822,-1038,-580,-316,-36,114,-260
36408,7360,0,2023-03-01T18:58:22.970065,2092514,1389,1786,-822,-1038,-580,-316,-36,114,-260
36409,7361,0,2023-03-01T18:58:22.975151,2092519,1385,1789,-826,-1040,-577,-320,-36,114,-260
36410,7362,0,2023-03-01T18:58:22.981404,2092525,1385,1789,-826,-1040,-577,-320,-36,114,-260
36411,7363,0,2023-03-01T18:58:22.986938,2092530,1385,1789,-826,-1040,-577,-320,-36,114,-260
36412,7364,0,2023-03-01T18:58:22.992774,2092536,1385,1789,-826,-1040,-577,-320,-36,114,-260
36413,7365,0,2023-03-01T18:58:22.997744,2092541,1384,1787,-818,-1046,-571,-317,-26,118,-260
36414,7366,0,2023-03-01T18:58:23.003701,2092548,1384,1787,-818,-1046,-571,-317,-26,118,-260
36415,7367,0,2023-03-01T18:58:23.009208,2092554,1384,1787,-818,-1046,-571,-317,-26,118,-260
36416,7368,0,2023-03-01T18:58:23.013758,2092558,1387,1790,-820,-1037,-575,-325,-26,118,-260
36417,7369,0,2023-03-01T18:58:23.019450,2092563,1387,1790,-820,-1037,-575,-325,-26,118,-260
36418,7370,0,2023-03-01T18:58:23.024955,2092569,1387,1790,-820,-1037,-575,-325,-26,118,-260
36419,7371,0,2023-03-01T18:58:23.031480,2092574,1387,1790,-820,-1037,-575,-325,-26,118,-260
36420,7372,0,2023-03-01T18:58:23.036660,2092580,1387,1791,-816,-1041,-572,-319,-26,118,-260
36421,7373,0,2023-03-01T18:58:23.042715,2092587,1387,1791,-816,-1041,-572,-319,-26,118,-260
36422,7374,0,2023-03-01T18:58:23.047592,2092592,1387,1791,-816,-1041,-572,-319,-26,118,-260
36423,7375,0,2023-03-01T18:58:23.053494,2092597,1387,1791,-816,-1041,-572,-319,-26,118,-260
36424,7376,0,2023-03-01T18:58:23.058936,2092603,1387,1788,-817,-1031,-569,-321,-26,118,-260
36425,7377,0,2023-03-01T18:58:23.064608,2092609,1387,1788,-817,-1031,-569,-321,-26,118,-260
36426,7378,0,2023-03-01T18:58:23.070315,2092614,1387,1788,-817,-1031,-569,-321,-26,118,-260
36427,7379,0,2023-03-01T18:58:23.075735,2092619,1386,1788,-819,-1039,-563,-322,-26,118,-260
36428,7380,0,2023-03-01T18:58:23.082153,2092625,1386,1788,-819,-1039,-563,-322,-26,118,-260
36429,7381,0,2023-03-01T18:58:23.087147,2092632,1386,1788,-819,-1039,-563,-322,-26,118,-260
36430,7382,0,2023-03-01T18:58:23.092626,2092637,1386,1788,-819,-1039,-563,-322,-26,118,-260
36431,7383,0,2023-03-01T18:58:23.097649,2092642,1387,1788,-818,-1033,-571,-323,-26,118,-260
36432,7384,0,2023-03-01T18:58:23.103108,2092647,1387,1788,-818,-1033,-571,-323,-26,118,-260
36433,7385,0,2023-03-01T18:58:23.107701,2092652,1387,1788,-818,-1033,-571,-323,-26,118,-260
36434,7386,0,2023-03-01T18:58:23.113562,2092657,1387,1788,-818,-1033,-571,-323,-26,118,-260
36435,7387,0,2023-03-01T18:58:23.120020,2092663,1383,1790,-820,-1030,-575,-315,-35,119,-255
36436,7388,0,2023-03-01T18:58:23.125299,2092669,1383,1790,-820,-1030,-575,-315,-35,119,-255
36437,7389,0,2023-03-01T18:58:23.130849,2092675,1383,1790,-820,-1030,-575,-315,-35,119,-255
36438,7390,0,2023-03-01T18:58:23.135732,2092680,1387,1790,-821,-1023,-570,-325,-35,119,-255
36439,7391,0,2023-03-01T18:58:23.143164,2092686,1387,1790,-821,-1023,-570,-325,-35,119,-255
36440,7392,0,2023-03-01T18:58:23.148444,2092692,1387,1790,-821,-1023,-570,-325,-35,119,-255
36441,7393,0,2023-03-01T18:58:23.154115,2092698,1387,1786,-820,-1029,-568,-325,-35,119,-255
36442,7394,0,2023-03-01T18:58:23.160581,2092703,1387,1786,-820,-1029,-568,-325,-35,119,-255
36443,7395,0,2023-03-01T18:58:23.165815,2092709,1387,1786,-820,-1029,-568,-325,-35,119,-255
36444,7396,0,2023-03-01T18:58:23.172080,2092716,1387,1786,-820,-1029,-568,-325,-35,119,-255
36445,7397,0,2023-03-01T18:58:23.177026,2092721,1387,1786,-817,-1035,-571,-323,-35,119,-255
36446,7398,0,2023-03-01T18:58:23.182576,2092727,1387,1786,-817,-1035,-571,-323,-35,119,-255
36447,7399,0,2023-03-01T18:58:23.188010,2092732,1387,1786,-817,-1035,-571,-323,-35,119,-255
36448,7400,0,2023-03-01T18:58:23.194674,2092738,1385,1791,-816,-1039,-568,-323,-35,119,-255
36449,7401,0,2023-03-01T18:58:23.200271,2092744,1385,1791,-816,-1039,-568,-323,-35,119,-255
36450,7402,0,2023-03-01T18:58:23.205820,2092749,1385,1791,-816,-1039,-568,-323,-35,119,-255
36451,7403,0,2023-03-01T18:58:23.211384,2092755,1385,1791,-816,-1039,-568,-323,-35,119,-255
36452,7404,0,2023-03-01T18:58:23.216277,2092761,1388,1790,-822,-1038,-567,-322,-35,119,-255
36453,7405,0,2023-03-01T18:58:23.221782,2092766,1388,1790,-822,-1038,-567,-322,-35,119,-255
36454,7406,0,2023-03-01T18:58:23.226987,2092771,1388,1790,-822,-1038,-567,-322,-35,119,-255
36455,7407,0,2023-03-01T18:58:23.233554,2092777,1388,1790,-822,-1038,-567,-322,-35,119,-255
36456,7408,0,2023-03-01T18:58:23.239403,2092783,1387,1788,-824,-1037,-569,-319,-28,112,-258
36457,7409,0,2023-03-01T18:58:23.245131,2092789,1387,1788,-824,-1037,-569,-319,-28,112,-258
36458,7410,0,2023-03-01T18:58:23.250601,2092794,1387,1788,-824,-1037,-569,-319,-28,112,-258
36459,7411,0,2023-03-01T18:58:23.255485,2092800,1387,1789,-813,-1038,-577,-320,-28,112,-258
36460,7412,0,2023-03-01T18:58:23.261460,2092806,1387,1789,-813,-1038,-577,-320,-28,112,-258
36461,7413,0,2023-03-01T18:58:23.266736,2092811,1387,1789,-813,-1038,-577,-320,-28,112,-258
36462,7414,0,2023-03-01T18:58:23.272509,2092817,1387,1789,-813,-1038,-577,-320,-28,112,-258
36463,7415,0,2023-03-01T18:58:23.277297,2092821,1389,1789,-822,-1041,-579,-318,-28,112,-258
36464,7416,0,2023-03-01T18:58:23.283196,2092827,1389,1789,-822,-1041,-579,-318,-28,112,-258
36465,7417,0,2023-03-01T18:58:23.288671,2092832,1389,1789,-822,-1041,-579,-318,-28,112,-258
36466,7418,0,2023-03-01T18:58:23.294228,2092838,1384,1788,-822,-1040,-576,-321,-28,112,-258
36467,7419,0,2023-03-01T18:58:23.299540,2092844,1384,1788,-822,-1040,-576,-321,-28,112,-258
36468,7420,0,2023-03-01T18:58:23.304480,2092849,1384,1788,-822,-1040,-576,-321,-28,112,-258
36469,7421,0,2023-03-01T18:58:23.310252,2092854,1384,1788,-822,-1040,-576,-321,-28,112,-258
36470,7422,0,2023-03-01T18:58:23.315405,2092859,1386,1790,-818,-1032,-573,-319,-28,112,-258
36471,7423,0,2023-03-01T18:58:23.321894,2092866,1386,1790,-818,-1032,-573,-319,-28,112,-258
36472,7424,0,2023-03-01T18:58:23.326419,2092871,1386,1790,-818,-1032,-573,-319,-28,112,-258
36473,7425,0,2023-03-01T18:58:23.331829,2092876,1386,1790,-818,-1032,-573,-319,-28,112,-258
36474,7426,0,2023-03-01T18:58:23.336843,2092880,1387,1786,-821,-1038,-568,-322,-28,112,-258
36475,7427,0,2023-03-01T18:58:23.342685,2092887,1387,1786,-821,-1038,-568,-322,-28,112,-258
36476,7428,0,2023-03-01T18:58:23.347532,2092892,1387,1786,-821,-1038,-568,-322,-28,112,-258
36477,7429,0,2023-03-01T18:58:23.352808,2092897,1387,1786,-821,-1038,-568,-322,-28,112,-258
36478,7430,0,2023-03-01T18:58:23.358102,2092902,1386,1787,-814,-1042,-573,-321,-28,112,-258
36479,7431,0,2023-03-01T18:58:23.363742,2092907,1386,1787,-814,-1042,-573,-321,-28,112,-258
36480,7432,0,2023-03-01T18:58:23.368491,2092912,1386,1787,-814,-1042,-573,-321,-28,112,-258
36481,7433,0,2023-03-01T18:58:23.374479,2092918,1385,1786,-815,-1044,-576,-324,-28,112,-258
36482,7434,0,2023-03-01T18:58:23.380515,2092924,1385,1786,-815,-1044,-576,-324,-33,115,-259
36483,7435,0,2023-03-01T18:58:23.385574,2092930,1385,1786,-815,-1044,-576,-324,-33,115,-259
36484,7436,0,2023-03-01T18:58:23.391862,2092936,1385,1786,-815,-1044,-576,-324,-33,115,-259
36485,7437,0,2023-03-01T18:58:23.396860,2092941,1383,1792,-820,-1045,-574,-324,-33,115,-259
36486,7438,0,2023-03-01T18:58:23.403212,2092947,1383,1792,-820,-1045,-574,-324,-33,115,-259
36487,7439,0,2023-03-01T18:58:23.408104,2092952,1383,1792,-820,-1045,-574,-324,-33,115,-259
36488,7440,0,2023-03-01T18:58:23.413471,2092957,1383,1792,-820,-1045,-574,-324,-33,115,-259
36489,7441,0,2023-03-01T18:58:23.418620,2092962,1386,1790,-829,-1049,-574,-322,-33,115,-259
36490,7442,0,2023-03-01T18:58:23.424067,2092968,1386,1790,-829,-1049,-574,-322,-33,115,-259
36491,7443,0,2023-03-01T18:58:23.430117,2092974,1386,1790,-829,-1049,-574,-322,-33,115,-259
36492,7444,0,2023-03-01T18:58:23.434859,2092980,1388,1789,-814,-1043,-577,-326,-33,115,-259
36493,7445,0,2023-03-01T18:58:23.440981,2092985,1388,1789,-814,-1043,-577,-326,-33,115,-259
36494,7446,0,2023-03-01T18:58:23.445885,2092990,1388,1789,-814,-1043,-577,-326,-33,115,-259
36495,7447,0,2023-03-01T18:58:23.451589,2092995,1388,1789,-814,-1043,-577,-326,-33,115,-259
36496,7448,0,2023-03-01T18:58:23.456926,2093001,1386,1790,-818,-1037,-576,-327,-33,115,-259
36497,7449,0,2023-03-01T18:58:23.463188,2093007,1386,1790,-818,-1037,-576,-327,-33,115,-259
36498,7450,0,2023-03-01T18:58:23.468133,2093012,1386,1790,-818,-1037,-576,-327,-33,115,-259
36499,7451,0,2023-03-01T18:58:23.473349,2093018,1386,1790,-818,-1037,-576,-327,-33,115,-259
36500,7452,0,2023-03-01T18:58:23.479380,2093023,1388,1789,-820,-1045,-569,-323,-33,115,-259
36501,7453,0,2023-03-01T18:58:23.485486,2093029,1388,1789,-820,-1045,-569,-323,-33,115,-259
36502,7454,0,2023-03-01T18:58:23.492693,2093037,1388,1789,-820,-1045,-569,-323,-33,115,-259
36503,7455,0,2023-03-01T18:58:23.497396,2093041,1388,1790,-814,-1041,-573,-319,-34,106,-260
36504,7456,0,2023-03-01T18:58:23.503394,2093047,1388,1790,-814,-1041,-573,-319,-34,106,-260
36505,7457,0,2023-03-01T18:58:23.508517,2093052,1388,1790,-814,-1041,-573,-319,-34,106,-260
36506,7458,0,2023-03-01T18:58:23.514190,2093059,1388,1790,-814,-1041,-573,-319,-34,106,-260
36507,7459,0,2023-03-01T18:58:23.519422,2093064,1386,1786,-816,-1042,-576,-324,-34,106,-260
36508,7460,0,2023-03-01T18:58:23.525123,2093070,1386,1786,-816,-1042,-576,-324,-34,106,-260
36509,7461,0,2023-03-01T18:58:23.530603,2093075,1386,1786,-816,-1042,-576,-324,-34,106,-260
36510,7462,0,2023-03-01T18:58:23.535255,2093079,1388,1786,-810,-1048,-571,-318,-34,106,-260
36511,7463,0,2023-03-01T18:58:23.542423,2093086,1388,1786,-810,-1048,-571,-318,-34,106,-260
36512,7464,0,2023-03-01T18:58:23.547272,2093091,1388,1786,-810,-1048,-571,-318,-34,106,-260
36513,7465,0,2023-03-01T18:58:23.552795,2093097,1388,1786,-810,-1048,-571,-318,-34,106,-260
36514,7466,0,2023-03-01T18:58:23.557739,2093102,1385,1790,-823,-1046,-573,-327,-34,106,-260
36515,7467,0,2023-03-01T18:58:23.563497,2093108,1385,1790,-823,-1046,-573,-327,-34,106,-260
36516,7468,0,2023-03-01T18:58:23.568259,2093113,1385,1790,-823,-1046,-573,-327,-34,106,-260
36517,7469,0,2023-03-01T18:58:23.574413,2093119,1388,1791,-820,-1031,-571,-325,-34,106,-260
36518,7470,0,2023-03-01T18:58:23.580511,2093124,1388,1791,-820,-1031,-571,-325,-34,106,-260
36519,7471,0,2023-03-01T18:58:23.585772,2093129,1388,1791,-820,-1031,-571,-325,-34,106,-260
36520,7472,0,2023-03-01T18:58:23.591466,2093135,1388,1791,-820,-1031,-571,-325,-34,106,-260
36521,7473,0,2023-03-01T18:58:23.597653,2093140,1388,1787,-820,-1041,-573,-321,-34,106,-260
36522,7474,0,2023-03-01T18:58:23.605118,2093150,1388,1787,-820,-1041,-573,-321,-34,106,-260
36523,7475,0,2023-03-01T18:58:23.610482,2093155,1388,1787,-820,-1041,-573,-321,-34,106,-260
36524,7476,0,2023-03-01T18:58:23.614970,2093159,1389,1788,-831,-1040,-571,-326,-34,106,-260
36525,7477,0,2023-03-01T18:58:23.620829,2093165,1389,1788,-831,-1040,-571,-326,-34,106,-260
36526,7478,0,2023-03-01T18:58:23.625776,2093170,1389,1788,-831,-1040,-571,-326,-34,106,-260
36527,7479,0,2023-03-01T18:58:23.631239,2093175,1389,1788,-831,-1040,-571,-326,-34,106,-260
36528,7480,0,2023-03-01T18:58:23.636024,2093180,1386,1789,-819,-1043,-569,-323,-27,121,-263
36529,7481,0,2023-03-01T18:58:23.642159,2093187,1386,1789,-819,-1043,-569,-323,-27,121,-263
36530,7482,0,2023-03-01T18:58:23.647538,2093192,1386,1789,-819,-1043,-569,-323,-27,121,-263
36531,7483,0,2023-03-01T18:58:23.653367,2093197,1386,1789,-819,-1043,-569,-323,-27,121,-263
36532,7484,0,2023-03-01T18:58:23.658447,2093203,1387,1791,-819,-1049,-570,-323,-27,121,-263
36533,7485,0,2023-03-01T18:58:23.664037,2093208,1387,1791,-819,-1049,-570,-323,-27,121,-263
36534,7486,0,2023-03-01T18:58:23.669618,2093214,1387,1791,-819,-1049,-570,-323,-27,121,-263
36535,7487,0,2023-03-01T18:58:23.674402,2093218,1387,1791,-819,-1049,-570,-323,-27,121,-263
36536,7488,0,2023-03-01T18:58:23.679950,2093224,1388,1791,-815,-1044,-575,-323,-27,121,-263
36537,7489,0,2023-03-01T18:58:23.685686,2093230,1388,1791,-815,-1044,-575,-323,-27,121,-263
36538,7490,0,2023-03-01T18:58:23.691144,2093236,1388,1791,-815,-1044,-575,-323,-27,121,-263
36539,7491,0,2023-03-01T18:58:23.696052,2093240,1387,1789,-821,-1042,-567,-322,-27,121,-263
36540,7492,0,2023-03-01T18:58:23.702684,2093247,1387,1789,-821,-1042,-567,-322,-27,121,-263
36541,7493,0,2023-03-01T18:58:23.709455,2093252,1387,1789,-821,-1042,-567,-322,-27,121,-263
36542,7494,0,2023-03-01T18:58:23.716163,2093260,1387,1787,-818,-1047,-571,-330,-27,121,-263
36543,7495,0,2023-03-01T18:58:23.722959,2093266,1387,1787,-818,-1047,-571,-330,-27,121,-263
36544,7496,0,2023-03-01T18:58:23.727900,2093272,1387,1787,-818,-1047,-571,-330,-27,121,-263
36545,7497,0,2023-03-01T18:58:23.734348,2093279,1387,1787,-818,-1047,-571,-330,-27,121,-263
36546,7498,0,2023-03-01T18:58:23.739672,2093284,1389,1791,-818,-1043,-570,-321,-27,121,-263
36547,7499,0,2023-03-01T18:58:23.745536,2093289,1389,1791,-818,-1043,-570,-321,-27,121,-263
36548,7500,0,2023-03-01T18:58:23.750879,2093295,1389,1791,-818,-1043,-570,-321,-27,121,-263
36549,7501,0,2023-03-01T18:58:23.756139,2093300,1382,1789,-816,-1035,-577,-321,-34,108,-256
36550,7502,0,2023-03-01T18:58:23.762065,2093306,1382,1789,-816,-1035,-577,-321,-34,108,-256
36551,7503,0,2023-03-01T18:58:23.767437,2093312,1382,1789,-816,-1035,-577,-321,-34,108,-256
36552,7504,0,2023-03-01T18:58:23.774215,2093318,1382,1789,-816,-1035,-577,-321,-34,108,-256
36553,7505,0,2023-03-01T18:58:23.780211,2093324,1388,1786,-812,-1035,-571,-320,-34,108,-256
36554,7506,0,2023-03-01T18:58:23.785882,2093330,1388,1786,-812,-1035,-571,-320,-34,108,-256
36555,7507,0,2023-03-01T18:58:23.791481,2093335,1388,1786,-812,-1035,-571,-320,-34,108,-256
36556,7508,0,2023-03-01T18:58:23.796428,2093340,1389,1793,-819,-1037,-576,-324,-34,108,-256
36557,7509,0,2023-03-01T18:58:23.803025,2093346,1389,1793,-819,-1037,-576,-324,-34,108,-256
36558,7510,0,2023-03-01T18:58:23.808254,2093352,1389,1793,-819,-1037,-576,-324,-34,108,-256
36559,7511,0,2023-03-01T18:58:23.813780,2093358,1389,1793,-819,-1037,-576,-324,-34,108,-256
36560,7512,0,2023-03-01T18:58:23.819305,2093364,1385,1792,-818,-1043,-577,-323,-34,108,-256
36561,7513,0,2023-03-01T18:58:23.825098,2093369,1385,1792,-818,-1043,-577,-323,-34,108,-256
36562,7514,0,2023-03-01T18:58:23.831210,2093375,1385,1792,-818,-1043,-577,-323,-34,108,-256
36563,7515,0,2023-03-01T18:58:23.836265,2093380,1385,1792,-818,-1043,-577,-323,-34,108,-256
36564,7516,0,2023-03-01T18:58:23.841007,2093385,1385,1792,-818,-1043,-577,-323,-34,108,-256
36565,7517,0,2023-03-01T18:58:23.845690,2093389,1385,1792,-818,-1043,-577,-323,-34,108,-256
36566,7518,0,2023-03-01T18:58:23.851687,2093395,1385,1792,-818,-1043,-577,-323,-34,108,-256
36567,7519,0,2023-03-01T18:58:23.856590,2093401,1386,1790,-818,-1040,-575,-319,-34,108,-256
36568,7520,0,2023-03-01T18:58:23.863104,2093408,1386,1790,-818,-1040,-575,-319,-34,108,-256
36569,7521,0,2023-03-01T18:58:23.868396,2093412,1386,1790,-818,-1040,-575,-319,-34,108,-256
36570,7522,0,2023-03-01T18:58:23.873615,2093418,1386,1790,-818,-1040,-575,-319,-34,108,-256
36571,7523,0,2023-03-01T18:58:23.878242,2093423,1385,1790,-816,-1044,-575,-324,-34,108,-256
36572,7524,0,2023-03-01T18:58:23.884299,2093428,1385,1790,-816,-1044,-575,-324,-34,108,-256
36573,7525,0,2023-03-01T18:58:23.889949,2093434,1385,1790,-816,-1044,-575,-324,-34,108,-256
36574,7526,0,2023-03-01T18:58:23.895408,2093440,1390,1789,-811,-1035,-575,-323,-30,106,-254
36575,7527,0,2023-03-01T18:58:23.901972,2093446,1390,1789,-811,-1035,-575,-323,-30,106,-254
36576,7528,0,2023-03-01T18:58:23.906988,2093451,1390,1789,-811,-1035,-575,-323,-30,106,-254
36577,7529,0,2023-03-01T18:58:23.912836,2093457,1390,1789,-811,-1035,-575,-323,-30,106,-254
36578,7530,0,2023-03-01T18:58:23.919748,2093464,1387,1790,-822,-1039,-567,-318,-30,106,-254
36579,7531,0,2023-03-01T18:58:23.926097,2093469,1387,1790,-822,-1039,-567,-318,-30,106,-254
36580,7532,0,2023-03-01T18:58:23.932076,2093476,1387,1790,-822,-1039,-567,-318,-30,106,-254
36581,7533,0,2023-03-01T18:58:23.937111,2093481,1387,1788,-816,-1045,-569,-319,-30,106,-254
36582,7534,0,2023-03-01T18:58:23.943558,2093488,1387,1788,-816,-1045,-569,-319,-30,106,-254
36583,7535,0,2023-03-01T18:58:23.948338,2093493,1387,1788,-816,-1045,-569,-319,-30,106,-254
36584,7536,0,2023-03-01T18:58:23.953787,2093498,1387,1788,-816,-1045,-569,-319,-30,106,-254
36585,7537,0,2023-03-01T18:58:23.958910,2093503,1390,1787,-817,-1047,-573,-323,-30,106,-254
36586,7538,0,2023-03-01T18:58:23.964866,2093508,1390,1787,-817,-1047,-573,-323,-30,106,-254
36587,7539,0,2023-03-01T18:58:23.970922,2093514,1390,1787,-817,-1047,-573,-323,-30,106,-254
36588,7540,0,2023-03-01T18:58:23.976237,2093520,1386,1788,-818,-1042,-578,-313,-30,106,-254
36589,7541,0,2023-03-01T18:58:23.982802,2093527,1386,1788,-818,-1042,-578,-313,-30,106,-254
36590,7542,0,2023-03-01T18:58:23.988227,2093532,1386,1788,-818,-1042,-578,-313,-30,106,-254
36591,7543,0,2023-03-01T18:58:23.994942,2093539,1386,1788,-818,-1042,-578,-313,-30,106,-254
36592,7544,0,2023-03-01T18:58:24.002021,2093546,1386,1790,-817,-1040,-570,-319,-30,106,-254
36593,7545,0,2023-03-01T18:58:24.008288,2093552,1386,1790,-817,-1040,-570,-319,-30,106,-254
36594,7546,0,2023-03-01T18:58:24.014171,2093558,1386,1790,-817,-1040,-570,-319,-30,106,-254
36595,7547,0,2023-03-01T18:58:24.019817,2093563,1385,1788,-812,-1038,-571,-320,-29,111,-255
36596,7548,0,2023-03-01T18:58:24.025641,2093570,1385,1788,-812,-1038,-571,-320,-29,111,-255
36597,7549,0,2023-03-01T18:58:24.031806,2093576,1385,1788,-812,-1038,-571,-320,-29,111,-255
36598,7550,0,2023-03-01T18:58:24.037326,2093581,1387,1790,-817,-1043,-573,-326,-29,111,-255
36599,7551,0,2023-03-01T18:58:24.044298,2093588,1387,1790,-817,-1043,-573,-326,-29,111,-255
36600,7552,0,2023-03-01T18:58:24.050271,2093594,1387,1790,-817,-1043,-573,-326,-29,111,-255
36601,7553,0,2023-03-01T18:58:24.055503,2093599,1385,1790,-818,-1038,-568,-317,-29,111,-255
36602,7554,0,2023-03-01T18:58:24.061485,2093605,1385,1790,-818,-1038,-568,-317,-29,111,-255
36603,7555,0,2023-03-01T18:58:24.066168,2093611,1385,1790,-818,-1038,-568,-317,-29,111,-255
36604,7556,0,2023-03-01T18:58:24.071450,2093616,1385,1790,-818,-1038,-568,-317,-29,111,-255
36605,7557,0,2023-03-01T18:58:24.076237,2093621,1388,1787,-819,-1041,-574,-320,-29,111,-255
36606,7558,0,2023-03-01T18:58:24.081788,2093626,1388,1787,-819,-1041,-574,-320,-29,111,-255
36607,7559,0,2023-03-01T18:58:24.086912,2093631,1388,1787,-819,-1041,-574,-320,-29,111,-255
36608,7560,0,2023-03-01T18:58:24.092793,2093637,1388,1787,-819,-1041,-574,-320,-29,111,-255
36609,7561,0,2023-03-01T18:58:24.097657,2093642,1386,1790,-822,-1041,-568,-314,-29,111,-255
36610,7562,0,2023-03-01T18:58:24.103199,2093647,1386,1790,-822,-1041,-568,-314,-29,111,-255
36611,7563,0,2023-03-01T18:58:24.107913,2093652,1386,1790,-822,-1041,-568,-314,-29,111,-255
36612,7564,0,2023-03-01T18:58:24.113656,2093658,1386,1790,-822,-1041,-568,-314,-29,111,-255
36613,7565,0,2023-03-01T18:58:24.118294,2093663,1388,1790,-820,-1035,-570,-315,-29,111,-255
36614,7566,0,2023-03-01T18:58:24.123899,2093668,1388,1790,-820,-1035,-570,-315,-29,111,-255
36615,7567,0,2023-03-01T18:58:24.129349,2093673,1388,1790,-820,-1035,-570,-315,-29,111,-255
36616,7568,0,2023-03-01T18:58:24.134439,2093678,1388,1790,-820,-1035,-570,-315,-29,111,-255
36617,7569,0,2023-03-01T18:58:24.140307,2093684,1386,1790,-821,-1043,-567,-317,-36,112,-262
36618,7570,0,2023-03-01T18:58:24.146110,2093690,1386,1790,-821,-1043,-567,-317,-36,112,-262
36619,7571,0,2023-03-01T18:58:24.151852,2093696,1386,1790,-821,-1043,-567,-317,-36,112,-262
36620,7572,0,2023-03-01T18:58:24.156891,2093702,1389,1790,-816,-1045,-572,-319,-36,112,-262
36621,7573,0,2023-03-01T18:58:24.163319,2093708,1389,1790,-816,-1045,-572,-319,-36,112,-262
36622,7574,0,2023-03-01T18:58:24.168236,2093712,1389,1790,-816,-1045,-572,-319,-36,112,-262
36623,7575,0,2023-03-01T18:58:24.173646,2093718,1389,1790,-816,-1045,-572,-319,-36,112,-262
36624,7576,0,2023-03-01T18:58:24.178867,2093723,1388,1790,-817,-1034,-575,-316,-36,112,-262
36625,7577,0,2023-03-01T18:58:24.184445,2093728,1388,1790,-817,-1034,-575,-316,-36,112,-262
36626,7578,0,2023-03-01T18:58:24.190222,2093734,1388,1790,-817,-1034,-575,-316,-36,112,-262
36627,7579,0,2023-03-01T18:58:24.195473,2093740,1386,1788,-814,-1033,-570,-319,-36,112,-262
36628,7580,0,2023-03-01T18:58:24.200947,2093746,1386,1788,-814,-1033,-570,-319,-36,112,-262
36629,7581,0,2023-03-01T18:58:24.206452,2093750,1386,1788,-814,-1033,-570,-319,-36,112,-262
36630,7582,0,2023-03-01T18:58:24.212392,2093756,1386,1788,-814,-1033,-570,-319,-36,112,-262
36631,7583,0,2023-03-01T18:58:24.217219,2093761,1386,1790,-817,-1038,-572,-319,-36,112,-262
36632,7584,0,2023-03-01T18:58:24.223506,2093767,1386,1790,-817,-1038,-572,-319,-36,112,-262
36633,7585,0,2023-03-01T18:58:24.228441,2093772,1386,1790,-817,-1038,-572,-319,-36,112,-262
36634,7586,0,2023-03-01T18:58:24.234461,2093778,1386,1790,-817,-1038,-572,-319,-36,112,-262
36635,7587,0,2023-03-01T18:58:24.239429,2093784,1388,1789,-819,-1041,-573,-319,-36,112,-262
36636,7588,0,2023-03-01T18:58:24.245943,2093790,1388,1789,-819,-1041,-573,-319,-36,112,-262
36637,7589,0,2023-03-01T18:58:24.251350,2093796,1388,1789,-819,-1041,-573,-319,-36,112,-262
36638,7590,0,2023-03-01T18:58:24.257145,2093801,1388,1788,-814,-1040,-573,-323,-36,112,-262
36639,7591,0,2023-03-01T18:58:24.263344,2093807,1388,1788,-814,-1040,-573,-323,-36,112,-262
36640,7592,0,2023-03-01T18:58:24.268374,2093812,1388,1788,-814,-1040,-573,-323,-36,112,-262
36641,7593,0,2023-03-01T18:58:24.273949,2093817,1388,1788,-814,-1040,-573,-323,-36,112,-262
36642,7594,0,2023-03-01T18:58:24.280255,2093825,1388,1790,-816,-1042,-568,-325,-32,114,-266
36643,7595,0,2023-03-01T18:58:24.287303,2093831,1388,1790,-816,-1042,-568,-325,-32,114,-266
36644,7596,0,2023-03-01T18:58:24.293449,2093838,1388,1790,-816,-1042,-568,-325,-32,114,-266
36645,7597,0,2023-03-01T18:58:24.298343,2093842,1388,1790,-818,-1039,-572,-323,-32,114,-266
36646,7598,0,2023-03-01T18:58:24.304511,2093848,1388,1790,-818,-1039,-572,-323,-32,114,-266
36647,7599,0,2023-03-01T18:58:24.310093,2093854,1388,1790,-818,-1039,-572,-323,-32,114,-266
36648,7600,0,2023-03-01T18:58:24.315336,2093859,1389,1788,-820,-1032,-571,-320,-32,114,-266
36649,7601,0,2023-03-01T18:58:24.321467,2093865,1389,1788,-820,-1032,-571,-320,-32,114,-266
36650,7602,0,2023-03-01T18:58:24.326805,2093871,1389,1788,-820,-1032,-571,-320,-32,114,-266
36651,7603,0,2023-03-01T18:58:24.331518,2093876,1389,1788,-820,-1032,-571,-320,-32,114,-266
36652,7604,0,2023-03-01T18:58:24.336223,2093881,1390,1790,-827,-1031,-569,-321,-32,114,-266
36653,7605,0,2023-03-01T18:58:24.342327,2093886,1390,1790,-827,-1031,-569,-321,-32,114,-266
36654,7606,0,2023-03-01T18:58:24.347094,2093891,1390,1790,-827,-1031,-569,-321,-32,114,-266
36655,7607,0,2023-03-01T18:58:24.352442,2093896,1390,1790,-827,-1031,-569,-321,-32,114,-266
36656,7608,0,2023-03-01T18:58:24.358188,2093902,1387,1792,-817,-1033,-573,-322,-32,114,-266
36657,7609,0,2023-03-01T18:58:24.363690,2093907,1387,1792,-817,-1033,-573,-322,-32,114,-266
36658,7610,0,2023-03-01T18:58:24.368905,2093913,1387,1792,-817,-1033,-573,-322,-32,114,-266
36659,7611,0,2023-03-01T18:58:24.374171,2093919,1387,1792,-817,-1033,-573,-322,-32,114,-266
36660,7612,0,2023-03-01T18:58:24.379245,2093923,1389,1792,-821,-1036,-568,-330,-32,114,-266
36661,7613,0,2023-03-01T18:58:24.384987,2093929,1389,1792,-821,-1036,-568,-330,-32,114,-266
36662,7614,0,2023-03-01T18:58:24.389555,2093934,1389,1792,-821,-1036,-568,-330,-32,114,-266
36663,7615,0,2023-03-01T18:58:24.394216,2093938,1389,1792,-821,-1036,-568,-330,-32,114,-266
36664,7616,0,2023-03-01T18:58:24.400332,2093944,1387,1789,-812,-1046,-573,-313,-30,122,-258
36665,7617,0,2023-03-01T18:58:24.405651,2093949,1387,1789,-812,-1046,-573,-313,-30,122,-258
36666,7618,0,2023-03-01T18:58:24.411494,2093956,1387,1789,-812,-1046,-573,-313,-30,122,-258
36667,7619,0,2023-03-01T18:58:24.416433,2093961,1388,1788,-815,-1034,-575,-312,-30,122,-258
36668,7620,0,2023-03-01T18:58:24.421566,2093966,1388,1788,-815,-1034,-575,-312,-30,122,-258
36669,7621,0,2023-03-01T18:58:24.426284,2093971,1388,1788,-815,-1034,-575,-312,-30,122,-258
36670,7622,0,2023-03-01T18:58:24.431556,2093976,1388,1788,-815,-1034,-575,-312,-30,122,-258
36671,7623,0,2023-03-01T18:58:24.436257,2093980,1386,1788,-815,-1031,-571,-324,-30,122,-258
36672,7624,0,2023-03-01T18:58:24.442643,2093986,1386,1788,-815,-1031,-571,-324,-30,122,-258
36673,7625,0,2023-03-01T18:58:24.447536,2093991,1386,1788,-815,-1031,-571,-324,-30,122,-258
36674,7626,0,2023-03-01T18:58:24.452792,2093997,1386,1788,-815,-1031,-571,-324,-30,122,-258
36675,7627,0,2023-03-01T18:58:24.458119,2094003,1389,1789,-820,-1033,-568,-325,-30,122,-258
36676,7628,0,2023-03-01T18:58:24.463485,2094008,1389,1789,-820,-1033,-568,-325,-30,122,-258
36677,7629,0,2023-03-01T18:58:24.468825,2094013,1389,1789,-820,-1033,-568,-325,-30,122,-258
36678,7630,0,2023-03-01T18:58:24.474262,2094018,1389,1789,-820,-1033,-568,-325,-30,122,-258
36679,7631,0,2023-03-01T18:58:24.478990,2094023,1386,1791,-824,-1035,-568,-315,-30,122,-258
36680,7632,0,2023-03-01T18:58:24.484591,2094028,1386,1791,-824,-1035,-568,-315,-30,122,-258
36681,7633,0,2023-03-01T18:58:24.490600,2094034,1386,1791,-824,-1035,-568,-315,-30,122,-258
36682,7634,0,2023-03-01T18:58:24.495326,2094040,1386,1791,-824,-1035,-568,-315,-30,122,-258
36683,7635,0,2023-03-01T18:58:24.500137,2094045,1388,1789,-819,-1035,-566,-320,-30,122,-258
36684,7636,0,2023-03-01T18:58:24.505587,2094050,1388,1789,-819,-1035,-566,-320,-30,122,-258
36685,7637,0,2023-03-01T18:58:24.510723,2094055,1388,1789,-819,-1035,-566,-320,-30,122,-258
36686,7638,0,2023-03-01T18:58:24.515455,2094060,1388,1789,-819,-1035,-566,-320,-30,122,-258
36687,7639,0,2023-03-01T18:58:24.521025,2094065,1388,1789,-819,-1035,-566,-320,-30,122,-258
36688,7640,0,2023-03-01T18:58:24.525749,2094070,1388,1789,-819,-1035,-566,-320,-30,122,-258
36689,7641,0,2023-03-01T18:58:24.531086,2094075,1388,1789,-819,-1035,-566,-320,-30,122,-258
36690,7642,0,2023-03-01T18:58:24.535687,2094081,1384,1788,-817,-1040,-568,-319,-32,118,-258
36691,7643,0,2023-03-01T18:58:24.541540,2094086,1384,1788,-817,-1040,-568,-319,-32,118,-258
36692,7644,0,2023-03-01T18:58:24.546402,2094091,1384,1788,-817,-1040,-568,-319,-32,118,-258
36693,7645,0,2023-03-01T18:58:24.551647,2094096,1384,1788,-817,-1040,-568,-319,-32,118,-258
36694,7646,0,2023-03-01T18:58:24.556728,2094101,1389,1792,-816,-1042,-565,-320,-32,118,-258
36695,7647,0,2023-03-01T18:58:24.563037,2094107,1389,1792,-816,-1042,-565,-320,-32,118,-258
36696,7648,0,2023-03-01T18:58:24.567817,2094112,1389,1792,-816,-1042,-565,-320,-32,118,-258
36697,7649,0,2023-03-01T18:58:24.573020,2094117,1389,1792,-816,-1042,-565,-320,-32,118,-258
36698,7650,0,2023-03-01T18:58:24.578537,2094123,1382,1792,-821,-1036,-579,-319,-32,118,-258
36699,7651,0,2023-03-01T18:58:24.584577,2094129,1382,1792,-821,-1036,-579,-319,-32,118,-258
36700,7652,0,2023-03-01T18:58:24.591737,2094136,1382,1792,-821,-1036,-579,-319,-32,118,-258
36701,7653,0,2023-03-01T18:58:24.596524,2094141,1387,1789,-821,-1030,-573,-316,-32,118,-258
36702,7654,0,2023-03-01T18:58:24.603007,2094147,1387,1789,-821,-1030,-573,-316,-32,118,-258
36703,7655,0,2023-03-01T18:58:24.607657,2094152,1387,1789,-821,-1030,-573,-316,-32,118,-258
36704,7656,0,2023-03-01T18:58:24.613002,2094157,1387,1789,-821,-1030,-573,-316,-32,118,-258
36705,7657,0,2023-03-01T18:58:24.617862,2094161,1388,1790,-820,-1037,-570,-318,-32,118,-258
36706,7658,0,2023-03-01T18:58:24.623132,2094168,1388,1790,-820,-1037,-570,-318,-32,118,-258
36707,7659,0,2023-03-01T18:58:24.628645,2094173,1388,1790,-820,-1037,-570,-318,-32,118,-258
36708,7660,0,2023-03-01T18:58:24.634516,2094179,1388,1790,-820,-1037,-570,-318,-32,118,-258
36709,7661,0,2023-03-01T18:58:24.640025,2094184,1386,1791,-820,-1033,-573,-323,-32,118,-258
36710,7662,0,2023-03-01T18:58:24.645281,2094190,1386,1791,-820,-1033,-573,-323,-32,118,-258
36711,7663,0,2023-03-01T18:58:24.651068,2094195,1386,1791,-820,-1033,-573,-323,-32,118,-258
36712,7664,0,2023-03-01T18:58:24.656414,2094200,1387,1791,-820,-1043,-573,-311,-33,111,-259
36713,7665,0,2023-03-01T18:58:24.662550,2094206,1387,1791,-820,-1043,-573,-311,-33,111,-259
36714,7666,0,2023-03-01T18:58:24.667088,2094212,1387,1791,-820,-1043,-573,-311,-33,111,-259
36715,7667,0,2023-03-01T18:58:24.672234,2094217,1387,1791,-820,-1043,-573,-311,-33,111,-259
36716,7668,0,2023-03-01T18:58:24.677066,2094221,1387,1788,-820,-1039,-577,-319,-33,111,-259
36717,7669,0,2023-03-01T18:58:24.682776,2094227,1387,1788,-820,-1039,-577,-319,-33,111,-259
36718,7670,0,2023-03-01T18:58:24.688256,2094232,1387,1788,-820,-1039,-577,-319,-33,111,-259
36719,7671,0,2023-03-01T18:58:24.693761,2094238,1387,1788,-820,-1039,-577,-319,-33,111,-259
36720,7672,0,2023-03-01T18:58:24.699669,2094243,1385,1789,-818,-1037,-568,-315,-33,111,-259
36721,7673,0,2023-03-01T18:58:24.705753,2094249,1385,1789,-818,-1037,-568,-315,-33,111,-259
36722,7674,0,2023-03-01T18:58:24.711864,2094256,1385,1789,-818,-1037,-568,-315,-33,111,-259
36723,7675,0,2023-03-01T18:58:24.717018,2094261,1387,1790,-824,-1035,-567,-320,-33,111,-259
36724,7676,0,2023-03-01T18:58:24.723447,2094267,1387,1790,-824,-1035,-567,-320,-33,111,-259
36725,7677,0,2023-03-01T18:58:24.728684,2094273,1387,1790,-824,-1035,-567,-320,-33,111,-259
36726,7678,0,2023-03-01T18:58:24.733993,2094278,1387,1790,-824,-1035,-567,-320,-33,111,-259
36727,7679,0,2023-03-01T18:58:24.738776,2094283,1386,1790,-818,-1035,-567,-322,-33,111,-259
36728,7680,0,2023-03-01T18:58:24.744861,2094288,1386,1790,-818,-1035,-567,-322,-33,111,-259
36729,7681,0,2023-03-01T18:58:24.750555,2094295,1386,1790,-818,-1035,-567,-322,-33,111,-259
36730,7682,0,2023-03-01T18:58:24.755792,2094300,1386,1790,-818,-1035,-567,-322,-33,111,-259
36731,7683,0,2023-03-01T18:58:24.761248,2094305,1387,1788,-817,-1040,-578,-319,-33,111,-259
36732,7684,0,2023-03-01T18:58:24.768929,2094313,1387,1788,-817,-1040,-578,-319,-33,111,-259
36733,7685,0,2023-03-01T18:58:24.774818,2094319,1387,1788,-817,-1040,-578,-319,-33,111,-259
36734,7686,0,2023-03-01T18:58:24.780559,2094324,1389,1789,-814,-1034,-574,-317,-33,111,-259
36735,7687,0,2023-03-01T18:58:24.786275,2094330,1389,1789,-814,-1034,-574,-317,-33,111,-259
36736,7688,0,2023-03-01T18:58:24.791836,2094336,1389,1789,-814,-1034,-574,-317,-33,111,-259
36737,7689,0,2023-03-01T18:58:24.797109,2094342,1388,1790,-819,-1028,-571,-317,-35,113,-267
36738,7690,0,2023-03-01T18:58:24.804068,2094348,1388,1790,-819,-1028,-571,-317,-35,113,-267
36739,7691,0,2023-03-01T18:58:24.809423,2094353,1388,1790,-819,-1028,-571,-317,-35,113,-267
36740,7692,0,2023-03-01T18:58:24.815324,2094359,1388,1790,-819,-1028,-571,-317,-35,113,-267
36741,7693,0,2023-03-01T18:58:24.821210,2094365,1388,1789,-816,-1034,-571,-319,-35,113,-267
36742,7694,0,2023-03-01T18:58:24.827468,2094371,1388,1789,-816,-1034,-571,-319,-35,113,-267
36743,7695,0,2023-03-01T18:58:24.832845,2094377,1388,1789,-816,-1034,-571,-319,-35,113,-267
36744,7696,0,2023-03-01T18:58:24.838284,2094383,1387,1786,-819,-1045,-570,-320,-35,113,-267
36745,7697,0,2023-03-01T18:58:24.843949,2094388,1387,1786,-819,-1045,-570,-320,-35,113,-267
36746,7698,0,2023-03-01T18:58:24.850146,2094394,1387,1786,-819,-1045,-570,-320,-35,113,-267
36747,7699,0,2023-03-01T18:58:24.855036,2094399,1387,1786,-819,-1045,-570,-320,-35,113,-267
36748,7700,0,2023-03-01T18:58:24.860783,2094405,1385,1789,-826,-1042,-574,-315,-35,113,-267
36749,7701,0,2023-03-01T18:58:24.866494,2094410,1385,1789,-826,-1042,-574,-315,-35,113,-267
36750,7702,0,2023-03-01T18:58:24.872064,2094416,1385,1789,-826,-1042,-574,-315,-35,113,-267
36751,7703,0,2023-03-01T18:58:24.877199,2094422,1388,1791,-821,-1034,-571,-328,-35,113,-267
36752,7704,0,2023-03-01T18:58:24.883508,2094428,1388,1791,-821,-1034,-571,-328,-35,113,-267
36753,7705,0,2023-03-01T18:58:24.888398,2094433,1388,1791,-821,-1034,-571,-328,-35,113,-267
36754,7706,0,2023-03-01T18:58:24.893895,2094438,1388,1791,-821,-1034,-571,-328,-35,113,-267
36755,7707,0,2023-03-01T18:58:24.898965,2094443,1387,1788,-818,-1035,-570,-322,-35,113,-267
36756,7708,0,2023-03-01T18:58:24.905127,2094449,1387,1788,-818,-1035,-570,-322,-35,113,-267
36757,7709,0,2023-03-01T18:58:24.910679,2094455,1387,1788,-818,-1035,-570,-322,-35,113,-267
36758,7710,0,2023-03-01T18:58:24.915857,2094460,1387,1788,-818,-1035,-570,-322,-35,113,-267
36759,7711,0,2023-03-01T18:58:24.921455,2094466,1388,1789,-813,-1035,-571,-315,-34,112,-264
36760,7712,0,2023-03-01T18:58:24.927015,2094471,1388,1789,-813,-1035,-571,-315,-34,112,-264
36761,7713,0,2023-03-01T18:58:24.932232,2094476,1388,1789,-813,-1035,-571,-315,-34,112,-264
36762,7714,0,2023-03-01T18:58:24.937233,2094481,1389,1787,-817,-1031,-568,-323,-34,112,-264
36763,7715,0,2023-03-01T18:58:24.943709,2094488,1389,1787,-817,-1031,-568,-323,-34,112,-264
36764,7716,0,2023-03-01T18:58:24.948769,2094493,1389,1787,-817,-1031,-568,-323,-34,112,-264
36765,7717,0,2023-03-01T18:58:24.954333,2094498,1389,1787,-817,-1031,-568,-323,-34,112,-264
36766,7718,0,2023-03-01T18:58:24.959340,2094503,1389,1787,-815,-1026,-573,-323,-34,112,-264
36767,7719,0,2023-03-01T18:58:24.965271,2094510,1389,1787,-815,-1026,-573,-323,-34,112,-264
36768,7720,0,2023-03-01T18:58:24.971254,2094515,1389,1787,-815,-1026,-573,-323,-34,112,-264
36769,7721,0,2023-03-01T18:58:24.976326,2094521,1391,1790,-816,-1035,-568,-317,-34,112,-264
36770,7722,0,2023-03-01T18:58:24.982261,2094526,1391,1790,-816,-1035,-568,-317,-34,112,-264
36771,7723,0,2023-03-01T18:58:24.987362,2094531,1391,1790,-816,-1035,-568,-317,-34,112,-264
36772,7724,0,2023-03-01T18:58:24.993160,2094537,1391,1790,-816,-1035,-568,-317,-34,112,-264
36773,7725,0,2023-03-01T18:58:24.998333,2094542,1387,1788,-819,-1041,-573,-318,-34,112,-264
36774,7726,0,2023-03-01T18:58:25.003902,2094547,1387,1788,-819,-1041,-573,-318,-34,112,-264
36775,7727,0,2023-03-01T18:58:25.008751,2094553,1387,1788,-819,-1041,-573,-318,-34,112,-264
36776,7728,0,2023-03-01T18:58:25.014149,2094559,1387,1788,-819,-1041,-573,-318,-34,112,-264
36777,7729,0,2023-03-01T18:58:25.019035,2094563,1387,1789,-818,-1042,-571,-320,-34,112,-264
36778,7730,0,2023-03-01T18:58:25.024835,2094569,1387,1789,-818,-1042,-571,-320,-34,112,-264
36779,7731,0,2023-03-01T18:58:25.031957,2094576,1387,1789,-818,-1042,-571,-320,-34,112,-264
36780,7732,0,2023-03-01T18:58:25.036778,2094581,1385,1790,-818,-1033,-569,-323,-32,114,-262
36781,7733,0,2023-03-01T18:58:25.042623,2094587,1385,1790,-818,-1033,-569,-323,-32,114,-262
36782,7734,0,2023-03-01T18:58:25.047492,2094592,1385,1790,-818,-1033,-569,-323,-32,114,-262
36783,7735,0,2023-03-01T18:58:25.053244,2094598,1385,1790,-818,-1033,-569,-323,-32,114,-262
36784,7736,0,2023-03-01T18:58:25.059040,2094603,1385,1789,-814,-1039,-570,-318,-32,114,-262
36785,7737,0,2023-03-01T18:58:25.064883,2094609,1385,1789,-814,-1039,-570,-318,-32,114,-262
36786,7738,0,2023-03-01T18:58:25.070138,2094614,1385,1789,-814,-1039,-570,-318,-32,114,-262
36787,7739,0,2023-03-01T18:58:25.075163,2094619,1385,1789,-814,-1039,-570,-318,-32,114,-262
36788,7740,0,2023-03-01T18:58:25.080828,2094625,1383,1789,-817,-1040,-577,-323,-32,114,-262
36789,7741,0,2023-03-01T18:58:25.086577,2094630,1383,1789,-817,-1040,-577,-323,-32,114,-262
36790,7742,0,2023-03-01T18:58:25.092005,2094637,1383,1789,-817,-1040,-577,-323,-32,114,-262
36791,7743,0,2023-03-01T18:58:25.096800,2094641,1389,1789,-821,-1043,-575,-322,-32,114,-262
36792,7744,0,2023-03-01T18:58:25.102580,2094647,1389,1789,-821,-1043,-575,-322,-32,114,-262
36793,7745,0,2023-03-01T18:58:25.107279,2094652,1389,1789,-821,-1043,-575,-322,-32,114,-262
36794,7746,0,2023-03-01T18:58:25.112691,2094657,1389,1789,-821,-1043,-575,-322,-32,114,-262
36795,7747,0,2023-03-01T18:58:25.118012,2094662,1389,1790,-823,-1043,-574,-309,-32,114,-262
36796,7748,0,2023-03-01T18:58:25.124004,2094668,1389,1790,-823,-1043,-574,-309,-32,114,-262
36797,7749,0,2023-03-01T18:58:25.129542,2094673,1389,1790,-823,-1043,-574,-309,-32,114,-262
36798,7750,0,2023-03-01T18:58:25.134706,2094679,1389,1790,-823,-1043,-574,-309,-32,114,-262
36799,7751,0,2023-03-01T18:58:25.141545,2094686,1391,1787,-822,-1045,-570,-322,-32,114,-262
36800,7752,0,2023-03-01T18:58:25.147253,2094692,1391,1787,-822,-1045,-570,-322,-32,114,-262
36801,7753,0,2023-03-01T18:58:25.153263,2094697,1391,1787,-822,-1045,-570,-322,-32,114,-262
36802,7754,0,2023-03-01T18:58:25.158163,2094702,1386,1789,-819,-1038,-572,-332,-32,114,-262
36803,7755,0,2023-03-01T18:58:25.164704,2094708,1386,1789,-819,-1038,-572,-332,-32,114,-262
36804,7756,0,2023-03-01T18:58:25.169635,2094713,1386,1789,-819,-1038,-572,-332,-32,114,-262
36805,7757,0,2023-03-01T18:58:25.174933,2094720,1386,1789,-819,-1038,-572,-332,-32,114,-262
36806,7758,0,2023-03-01T18:58:25.180468,2094725,1390,1791,-815,-1039,-569,-331,-33,101,-259
36807,7759,0,2023-03-01T18:58:25.186664,2094730,1390,1791,-815,-1039,-569,-331,-33,101,-259
36808,7760,0,2023-03-01T18:58:25.192365,2094737,1390,1791,-815,-1039,-569,-331,-33,101,-259
36809,7761,0,2023-03-01T18:58:25.197112,2094741,1388,1791,-818,-1039,-566,-317,-33,101,-259
36810,7762,0,2023-03-01T18:58:25.202989,2094747,1388,1791,-818,-1039,-566,-317,-33,101,-259
36811,7763,0,2023-03-01T18:58:25.207959,2094752,1388,1791,-818,-1039,-566,-317,-33,101,-259
36812,7764,0,2023-03-01T18:58:25.213062,2094757,1388,1791,-818,-1039,-566,-317,-33,101,-259
36813,7765,0,2023-03-01T18:58:25.218281,2094763,1384,1792,-817,-1037,-571,-319,-33,101,-259
36814,7766,0,2023-03-01T18:58:25.224079,2094768,1384,1792,-817,-1037,-571,-319,-33,101,-259
36815,7767,0,2023-03-01T18:58:25.229205,2094774,1384,1792,-817,-1037,-571,-319,-33,101,-259
36816,7768,0,2023-03-01T18:58:25.235196,2094779,1384,1792,-817,-1037,-571,-319,-33,101,-259
36817,7769,0,2023-03-01T18:58:25.240188,2094785,1384,1791,-821,-1040,-573,-316,-33,101,-259
36818,7770,0,2023-03-01T18:58:25.246295,2094790,1384,1791,-821,-1040,-573,-316,-33,101,-259
36819,7771,0,2023-03-01T18:58:25.251946,2094796,1384,1791,-821,-1040,-573,-316,-33,101,-259
36820,7772,0,2023-03-01T18:58:25.256932,2094801,1385,1789,-820,-1044,-571,-319,-33,101,-259
36821,7773,0,2023-03-01T18:58:25.263557,2094808,1385,1789,-820,-1044,-571,-319,-33,101,-259
36822,7774,0,2023-03-01T18:58:25.268468,2094813,1385,1789,-820,-1044,-571,-319,-33,101,-259
36823,7775,0,2023-03-01T18:58:25.274000,2094818,1385,1789,-820,-1044,-571,-319,-33,101,-259
36824,7776,0,2023-03-01T18:58:25.278911,2094823,1385,1790,-819,-1046,-565,-322,-33,101,-259
36825,7777,0,2023-03-01T18:58:25.284209,2094829,1385,1790,-819,-1046,-565,-322,-33,101,-259
36826,7778,0,2023-03-01T18:58:25.289849,2094834,1385,1790,-819,-1046,-565,-322,-33,101,-259
36827,7779,0,2023-03-01T18:58:25.295231,2094839,1385,1790,-819,-1046,-565,-322,-33,101,-259
36828,7780,0,2023-03-01T18:58:25.301035,2094845,1388,1790,-823,-1038,-575,-322,-30,114,-260
36829,7781,0,2023-03-01T18:58:25.306570,2094851,1388,1790,-823,-1038,-575,-322,-30,114,-260
36830,7782,0,2023-03-01T18:58:25.312491,2094857,1388,1790,-823,-1038,-575,-322,-30,114,-260
36831,7783,0,2023-03-01T18:58:25.317654,2094862,1390,1787,-818,-1043,-574,-318,-30,114,-260
36832,7784,0,2023-03-01T18:58:25.323652,2094868,1390,1787,-818,-1043,-574,-318,-30,114,-260
36833,7785,0,2023-03-01T18:58:25.328694,2094873,1390,1787,-818,-1043,-574,-318,-30,114,-260
36834,7786,0,2023-03-01T18:58:25.334203,2094878,1390,1787,-818,-1043,-574,-318,-30,114,-260
36835,7787,0,2023-03-01T18:58:25.339503,2094883,1385,1786,-822,-1034,-570,-318,-30,114,-260
36836,7788,0,2023-03-01T18:58:25.345714,2094889,1385,1786,-822,-1034,-570,-318,-30,114,-260
36837,7789,0,2023-03-01T18:58:25.351326,2094896,1385,1786,-822,-1034,-570,-318,-30,114,-260
36838,7790,0,2023-03-01T18:58:25.356276,2094901,1385,1786,-822,-1034,-570,-318,-30,114,-260
36839,7791,0,2023-03-01T18:58:25.362174,2094906,1388,1792,-825,-1037,-567,-328,-30,114,-260
36840,7792,0,2023-03-01T18:58:25.367683,2094912,1388,1792,-825,-1037,-567,-328,-30,114,-260
36841,7793,0,2023-03-01T18:58:25.373932,2094918,1388,1792,-825,-1037,-567,-328,-30,114,-260
36842,7794,0,2023-03-01T18:58:25.379554,2094923,1389,1789,-820,-1042,-568,-322,-30,114,-260
36843,7795,0,2023-03-01T18:58:25.384738,2094929,1389,1789,-820,-1042,-568,-322,-30,114,-260
36844,7796,0,2023-03-01T18:58:25.390277,2094935,1389,1789,-820,-1042,-568,-322,-30,114,-260
36845,7797,0,2023-03-01T18:58:25.395452,2094940,1389,1789,-820,-1042,-568,-322,-30,114,-260
36846,7798,0,2023-03-01T18:58:25.399960,2094945,1389,1790,-820,-1042,-569,-323,-30,114,-260
36847,7799,0,2023-03-01T18:58:25.405447,2094950,1389,1790,-820,-1042,-569,-323,-30,114,-260
36848,7800,0,2023-03-01T18:58:25.411181,2094955,1389,1790,-820,-1042,-569,-323,-30,114,-260
36849,7801,0,2023-03-01T18:58:25.416409,2094960,1389,1790,-820,-1042,-569,-323,-30,114,-260
36850,7802,0,2023-03-01T18:58:25.422154,2094966,1386,1789,-825,-1036,-565,-323,-30,114,-260
36851,7803,0,2023-03-01T18:58:25.426922,2094971,1386,1789,-825,-1036,-565,-323,-30,114,-260
36852,7804,0,2023-03-01T18:58:25.432259,2094977,1386,1789,-825,-1036,-565,-323,-30,114,-260
36853,7805,0,2023-03-01T18:58:25.436911,2094982,1385,1791,-815,-1030,-567,-321,-31,105,-259
36854,7806,0,2023-03-01T18:58:25.442174,2094987,1385,1791,-815,-1030,-567,-321,-31,105,-259
36855,7807,0,2023-03-01T18:58:25.447355,2094991,1385,1791,-815,-1030,-567,-321,-31,105,-259
36856,7808,0,2023-03-01T18:58:25.453783,2094998,1385,1791,-815,-1030,-567,-321,-31,105,-259
36857,7809,0,2023-03-01T18:58:25.458541,2095003,1385,1788,-813,-1036,-571,-322,-31,105,-259
36858,7810,0,2023-03-01T18:58:25.464169,2095008,1385,1788,-813,-1036,-571,-322,-31,105,-259
36859,7811,0,2023-03-01T18:58:25.469763,2095013,1385,1788,-813,-1036,-571,-322,-31,105,-259
36860,7812,0,2023-03-01T18:58:25.474626,2095019,1385,1788,-813,-1036,-571,-322,-31,105,-259
36861,7813,0,2023-03-01T18:58:25.479655,2095024,1386,1789,-823,-1044,-568,-318,-31,105,-259
36862,7814,0,2023-03-01T18:58:25.485517,2095030,1386,1789,-823,-1044,-568,-318,-31,105,-259
36863,7815,0,2023-03-01T18:58:25.491262,2095036,1386,1789,-823,-1044,-568,-318,-31,105,-259
36864,7816,0,2023-03-01T18:58:25.496074,2095040,1386,1789,-823,-1044,-568,-318,-31,105,-259
36865,7817,0,2023-03-01T18:58:25.500995,2095045,1389,1789,-820,-1032,-572,-322,-31,105,-259
36866,7818,0,2023-03-01T18:58:25.506748,2095051,1389,1789,-820,-1032,-572,-322,-31,105,-259
36867,7819,0,2023-03-01T18:58:25.511812,2095056,1389,1789,-820,-1032,-572,-322,-31,105,-259
36868,7820,0,2023-03-01T18:58:25.516681,2095062,1389,1790,-817,-1037,-579,-321,-31,105,-259
36869,7821,0,2023-03-01T18:58:25.522258,2095067,1389,1790,-817,-1037,-579,-321,-31,105,-259
36870,7822,0,2023-03-01T18:58:25.527315,2095072,1389,1790,-817,-1037,-579,-321,-31,105,-259
36871,7823,0,2023-03-01T18:58:25.533663,2095078,1389,1790,-817,-1037,-579,-321,-31,105,-259
36872,7824,0,2023-03-01T18:58:25.539146,2095083,1387,1786,-818,-1038,-577,-314,-31,105,-259
36873,7825,0,2023-03-01T18:58:25.544465,2095089,1387,1786,-818,-1038,-577,-314,-31,105,-259
36874,7826,0,2023-03-01T18:58:25.550275,2095094,1387,1786,-818,-1038,-577,-314,-31,105,-259
36875,7827,0,2023-03-01T18:58:25.555460,2095099,1387,1786,-818,-1038,-577,-314,-31,105,-259
36876,7828,0,2023-03-01T18:58:25.561897,2095106,1387,1788,-814,-1038,-567,-316,-31,115,-259
36877,7829,0,2023-03-01T18:58:25.567504,2095112,1387,1788,-814,-1038,-567,-316,-31,115,-259
36878,7830,0,2023-03-01T18:58:25.573104,2095118,1387,1788,-814,-1038,-567,-316,-31,115,-259
36879,7831,0,2023-03-01T18:58:25.578661,2095123,1387,1790,-816,-1042,-571,-316,-31,115,-259
36880,7832,0,2023-03-01T18:58:25.585753,2095129,1387,1790,-816,-1042,-571,-316,-31,115,-259
36881,7833,0,2023-03-01T18:58:25.591499,2095136,1387,1790,-816,-1042,-571,-316,-31,115,-259
36882,7834,0,2023-03-01T18:58:25.596249,2095140,1387,1790,-816,-1042,-571,-316,-31,115,-259
36883,7835,0,2023-03-01T18:58:25.601195,2095145,1386,1791,-811,-1036,-579,-318,-31,115,-259
36884,7836,0,2023-03-01T18:58:25.606745,2095151,1386,1791,-811,-1036,-579,-318,-31,115,-259
36885,7837,0,2023-03-01T18:58:25.612425,2095157,1386,1791,-811,-1036,-579,-318,-31,115,-259
36886,7838,0,2023-03-01T18:58:25.617683,2095162,1387,1790,-811,-1030,-565,-322,-31,115,-259
36887,7839,0,2023-03-01T18:58:25.624130,2095168,1387,1790,-811,-1030,-565,-322,-31,115,-259
36888,7840,0,2023-03-01T18:58:25.629097,2095173,1387,1790,-811,-1030,-565,-322,-31,115,-259
36889,7841,0,2023-03-01T18:58:25.634599,2095179,1387,1790,-811,-1030,-565,-322,-31,115,-259
36890,7842,0,2023-03-01T18:58:25.639576,2095183,1386,1790,-817,-1031,-576,-314,-31,115,-259
36891,7843,0,2023-03-01T18:58:25.645367,2095190,1386,1790,-817,-1031,-576,-314,-31,115,-259
36892,7844,0,2023-03-01T18:58:25.650887,2095196,1386,1790,-817,-1031,-576,-314,-31,115,-259
36893,7845,0,2023-03-01T18:58:25.655536,2095200,1386,1790,-817,-1031,-576,-314,-31,115,-259
36894,7846,0,2023-03-01T18:58:25.660299,2095205,1387,1789,-821,-1035,-570,-316,-31,115,-259
36895,7847,0,2023-03-01T18:58:25.665597,2095210,1387,1789,-821,-1035,-570,-316,-31,115,-259
36896,7848,0,2023-03-01T18:58:25.671127,2095215,1387,1789,-821,-1035,-570,-316,-31,115,-259
36897,7849,0,2023-03-01T18:58:25.676495,2095220,1387,1789,-821,-1035,-570,-316,-31,115,-259
36898,7850,0,2023-03-01T18:58:25.681133,2095225,1387,1790,-822,-1041,-574,-311,-31,115,-259
36899,7851,0,2023-03-01T18:58:25.687055,2095230,1387,1790,-822,-1041,-574,-311,-31,115,-259
36900,7852,0,2023-03-01T18:58:25.693045,2095237,1387,1790,-822,-1041,-574,-311,-31,115,-259
36901,7853,0,2023-03-01T18:58:25.698094,2095242,1385,1789,-817,-1037,-575,-324,-31,115,-259
36902,7854,0,2023-03-01T18:58:25.704129,2095248,1385,1789,-817,-1037,-575,-324,-31,115,-259
36903,7855,0,2023-03-01T18:58:25.709019,2095253,1385,1789,-817,-1037,-575,-324,-31,115,-259
36904,7856,0,2023-03-01T18:58:25.714271,2095259,1385,1789,-817,-1037,-575,-324,-31,115,-259
36905,7857,0,2023-03-01T18:58:25.719273,2095263,1386,1787,-814,-1038,-579,-318,-31,115,-259
36906,7858,0,2023-03-01T18:58:25.724579,2095268,1386,1787,-814,-1038,-579,-318,-31,115,-259
36907,7859,0,2023-03-01T18:58:25.730609,2095275,1386,1787,-814,-1038,-579,-318,-31,115,-259
36908,7860,0,2023-03-01T18:58:25.735608,2095280,1386,1787,-814,-1038,-579,-318,-31,115,-259
36909,7861,0,2023-03-01T18:58:25.740340,2095285,1386,1789,-819,-1038,-573,-318,-31,115,-259
36910,7862,0,2023-03-01T18:58:25.746091,2095290,1386,1789,-819,-1038,-573,-318,-31,115,-259
36911,7863,0,2023-03-01T18:58:25.751510,2095296,1386,1789,-819,-1038,-573,-318,-31,115,-259
36912,7864,0,2023-03-01T18:58:25.757050,2095301,1386,1789,-819,-1038,-573,-318,-31,115,-259
36913,7865,0,2023-03-01T18:58:25.762774,2095307,1384,1789,-820,-1045,-575,-317,-31,115,-259
36914,7866,0,2023-03-01T18:58:25.768895,2095313,1384,1789,-820,-1045,-575,-317,-31,115,-259
36915,7867,0,2023-03-01T18:58:25.774717,2095319,1384,1789,-820,-1045,-575,-317,-31,115,-259
36916,7868,0,2023-03-01T18:58:25.781205,2095325,1386,1787,-823,-1038,-576,-321,-31,115,-259
36917,7869,0,2023-03-01T18:58:25.787354,2095332,1386,1787,-823,-1038,-576,-321,-31,115,-259
36918,7870,0,2023-03-01T18:58:25.793779,2095338,1386,1787,-823,-1038,-576,-321,-31,115,-259
36919,7871,0,2023-03-01T18:58:25.799621,2095343,1389,1789,-819,-1039,-571,-322,-31,115,-259
36920,7872,0,2023-03-01T18:58:25.806561,2095350,1389,1789,-819,-1039,-571,-322,-31,115,-259
36921,7873,0,2023-03-01T18:58:25.813073,2095356,1389,1789,-819,-1039,-571,-322,-31,115,-259
36922,7874,0,2023-03-01T18:58:25.818297,2095363,1388,1789,-816,-1051,-567,-321,-30,106,-256
36923,7875,0,2023-03-01T18:58:25.824256,2095369,1388,1789,-816,-1051,-567,-321,-30,106,-256
36924,7876,0,2023-03-01T18:58:25.829697,2095374,1388,1789,-816,-1051,-567,-321,-30,106,-256
36925,7877,0,2023-03-01T18:58:25.834962,2095379,1388,1789,-816,-1051,-567,-321,-30,106,-256
36926,7878,0,2023-03-01T18:58:25.840738,2095385,1386,1791,-816,-1041,-565,-323,-30,106,-256
36927,7879,0,2023-03-01T18:58:25.846711,2095391,1386,1791,-816,-1041,-565,-323,-30,106,-256
36928,7880,0,2023-03-01T18:58:25.852185,2095396,1386,1791,-816,-1041,-565,-323,-30,106,-256
36929,7881,0,2023-03-01T18:58:25.857219,2095401,1386,1791,-816,-1041,-565,-323,-30,106,-256
36930,7882,0,2023-03-01T18:58:25.862376,2095407,1388,1788,-817,-1035,-569,-323,-30,106,-256
36931,7883,0,2023-03-01T18:58:25.868835,2095413,1388,1788,-817,-1035,-569,-323,-30,106,-256
36932,7884,0,2023-03-01T18:58:25.873625,2095418,1388,1788,-817,-1035,-569,-323,-30,106,-256
36933,7885,0,2023-03-01T18:58:25.878470,2095423,1390,1791,-817,-1033,-575,-327,-30,106,-256
36934,7886,0,2023-03-01T18:58:25.884582,2095429,1390,1791,-817,-1033,-575,-327,-30,106,-256
36935,7887,0,2023-03-01T18:58:25.889798,2095434,1390,1791,-817,-1033,-575,-327,-30,106,-256
36936,7888,0,2023-03-01T18:58:25.895609,2095439,1390,1791,-817,-1033,-575,-327,-30,106,-256
36937,7889,0,2023-03-01T18:58:25.900911,2095444,1390,1789,-816,-1039,-579,-323,-30,106,-256
36938,7890,0,2023-03-01T18:58:25.907154,2095451,1390,1789,-816,-1039,-579,-323,-30,106,-256
36939,7891,0,2023-03-01T18:58:25.913559,2095458,1390,1789,-816,-1039,-579,-323,-30,106,-256
36940,7892,0,2023-03-01T18:58:25.918543,2095463,1391,1788,-818,-1031,-579,-317,-30,106,-256
36941,7893,0,2023-03-01T18:58:25.923899,2095468,1391,1788,-818,-1031,-579,-317,-30,106,-256
36942,7894,0,2023-03-01T18:58:25.929501,2095473,1391,1788,-818,-1031,-579,-317,-30,106,-256
36943,7895,0,2023-03-01T18:58:25.935431,2095479,1391,1788,-818,-1031,-579,-317,-30,106,-256
36944,7896,0,2023-03-01T18:58:25.940290,2095484,1389,1790,-813,-1040,-575,-315,-36,108,-264
36945,7897,0,2023-03-01T18:58:25.945602,2095490,1389,1790,-813,-1040,-575,-315,-36,108,-264
36946,7898,0,2023-03-01T18:58:25.951600,2095496,1389,1790,-813,-1040,-575,-315,-36,108,-264
36947,7899,0,2023-03-01T18:58:25.956485,2095501,1389,1790,-813,-1040,-575,-315,-36,108,-264
36948,7900,0,2023-03-01T18:58:25.961298,2095506,1387,1788,-818,-1038,-570,-322,-36,108,-264
36949,7901,0,2023-03-01T18:58:25.967323,2095511,1387,1788,-818,-1038,-570,-322,-36,108,-264
36950,7902,0,2023-03-01T18:58:25.972452,2095516,1387,1788,-818,-1038,-570,-322,-36,108,-264
36951,7903,0,2023-03-01T18:58:25.977282,2095521,1387,1788,-818,-1038,-570,-322,-36,108,-264
36952,7904,0,2023-03-01T18:58:25.982284,2095526,1386,1787,-821,-1040,-570,-324,-36,108,-264
36953,7905,0,2023-03-01T18:58:25.988183,2095533,1386,1787,-821,-1040,-570,-324,-36,108,-264
36954,7906,0,2023-03-01T18:58:25.993686,2095538,1386,1787,-821,-1040,-570,-324,-36,108,-264
36955,7907,0,2023-03-01T18:58:25.998623,2095543,1383,1788,-817,-1042,-573,-315,-36,108,-264
36956,7908,0,2023-03-01T18:58:26.004681,2095549,1383,1788,-817,-1042,-573,-315,-36,108,-264
36957,7909,0,2023-03-01T18:58:26.009851,2095554,1383,1788,-817,-1042,-573,-315,-36,108,-264
36958,7910,0,2023-03-01T18:58:26.015687,2095559,1383,1788,-817,-1042,-573,-315,-36,108,-264
36959,7911,0,2023-03-01T18:58:26.021851,2095566,1387,1791,-821,-1040,-567,-314,-36,108,-264
36960,7912,0,2023-03-01T18:58:26.027759,2095571,1387,1791,-821,-1040,-567,-314,-36,108,-264
36961,7913,0,2023-03-01T18:58:26.033458,2095578,1387,1791,-821,-1040,-567,-314,-36,108,-264
36962,7914,0,2023-03-01T18:58:26.038541,2095583,1389,1790,-822,-1035,-572,-326,-36,108,-264
36963,7915,0,2023-03-01T18:58:26.044517,2095589,1389,1790,-822,-1035,-572,-326,-36,108,-264
36964,7916,0,2023-03-01T18:58:26.049789,2095594,1389,1790,-822,-1035,-572,-326,-36,108,-264
36965,7917,0,2023-03-01T18:58:26.054540,2095599,1389,1790,-822,-1035,-572,-326,-36,108,-264
36966,7918,0,2023-03-01T18:58:26.059589,2095603,1387,1789,-815,-1041,-567,-318,-36,108,-264
36967,7919,0,2023-03-01T18:58:26.065663,2095609,1387,1789,-815,-1041,-567,-318,-36,108,-264
36968,7920,0,2023-03-01T18:58:26.071166,2095616,1387,1789,-815,-1041,-567,-318,-36,108,-264
36969,7921,0,2023-03-01T18:58:26.076520,2095621,1387,1789,-815,-1041,-567,-318,-36,108,-264
36970,7922,0,2023-03-01T18:58:26.081088,2095626,1387,1792,-821,-1041,-565,-314,-41,115,-255
36971,7923,0,2023-03-01T18:58:26.086778,2095631,1387,1792,-821,-1041,-565,-314,-41,115,-255
36972,7924,0,2023-03-01T18:58:26.092414,2095637,1387,1792,-821,-1041,-565,-314,-41,115,-255
36973,7925,0,2023-03-01T18:58:26.097137,2095641,1387,1792,-821,-1041,-565,-314,-41,115,-255
36974,7926,0,2023-03-01T18:58:26.101895,2095646,1387,1792,-822,-1051,-570,-319,-41,115,-255
36975,7927,0,2023-03-01T18:58:26.107669,2095651,1387,1792,-822,-1051,-570,-319,-41,115,-255
36976,7928,0,2023-03-01T18:58:26.114728,2095659,1387,1792,-822,-1051,-570,-319,-41,115,-255
36977,7929,0,2023-03-01T18:58:26.121086,2095665,1386,1789,-820,-1042,-571,-322,-41,115,-255
36978,7930,0,2023-03-01T18:58:26.126773,2095671,1386,1789,-820,-1042,-571,-322,-41,115,-255
36979,7931,0,2023-03-01T18:58:26.132551,2095677,1386,1789,-820,-1042,-571,-322,-41,115,-255
36980,7932,0,2023-03-01T18:58:26.137280,2095682,1386,1789,-820,-1042,-571,-322,-41,115,-255
36981,7933,0,2023-03-01T18:58:26.142541,2095686,1389,1787,-815,-1046,-572,-325,-41,115,-255
36982,7934,0,2023-03-01T18:58:26.148675,2095693,1389,1787,-815,-1046,-572,-325,-41,115,-255
36983,7935,0,2023-03-01T18:58:26.153776,2095698,1389,1787,-815,-1046,-572,-325,-41,115,-255
36984,7936,0,2023-03-01T18:58:26.158917,2095703,1390,1787,-821,-1038,-566,-317,-41,115,-255
36985,7937,0,2023-03-01T18:58:26.164795,2095709,1390,1787,-821,-1038,-566,-317,-41,115,-255
36986,7938,0,2023-03-01T18:58:26.170222,2095715,1390,1787,-821,-1038,-566,-317,-41,115,-255
36987,7939,0,2023-03-01T18:58:26.175388,2095720,1390,1787,-821,-1038,-566,-317,-41,115,-255
36988,7940,0,2023-03-01T18:58:26.181207,2095726,1388,1791,-819,-1042,-567,-324,-41,115,-255
36989,7941,0,2023-03-01T18:58:26.186654,2095731,1388,1791,-819,-1042,-567,-324,-41,115,-255
36990,7942,0,2023-03-01T18:58:26.192185,2095736,1388,1791,-819,-1042,-567,-324,-41,115,-255
36991,7943,0,2023-03-01T18:58:26.196987,2095741,1388,1791,-819,-1042,-567,-324,-41,115,-255
36992,7944,0,2023-03-01T18:58:26.203019,2095748,1388,1790,-817,-1037,-572,-323,-38,116,-266
36993,7945,0,2023-03-01T18:58:26.209043,2095754,1388,1790,-817,-1037,-572,-323,-38,116,-266
36994,7946,0,2023-03-01T18:58:26.214555,2095759,1388,1790,-817,-1037,-572,-323,-38,116,-266
36995,7947,0,2023-03-01T18:58:26.219174,2095763,1386,1789,-811,-1042,-578,-321,-38,116,-266
36996,7948,0,2023-03-01T18:58:26.224609,2095769,1386,1789,-811,-1042,-578,-321,-38,116,-266
36997,7949,0,2023-03-01T18:58:26.230616,2095774,1386,1789,-811,-1042,-578,-321,-38,116,-266
36998,7950,0,2023-03-01T18:58:26.236362,2095780,1386,1789,-811,-1042,-578,-321,-38,116,-266
36999,7951,0,2023-03-01T18:58:26.242726,2095788,1389,1790,-820,-1047,-577,-321,-38,116,-266
37000,7952,0,2023-03-01T18:58:26.248274,2095793,1389,1790,-820,-1047,-577,-321,-38,116,-266
37001,7953,0,2023-03-01T18:58:26.253460,2095798,1389,1790,-820,-1047,-577,-321,-38,116,-266
37002,7954,0,2023-03-01T18:58:26.258338,2095803,1387,1787,-821,-1037,-572,-317,-38,116,-266
37003,7955,0,2023-03-01T18:58:26.264856,2095809,1387,1787,-821,-1037,-572,-317,-38,116,-266
37004,7956,0,2023-03-01T18:58:26.270566,2095815,1387,1787,-821,-1037,-572,-317,-38,116,-266
37005,7957,0,2023-03-01T18:58:26.275422,2095819,1387,1787,-821,-1037,-572,-317,-38,116,-266
37006,7958,0,2023-03-01T18:58:26.280305,2095824,1388,1790,-817,-1044,-574,-325,-38,116,-266
37007,7959,0,2023-03-01T18:58:26.286045,2095831,1388,1790,-817,-1044,-574,-325,-38,116,-266
37008,7960,0,2023-03-01T18:58:26.292132,2095836,1388,1790,-817,-1044,-574,-325,-38,116,-266
37009,7961,0,2023-03-01T18:58:26.296843,2095841,1388,1790,-817,-1044,-574,-325,-38,116,-266
37010,7962,0,2023-03-01T18:58:26.302752,2095846,1389,1789,-820,-1038,-559,-325,-38,116,-266
37011,7963,0,2023-03-01T18:58:26.308751,2095853,1389,1789,-820,-1038,-559,-325,-38,116,-266
37012,7964,0,2023-03-01T18:58:26.315016,2095859,1389,1789,-820,-1038,-559,-325,-38,116,-266
37013,7965,0,2023-03-01T18:58:26.319645,2095864,1388,1787,-824,-1039,-572,-322,-38,116,-266
37014,7966,0,2023-03-01T18:58:26.325262,2095869,1388,1787,-824,-1039,-572,-322,-38,116,-266
37015,7967,0,2023-03-01T18:58:26.331006,2095875,1388,1787,-824,-1039,-572,-322,-38,116,-266
37016,7968,0,2023-03-01T18:58:26.335888,2095880,1388,1787,-824,-1039,-572,-322,-38,116,-266
37017,7969,0,2023-03-01T18:58:26.340971,2095885,1387,1787,-813,-1041,-577,-325,-38,110,-262
37018,7970,0,2023-03-01T18:58:26.347975,2095891,1387,1787,-813,-1041,-577,-325,-38,110,-262
37019,7971,0,2023-03-01T18:58:26.354214,2095898,1387,1787,-813,-1041,-577,-325,-38,110,-262
37020,7972,0,2023-03-01T18:58:26.359083,2095903,1386,1789,-819,-1048,-572,-325,-38,110,-262
37021,7973,0,2023-03-01T18:58:26.364806,2095908,1386,1789,-819,-1048,-572,-325,-38,110,-262
37022,7974,0,2023-03-01T18:58:26.370621,2095915,1386,1789,-819,-1048,-572,-325,-38,110,-262
37023,7975,0,2023-03-01T18:58:26.375335,2095920,1386,1789,-819,-1048,-572,-325,-38,110,-262
37024,7976,0,2023-03-01T18:58:26.380434,2095925,1386,1789,-823,-1043,-578,-322,-38,110,-262
37025,7977,0,2023-03-01T18:58:26.385986,2095930,1386,1789,-823,-1043,-578,-322,-38,110,-262
37026,7978,0,2023-03-01T18:58:26.391834,2095936,1386,1789,-823,-1043,-578,-322,-38,110,-262
37027,7979,0,2023-03-01T18:58:26.396620,2095941,1386,1789,-823,-1043,-578,-322,-38,110,-262
37028,7980,0,2023-03-01T18:58:26.402111,2095946,1386,1787,-816,-1033,-570,-325,-38,110,-262
37029,7981,0,2023-03-01T18:58:26.407480,2095952,1386,1787,-816,-1033,-570,-325,-38,110,-262
37030,7982,0,2023-03-01T18:58:26.413063,2095958,1386,1787,-816,-1033,-570,-325,-38,110,-262
37031,7983,0,2023-03-01T18:58:26.417950,2095963,1389,1791,-816,-1030,-570,-315,-38,110,-262
37032,7984,0,2023-03-01T18:58:26.424796,2095969,1389,1791,-816,-1030,-570,-315,-38,110,-262
37033,7985,0,2023-03-01T18:58:26.430370,2095975,1389,1791,-816,-1030,-570,-315,-38,110,-262
37034,7986,0,2023-03-01T18:58:26.434960,2095979,1389,1791,-816,-1030,-570,-315,-38,110,-262
37035,7987,0,2023-03-01T18:58:26.439883,2095984,1387,1791,-818,-1040,-571,-320,-38,110,-262
37036,7988,0,2023-03-01T18:58:26.444603,2095989,1387,1791,-818,-1040,-571,-320,-38,110,-262
37037,7989,0,2023-03-01T18:58:26.450084,2095994,1387,1791,-818,-1040,-571,-320,-38,110,-262
37038,7990,0,2023-03-01T18:58:26.455827,2096000,1387,1791,-818,-1040,-571,-320,-38,110,-262
37039,7991,0,2023-03-01T18:58:26.462302,2096007,1388,1792,-812,-1036,-567,-320,-36,112,-258
37040,7992,0,2023-03-01T18:58:26.467631,2096012,1388,1792,-812,-1036,-567,-320,-36,112,-258
37041,7993,0,2023-03-01T18:58:26.473108,2096017,1388,1792,-812,-1036,-567,-320,-36,112,-258
37042,7994,0,2023-03-01T18:58:26.478090,2096022,1388,1792,-812,-1036,-567,-320,-36,112,-258
37043,7995,0,2023-03-01T18:58:26.482888,2096027,1386,1792,-815,-1041,-570,-316,-36,112,-258
37044,7996,0,2023-03-01T18:58:26.488432,2096032,1386,1792,-815,-1041,-570,-316,-36,112,-258
37045,7997,0,2023-03-01T18:58:26.493664,2096038,1386,1792,-815,-1041,-570,-316,-36,112,-258
37046,7998,0,2023-03-01T18:58:26.498619,2096043,1387,1790,-818,-1040,-570,-322,-36,112,-258
37047,7999,0,2023-03-01T18:58:26.505385,2096050,1387,1790,-818,-1040,-570,-322,-36,112,-258
37048,8000,0,2023-03-01T18:58:26.510767,2096055,1387,1790,-818,-1040,-570,-322,-36,112,-258
37049,8001,0,2023-03-01T18:58:26.515255,2096060,1387,1790,-818,-1040,-570,-322,-36,112,-258
37050,8002,0,2023-03-01T18:58:26.520228,2096064,1388,1787,-824,-1043,-574,-326,-36,112,-258
37051,8003,0,2023-03-01T18:58:26.525641,2096070,1388,1787,-824,-1043,-574,-326,-36,112,-258
37052,8004,0,2023-03-01T18:58:26.531442,2096075,1388,1787,-824,-1043,-574,-326,-36,112,-258
37053,8005,0,2023-03-01T18:58:26.536571,2096080,1388,1787,-824,-1043,-574,-326,-36,112,-258
37054,8006,0,2023-03-01T18:58:26.542410,2096087,1387,1790,-822,-1028,-561,-327,-36,112,-258
37055,8007,0,2023-03-01T18:58:26.548796,2096093,1387,1790,-822,-1028,-561,-327,-36,112,-258
37056,8008,0,2023-03-01T18:58:26.554338,2096099,1387,1790,-822,-1028,-561,-327,-36,112,-258
37057,8009,0,2023-03-01T18:58:26.559392,2096104,1386,1790,-818,-1030,-569,-318,-36,112,-258
37058,8010,0,2023-03-01T18:58:26.565179,2096109,1386,1790,-818,-1030,-569,-318,-36,112,-258
37059,8011,0,2023-03-01T18:58:26.570839,2096115,1386,1790,-818,-1030,-569,-318,-36,112,-258
37060,8012,0,2023-03-01T18:58:26.575784,2096120,1386,1790,-818,-1030,-569,-318,-36,112,-258
37061,8013,0,2023-03-01T18:58:26.581087,2096125,1388,1789,-817,-1040,-573,-315,-45,115,-265
37062,8014,0,2023-03-01T18:58:26.586730,2096131,1388,1789,-817,-1040,-573,-315,-45,115,-265
37063,8015,0,2023-03-01T18:58:26.592546,2096137,1388,1789,-817,-1040,-573,-315,-45,115,-265
37064,8016,0,2023-03-01T18:58:26.597183,2096142,1388,1789,-817,-1040,-573,-315,-45,115,-265
37065,8017,0,2023-03-01T18:58:26.602641,2096147,1386,1788,-818,-1036,-578,-320,-45,115,-265
37066,8018,0,2023-03-01T18:58:26.608507,2096152,1386,1788,-818,-1036,-578,-320,-45,115,-265
37067,8019,0,2023-03-01T18:58:26.614103,2096158,1386,1788,-818,-1036,-578,-320,-45,115,-265
37068,8020,0,2023-03-01T18:58:26.619268,2096163,1390,1790,-817,-1040,-571,-322,-45,115,-265
37069,8021,0,2023-03-01T18:58:26.625194,2096169,1390,1790,-817,-1040,-571,-322,-45,115,-265
37070,8022,0,2023-03-01T18:58:26.631119,2096176,1390,1790,-817,-1040,-571,-322,-45,115,-265
37071,8023,0,2023-03-01T18:58:26.636208,2096181,1390,1790,-817,-1040,-571,-322,-45,115,-265
37072,8024,0,2023-03-01T18:58:26.640773,2096185,1384,1788,-825,-1037,-570,-324,-45,115,-265
37073,8025,0,2023-03-01T18:58:26.646751,2096191,1384,1788,-825,-1037,-570,-324,-45,115,-265
37074,8026,0,2023-03-01T18:58:26.652388,2096196,1384,1788,-825,-1037,-570,-324,-45,115,-265
37075,8027,0,2023-03-01T18:58:26.657449,2096201,1384,1788,-825,-1037,-570,-324,-45,115,-265
37076,8028,0,2023-03-01T18:58:26.662992,2096207,1385,1787,-818,-1043,-568,-322,-45,115,-265
37077,8029,0,2023-03-01T18:58:26.669174,2096214,1385,1787,-818,-1043,-568,-322,-45,115,-265
37078,8030,0,2023-03-01T18:58:26.674999,2096220,1385,1787,-818,-1043,-568,-322,-45,115,-265
37079,8031,0,2023-03-01T18:58:26.680728,2096225,1388,1788,-816,-1039,-574,-324,-45,115,-265
37080,8032,0,2023-03-01T18:58:26.686690,2096231,1388,1788,-816,-1039,-574,-324,-45,115,-265
37081,8033,0,2023-03-01T18:58:26.691996,2096236,1388,1788,-816,-1039,-574,-324,-45,115,-265
37082,8034,0,2023-03-01T18:58:26.697069,2096241,1388,1788,-816,-1039,-574,-324,-45,115,-265
37083,8035,0,2023-03-01T18:58:26.702461,2096246,1386,1791,-821,-1040,-568,-321,-45,115,-265
37084,8036,0,2023-03-01T18:58:26.708068,2096252,1386,1791,-821,-1040,-568,-321,-45,115,-265
37085,8037,0,2023-03-01T18:58:26.713201,2096258,1386,1791,-821,-1040,-568,-321,-45,115,-265
37086,8038,0,2023-03-01T18:58:26.718418,2096263,1386,1791,-821,-1040,-568,-321,-45,115,-265
37087,8039,0,2023-03-01T18:58:26.723168,2096268,1386,1791,-821,-1040,-568,-321,-32,106,-258
37088,8040,0,2023-03-01T18:58:26.728715,2096273,1386,1791,-821,-1040,-568,-321,-32,106,-258
37089,8041,0,2023-03-01T18:58:26.734848,2096279,1386,1791,-821,-1040,-568,-321,-32,106,-258
37090,8042,0,2023-03-01T18:58:26.740538,2096285,1388,1789,-818,-1035,-576,-319,-32,106,-258
37091,8043,0,2023-03-01T18:58:26.745876,2096290,1388,1789,-818,-1035,-576,-319,-32,106,-258
37092,8044,0,2023-03-01T18:58:26.751169,2096295,1388,1789,-818,-1035,-576,-319,-32,106,-258
37093,8045,0,2023-03-01T18:58:26.755980,2096301,1388,1789,-818,-1035,-576,-319,-32,106,-258
37094,8046,0,2023-03-01T18:58:26.761297,2096306,1384,1789,-819,-1038,-568,-325,-32,106,-258
37095,8047,0,2023-03-01T18:58:26.767124,2096312,1384,1789,-819,-1038,-568,-325,-32,106,-258
37096,8048,0,2023-03-01T18:58:26.772836,2096317,1384,1789,-819,-1038,-568,-325,-32,106,-258
37097,8049,0,2023-03-01T18:58:26.778193,2096322,1384,1789,-819,-1038,-568,-325,-32,106,-258
37098,8050,0,2023-03-01T18:58:26.784570,2096328,1389,1789,-824,-1034,-573,-325,-32,106,-258
37099,8051,0,2023-03-01T18:58:26.793162,2096337,1389,1789,-824,-1034,-573,-325,-32,106,-258
37100,8052,0,2023-03-01T18:58:26.799148,2096343,1388,1790,-821,-1039,-574,-323,-32,106,-258
37101,8053,0,2023-03-01T18:58:26.806496,2096351,1388,1790,-821,-1039,-574,-323,-32,106,-258
37102,8054,0,2023-03-01T18:58:26.812588,2096357,1388,1790,-821,-1039,-574,-323,-32,106,-258
37103,8055,0,2023-03-01T18:58:26.818274,2096363,1388,1790,-821,-1039,-574,-323,-32,106,-258
37104,8056,0,2023-03-01T18:58:26.824001,2096368,1389,1788,-824,-1041,-584,-325,-32,106,-258
37105,8057,0,2023-03-01T18:58:26.829468,2096374,1389,1788,-824,-1041,-584,-325,-32,106,-258
37106,8058,0,2023-03-01T18:58:26.834888,2096378,1389,1788,-824,-1041,-584,-325,-32,106,-258
37107,8059,0,2023-03-01T18:58:26.840898,2096385,1385,1789,-816,-1035,-573,-330,-31,111,-259
37108,8060,0,2023-03-01T18:58:26.847268,2096392,1385,1789,-816,-1035,-573,-330,-31,111,-259
37109,8061,0,2023-03-01T18:58:26.854766,2096399,1385,1789,-816,-1035,-573,-330,-31,111,-259
37110,8062,0,2023-03-01T18:58:26.860673,2096405,1383,1786,-820,-1028,-580,-330,-31,111,-259
37111,8063,0,2023-03-01T18:58:26.866390,2096410,1383,1786,-820,-1028,-580,-330,-31,111,-259
37112,8064,0,2023-03-01T18:58:26.872687,2096416,1383,1786,-820,-1028,-580,-330,-31,111,-259
37113,8065,0,2023-03-01T18:58:26.877702,2096422,1383,1786,-820,-1028,-580,-330,-31,111,-259
37114,8066,0,2023-03-01T18:58:26.882641,2096427,1387,1792,-822,-1034,-573,-326,-31,111,-259
37115,8067,0,2023-03-01T18:58:26.888110,2096433,1387,1792,-822,-1034,-573,-326,-31,111,-259
37116,8068,0,2023-03-01T18:58:26.893978,2096438,1387,1792,-822,-1034,-573,-326,-31,111,-259
37117,8069,0,2023-03-01T18:58:26.899717,2096444,1387,1791,-819,-1037,-570,-321,-31,111,-259
37118,8070,0,2023-03-01T18:58:26.906278,2096451,1387,1791,-819,-1037,-570,-321,-31,111,-259
37119,8071,0,2023-03-01T18:58:26.911644,2096455,1387,1791,-819,-1037,-570,-321,-31,111,-259
37120,8072,0,2023-03-01T18:58:26.916178,2096460,1387,1791,-819,-1037,-570,-321,-31,111,-259
37121,8073,0,2023-03-01T18:58:26.921739,2096466,1387,1790,-821,-1043,-574,-325,-31,111,-259
37122,8074,0,2023-03-01T18:58:26.928899,2096472,1387,1790,-821,-1043,-574,-325,-31,111,-259
37123,8075,0,2023-03-01T18:58:26.934470,2096479,1387,1790,-821,-1043,-574,-325,-31,111,-259
37124,8076,0,2023-03-01T18:58:26.939657,2096484,1390,1787,-820,-1038,-580,-323,-31,111,-259
37125,8077,0,2023-03-01T18:58:26.945525,2096490,1390,1787,-820,-1038,-580,-323,-31,111,-259
37126,8078,0,2023-03-01T18:58:26.950110,2096495,1390,1787,-820,-1038,-580,-323,-31,111,-259
37127,8079,0,2023-03-01T18:58:26.955207,2096499,1390,1787,-820,-1038,-580,-323,-31,111,-259
37128,8080,0,2023-03-01T18:58:26.960654,2096504,1388,1789,-818,-1039,-576,-321,-31,111,-259
37129,8081,0,2023-03-01T18:58:26.966142,2096510,1388,1789,-818,-1039,-576,-321,-31,111,-259
37130,8082,0,2023-03-01T18:58:26.971953,2096517,1388,1789,-818,-1039,-576,-321,-31,111,-259
37131,8083,0,2023-03-01T18:58:26.977249,2096522,1388,1789,-818,-1039,-576,-321,-31,111,-259
37132,8084,0,2023-03-01T18:58:26.983163,2096528,1382,1788,-817,-1039,-576,-321,-36,110,-258
37133,8085,0,2023-03-01T18:58:26.988941,2096533,1382,1788,-817,-1039,-576,-321,-36,110,-258
37134,8086,0,2023-03-01T18:58:26.994443,2096538,1382,1788,-817,-1039,-576,-321,-36,110,-258
37135,8087,0,2023-03-01T18:58:26.999550,2096543,1389,1788,-817,-1036,-564,-322,-36,110,-258
37136,8088,0,2023-03-01T18:58:27.006052,2096550,1389,1788,-817,-1036,-564,-322,-36,110,-258
37137,8089,0,2023-03-01T18:58:27.012546,2096557,1389,1788,-817,-1036,-564,-322,-36,110,-258
37138,8090,0,2023-03-01T18:58:27.017517,2096562,1389,1788,-817,-1036,-564,-322,-36,110,-258
37139,8091,0,2023-03-01T18:58:27.023771,2096568,1386,1789,-825,-1034,-563,-319,-36,110,-258
37140,8092,0,2023-03-01T18:58:27.030760,2096574,1386,1789,-825,-1034,-563,-319,-36,110,-258
