,Unnamed: 0,imu,server_time,arduino_time,ax,ay,az,gx,gy,gz,mx,my,mz
39449,401,0,2023-03-01T18:58:39.804285,2109349,894,894,-2209,-1029,-568,-318,67,123,-433
39450,402,0,2023-03-01T18:58:39.809126,2109355,894,894,-2209,-1029,-568,-318,67,123,-433
39451,403,0,2023-03-01T18:58:39.815328,2109361,888,893,-2210,-1037,-569,-316,67,123,-433
39452,404,0,2023-03-01T18:58:39.821073,2109366,888,893,-2210,-1037,-569,-316,67,123,-433
39453,405,0,2023-03-01T18:58:39.826284,2109371,888,893,-2210,-1037,-569,-316,67,123,-433
39454,406,0,2023-03-01T18:58:39.831147,2109376,888,893,-2210,-1037,-569,-316,67,123,-433
39455,407,0,2023-03-01T18:58:39.836984,2109382,891,891,-2206,-1038,-569,-318,69,123,-435
39456,408,0,2023-03-01T18:58:39.842876,2109387,891,891,-2206,-1038,-569,-318,69,123,-435
39457,409,0,2023-03-01T18:58:39.847902,2109392,891,891,-2206,-1038,-569,-318,69,123,-435
39458,410,0,2023-03-01T18:58:39.852663,2109398,891,891,-2206,-1038,-569,-318,69,123,-435
39459,411,0,2023-03-01T18:58:39.857888,2109403,893,890,-2200,-1042,-574,-323,69,123,-435
39460,412,0,2023-03-01T18:58:39.863798,2109409,893,890,-2200,-1042,-574,-323,69,123,-435
39461,413,0,2023-03-01T18:58:39.868808,2109414,893,890,-2200,-1042,-574,-323,69,123,-435
39462,414,0,2023-03-01T18:58:39.875543,2109420,892,895,-2208,-1041,-574,-326,69,123,-435
39463,415,0,2023-03-01T18:58:39.880376,2109425,892,895,-2208,-1041,-574,-326,69,123,-435
39464,416,0,2023-03-01T18:58:39.885503,2109430,892,895,-2208,-1041,-574,-326,69,123,-435
39465,417,0,2023-03-01T18:58:39.890239,2109435,892,895,-2208,-1041,-574,-326,69,123,-435
39466,418,0,2023-03-01T18:58:39.896453,2109442,891,896,-2211,-1047,-571,-327,69,123,-435
39467,419,0,2023-03-01T18:58:39.902190,2109447,891,896,-2211,-1047,-571,-327,69,123,-435
39468,420,0,2023-03-01T18:58:39.907621,2109453,891,896,-2211,-1047,-571,-327,69,123,-435
39469,421,0,2023-03-01T18:58:39.913251,2109458,891,896,-2211,-1047,-571,-327,69,123,-435
39470,422,0,2023-03-01T18:58:39.918948,2109464,888,890,-2208,-1038,-572,-320,69,123,-435
39471,423,0,2023-03-01T18:58:39.924747,2109469,888,890,-2208,-1038,-572,-320,69,123,-435
39472,424,0,2023-03-01T18:58:39.929713,2109474,888,890,-2208,-1038,-572,-320,69,123,-435
39473,425,0,2023-03-01T18:58:39.936487,2109481,894,893,-2209,-1036,-574,-318,69,123,-435
39474,426,0,2023-03-01T18:58:39.942205,2109488,894,893,-2209,-1036,-574,-318,69,123,-435
39475,427,0,2023-03-01T18:58:39.947301,2109493,894,893,-2209,-1036,-574,-318,69,123,-435
39476,428,0,2023-03-01T18:58:39.953106,2109498,894,893,-2209,-1036,-574,-318,69,123,-435
39477,429,0,2023-03-01T18:58:39.960246,2109504,892,893,-2203,-1038,-570,-325,69,115,-437
39478,430,0,2023-03-01T18:58:39.966279,2109511,892,893,-2203,-1038,-570,-325,69,115,-437
39479,431,0,2023-03-01T18:58:39.971620,2109516,892,893,-2203,-1038,-570,-325,69,115,-437
39480,432,0,2023-03-01T18:58:39.978382,2109523,893,893,-2205,-1037,-569,-330,69,115,-437
39481,433,0,2023-03-01T18:58:39.985057,2109530,893,893,-2205,-1037,-569,-330,69,115,-437
39482,434,0,2023-03-01T18:58:39.991371,2109536,893,893,-2205,-1037,-569,-330,69,115,-437
39483,435,0,2023-03-01T18:58:39.997387,2109542,893,893,-2206,-1038,-573,-324,69,115,-437
39484,436,0,2023-03-01T18:58:40.003645,2109548,893,893,-2206,-1038,-573,-324,69,115,-437
39485,437,0,2023-03-01T18:58:40.009206,2109554,893,893,-2206,-1038,-573,-324,69,115,-437
39486,438,0,2023-03-01T18:58:40.015494,2109560,894,892,-2205,-1038,-568,-330,69,115,-437
39487,439,0,2023-03-01T18:58:40.022595,2109568,894,892,-2205,-1038,-568,-330,69,115,-437
39488,440,0,2023-03-01T18:58:40.027990,2109573,894,892,-2205,-1038,-568,-330,69,115,-437
39489,441,0,2023-03-01T18:58:40.033287,2109578,894,892,-2205,-1038,-568,-330,69,115,-437
39490,442,0,2023-03-01T18:58:40.039422,2109584,891,892,-2202,-1039,-570,-316,69,115,-437
39491,443,0,2023-03-01T18:58:40.045219,2109590,891,892,-2202,-1039,-570,-316,69,115,-437
39492,444,0,2023-03-01T18:58:40.050904,2109595,891,892,-2202,-1039,-570,-316,69,115,-437
39493,445,0,2023-03-01T18:58:40.057477,2109602,891,894,-2205,-1034,-568,-316,69,115,-437
39494,446,0,2023-03-01T18:58:40.063423,2109608,891,894,-2205,-1034,-568,-316,69,115,-437
39495,447,0,2023-03-01T18:58:40.068647,2109614,891,894,-2205,-1034,-568,-316,69,115,-437
39496,448,0,2023-03-01T18:58:40.074304,2109619,891,894,-2205,-1034,-568,-316,69,115,-437
39497,449,0,2023-03-01T18:58:40.080277,2109625,891,892,-2209,-1028,-570,-313,69,115,-437
39498,450,0,2023-03-01T18:58:40.087871,2109633,891,892,-2209,-1028,-570,-313,69,115,-437
39499,451,0,2023-03-01T18:58:40.093079,2109638,891,892,-2209,-1028,-570,-313,69,115,-437
39500,452,0,2023-03-01T18:58:40.099596,2109644,890,892,-2206,-1038,-577,-313,64,124,-440
39501,453,0,2023-03-01T18:58:40.105354,2109650,890,892,-2206,-1038,-577,-313,64,124,-440
39502,454,0,2023-03-01T18:58:40.110486,2109656,890,892,-2206,-1038,-577,-313,64,124,-440
39503,455,0,2023-03-01T18:58:40.116181,2109662,893,894,-2208,-1037,-567,-320,64,124,-440
39504,456,0,2023-03-01T18:58:40.121855,2109667,893,894,-2208,-1037,-567,-320,64,124,-440
39505,457,0,2023-03-01T18:58:40.126823,2109672,893,894,-2208,-1037,-567,-320,64,124,-440
39506,458,0,2023-03-01T18:58:40.132566,2109677,893,894,-2208,-1037,-567,-320,64,124,-440
39507,459,0,2023-03-01T18:58:40.138601,2109683,890,895,-2207,-1037,-571,-322,64,124,-440
39508,460,0,2023-03-01T18:58:40.144475,2109689,890,895,-2207,-1037,-571,-322,64,124,-440
39509,461,0,2023-03-01T18:58:40.149882,2109694,890,895,-2207,-1037,-571,-322,64,124,-440
39510,462,0,2023-03-01T18:58:40.156644,2109702,893,893,-2204,-1037,-568,-315,64,124,-440
39511,463,0,2023-03-01T18:58:40.163096,2109708,893,893,-2204,-1037,-568,-315,64,124,-440
39512,464,0,2023-03-01T18:58:40.168427,2109713,893,893,-2204,-1037,-568,-315,64,124,-440
39513,465,0,2023-03-01T18:58:40.174281,2109719,893,893,-2204,-1037,-568,-315,64,124,-440
39514,466,0,2023-03-01T18:58:40.180279,2109725,894,895,-2211,-1028,-565,-326,64,124,-440
39515,467,0,2023-03-01T18:58:40.186273,2109731,894,895,-2211,-1028,-565,-326,64,124,-440
39516,468,0,2023-03-01T18:58:40.191292,2109736,894,895,-2211,-1028,-565,-326,64,124,-440
39517,469,0,2023-03-01T18:58:40.198374,2109743,891,897,-2211,-1030,-577,-328,64,124,-440
39518,470,0,2023-03-01T18:58:40.203948,2109749,891,897,-2211,-1030,-577,-328,64,124,-440
39519,471,0,2023-03-01T18:58:40.209249,2109754,891,897,-2211,-1030,-577,-328,64,124,-440
39520,472,0,2023-03-01T18:58:40.215506,2109760,891,893,-2205,-1035,-585,-318,68,124,-440
39521,473,0,2023-03-01T18:58:40.221820,2109766,891,893,-2205,-1035,-585,-318,68,124,-434
39522,474,0,2023-03-01T18:58:40.226692,2109771,891,893,-2205,-1035,-585,-318,68,124,-434
39523,475,0,2023-03-01T18:58:40.232984,2109777,891,893,-2205,-1035,-585,-318,68,124,-434
39524,476,0,2023-03-01T18:58:40.239253,2109785,894,892,-2210,-1035,-576,-322,68,124,-434
39525,477,0,2023-03-01T18:58:40.244948,2109790,894,892,-2210,-1035,-576,-322,68,124,-434
39526,478,0,2023-03-01T18:58:40.250148,2109795,894,892,-2210,-1035,-576,-322,68,124,-434
39527,479,0,2023-03-01T18:58:40.256448,2109802,890,895,-2211,-1041,-571,-318,68,124,-434
39528,480,0,2023-03-01T18:58:40.261863,2109807,890,895,-2211,-1041,-571,-318,68,124,-434
39529,481,0,2023-03-01T18:58:40.267502,2109812,890,895,-2211,-1041,-571,-318,68,124,-434
39530,482,0,2023-03-01T18:58:40.273662,2109818,890,895,-2211,-1041,-571,-318,68,124,-434
39531,483,0,2023-03-01T18:58:40.279366,2109825,892,891,-2206,-1043,-571,-317,68,124,-434
39532,484,0,2023-03-01T18:58:40.285172,2109830,892,891,-2206,-1043,-571,-317,68,124,-434
39533,485,0,2023-03-01T18:58:40.290460,2109835,892,891,-2206,-1043,-571,-317,68,124,-434
39534,486,0,2023-03-01T18:58:40.296549,2109841,890,892,-2208,-1047,-570,-322,68,124,-434
39535,487,0,2023-03-01T18:58:40.302761,2109847,890,892,-2208,-1047,-570,-322,68,124,-434
39536,488,0,2023-03-01T18:58:40.308447,2109853,890,892,-2208,-1047,-570,-322,68,124,-434
39537,489,0,2023-03-01T18:58:40.314053,2109859,890,892,-2208,-1047,-570,-322,68,124,-434
39538,490,0,2023-03-01T18:58:40.319261,2109864,894,894,-2209,-1045,-570,-322,68,124,-434
39539,491,0,2023-03-01T18:58:40.324643,2109870,894,894,-2209,-1045,-570,-322,68,124,-434
39540,492,0,2023-03-01T18:58:40.330021,2109875,894,894,-2209,-1045,-570,-322,68,124,-434
39541,493,0,2023-03-01T18:58:40.335657,2109881,894,894,-2209,-1045,-570,-322,68,124,-434
39542,494,0,2023-03-01T18:58:40.340659,2109886,892,892,-2211,-1042,-568,-318,68,124,-434
39543,495,0,2023-03-01T18:58:40.346087,2109891,892,892,-2211,-1042,-568,-318,68,124,-434
39544,496,0,2023-03-01T18:58:40.351772,2109896,892,892,-2211,-1042,-568,-318,68,124,-434
39545,497,0,2023-03-01T18:58:40.358265,2109903,890,893,-2203,-1035,-571,-316,76,126,-434
39546,498,0,2023-03-01T18:58:40.363994,2109910,890,893,-2203,-1035,-571,-316,76,126,-434
39547,499,0,2023-03-01T18:58:40.368990,2109914,890,893,-2203,-1035,-571,-316,76,126,-434
39548,500,0,2023-03-01T18:58:40.375105,2109920,890,893,-2203,-1035,-571,-316,76,126,-434
39549,501,0,2023-03-01T18:58:40.380222,2109925,892,893,-2209,-1033,-574,-320,76,126,-434
39550,502,0,2023-03-01T18:58:40.385912,2109931,892,893,-2209,-1033,-574,-320,76,126,-434
39551,503,0,2023-03-01T18:58:40.390838,2109936,892,893,-2209,-1033,-574,-320,76,126,-434
39552,504,0,2023-03-01T18:58:40.397055,2109942,892,892,-2208,-1034,-570,-315,76,126,-434
39553,505,0,2023-03-01T18:58:40.402854,2109947,892,892,-2208,-1034,-570,-315,76,126,-434
39554,506,0,2023-03-01T18:58:40.407992,2109953,892,892,-2208,-1034,-570,-315,76,126,-434
39555,507,0,2023-03-01T18:58:40.415885,2109961,891,891,-2207,-1031,-570,-316,76,126,-434
39556,508,0,2023-03-01T18:58:40.421990,2109967,891,891,-2207,-1031,-570,-316,76,126,-434
39557,509,0,2023-03-01T18:58:40.427120,2109972,891,891,-2207,-1031,-570,-316,76,126,-434
39558,510,0,2023-03-01T18:58:40.432316,2109977,891,891,-2207,-1031,-570,-316,76,126,-434
39559,511,0,2023-03-01T18:58:40.437902,2109983,895,893,-2209,-1035,-566,-320,76,126,-434
39560,512,0,2023-03-01T18:58:40.444020,2109988,895,893,-2209,-1035,-566,-320,76,126,-434
39561,513,0,2023-03-01T18:58:40.449104,2109995,895,893,-2209,-1035,-566,-320,76,126,-434
39562,514,0,2023-03-01T18:58:40.455843,2110001,895,893,-2209,-1035,-566,-320,76,126,-434
39563,515,0,2023-03-01T18:58:40.460972,2110006,892,893,-2210,-1035,-569,-316,76,126,-434
39564,516,0,2023-03-01T18:58:40.467493,2110012,892,893,-2210,-1035,-569,-316,76,126,-434
39565,517,0,2023-03-01T18:58:40.473439,2110018,892,893,-2210,-1035,-569,-316,76,126,-434
39566,518,0,2023-03-01T18:58:40.478252,2110023,892,894,-2204,-1043,-573,-322,68,118,-428
39567,519,0,2023-03-01T18:58:40.483836,2110029,892,894,-2204,-1043,-573,-322,68,118,-428
39568,520,0,2023-03-01T18:58:40.489540,2110033,892,894,-2204,-1043,-573,-322,68,118,-428
39569,521,0,2023-03-01T18:58:40.495805,2110041,892,894,-2204,-1043,-573,-322,68,118,-428
39570,522,0,2023-03-01T18:58:40.502060,2110047,892,891,-2200,-1037,-575,-321,68,118,-428
39571,523,0,2023-03-01T18:58:40.508214,2110053,892,891,-2200,-1037,-575,-321,68,118,-428
39572,524,0,2023-03-01T18:58:40.513334,2110058,892,891,-2200,-1037,-575,-321,68,118,-428
39573,525,0,2023-03-01T18:58:40.519988,2110064,892,892,-2201,-1046,-571,-319,68,118,-428
39574,526,0,2023-03-01T18:58:40.525332,2110070,892,892,-2201,-1046,-571,-319,68,118,-428
39575,527,0,2023-03-01T18:58:40.530663,2110075,892,892,-2201,-1046,-571,-319,68,118,-428
39576,528,0,2023-03-01T18:58:40.536324,2110082,890,891,-2212,-1040,-578,-322,68,118,-428
39577,529,0,2023-03-01T18:58:40.542171,2110087,890,891,-2212,-1040,-578,-322,68,118,-428
39578,530,0,2023-03-01T18:58:40.547413,2110092,890,891,-2212,-1040,-578,-322,68,118,-428
39579,531,0,2023-03-01T18:58:40.553052,2110098,890,891,-2212,-1040,-578,-322,68,118,-428
39580,532,0,2023-03-01T18:58:40.558558,2110104,890,891,-2208,-1040,-570,-324,68,118,-428
39581,533,0,2023-03-01T18:58:40.564017,2110109,890,891,-2208,-1040,-570,-324,68,118,-428
39582,534,0,2023-03-01T18:58:40.569222,2110114,890,891,-2208,-1040,-570,-324,68,118,-428
39583,535,0,2023-03-01T18:58:40.575692,2110120,890,891,-2208,-1040,-570,-324,68,118,-428
39584,536,0,2023-03-01T18:58:40.580653,2110126,892,891,-2203,-1047,-571,-324,68,118,-428
39585,537,0,2023-03-01T18:58:40.586512,2110132,892,891,-2203,-1047,-571,-324,68,118,-428
39586,538,0,2023-03-01T18:58:40.591293,2110137,892,891,-2203,-1047,-571,-324,68,118,-428
39587,539,0,2023-03-01T18:58:40.597090,2110142,891,892,-2201,-1045,-569,-328,68,124,-440
39588,540,0,2023-03-01T18:58:40.602404,2110147,891,892,-2201,-1045,-569,-328,68,124,-440
39589,541,0,2023-03-01T18:58:40.607878,2110152,891,892,-2201,-1045,-569,-328,68,124,-440
39590,542,0,2023-03-01T18:58:40.613607,2110158,891,892,-2201,-1045,-569,-328,68,124,-440
39591,543,0,2023-03-01T18:58:40.618774,2110163,891,896,-2209,-1039,-577,-314,68,124,-440
39592,544,0,2023-03-01T18:58:40.624124,2110170,891,896,-2209,-1039,-577,-314,68,124,-440
39593,545,0,2023-03-01T18:58:40.629163,2110174,891,896,-2209,-1039,-577,-314,68,124,-440
39594,546,0,2023-03-01T18:58:40.636592,2110182,890,894,-2206,-1037,-568,-323,68,124,-440
39595,547,0,2023-03-01T18:58:40.642179,2110187,890,894,-2206,-1037,-568,-323,68,124,-440
39596,548,0,2023-03-01T18:58:40.646953,2110192,890,894,-2206,-1037,-568,-323,68,124,-440
39597,549,0,2023-03-01T18:58:40.652791,2110198,890,894,-2206,-1037,-568,-323,68,124,-440
39598,550,0,2023-03-01T18:58:40.658245,2110203,893,893,-2203,-1039,-566,-318,68,124,-440
39599,551,0,2023-03-01T18:58:40.664438,2110210,893,893,-2203,-1039,-566,-318,68,124,-440
39600,552,0,2023-03-01T18:58:40.669279,2110215,893,893,-2203,-1039,-566,-318,68,124,-440
39601,553,0,2023-03-01T18:58:40.673658,2110219,893,893,-2203,-1039,-566,-318,68,124,-440
39602,554,0,2023-03-01T18:58:40.678715,2110224,890,891,-2207,-1034,-570,-315,68,124,-440
39603,555,0,2023-03-01T18:58:40.684658,2110230,890,891,-2207,-1034,-570,-315,68,124,-440
39604,556,0,2023-03-01T18:58:40.689551,2110234,890,891,-2207,-1034,-570,-315,68,124,-440
39605,557,0,2023-03-01T18:58:40.696206,2110240,890,891,-2207,-1034,-570,-315,68,124,-440
39606,558,0,2023-03-01T18:58:40.701214,2110246,892,891,-2210,-1035,-569,-327,68,124,-440
39607,559,0,2023-03-01T18:58:40.706652,2110252,892,891,-2210,-1035,-569,-327,68,124,-440
39608,560,0,2023-03-01T18:58:40.711557,2110257,892,891,-2210,-1035,-569,-327,68,124,-440
39609,561,0,2023-03-01T18:58:40.717636,2110263,891,893,-2210,-1042,-577,-316,68,124,-440
39610,562,0,2023-03-01T18:58:40.723501,2110269,891,893,-2210,-1042,-577,-316,68,124,-440
39611,563,0,2023-03-01T18:58:40.728723,2110274,891,893,-2210,-1042,-577,-316,68,124,-440
39612,564,0,2023-03-01T18:58:40.733942,2110278,891,893,-2210,-1042,-577,-316,68,124,-440
39613,565,0,2023-03-01T18:58:40.740589,2110284,891,893,-2207,-1037,-578,-316,69,117,-441
39614,566,0,2023-03-01T18:58:40.747277,2110292,891,893,-2207,-1037,-578,-316,69,117,-441
39615,567,0,2023-03-01T18:58:40.752858,2110298,891,893,-2207,-1037,-578,-316,69,117,-441
39616,568,0,2023-03-01T18:58:40.758244,2110304,896,895,-2204,-1043,-573,-328,69,117,-441
39617,569,0,2023-03-01T18:58:40.763824,2110309,896,895,-2204,-1043,-573,-328,69,117,-441
39618,570,0,2023-03-01T18:58:40.769457,2110314,896,895,-2204,-1043,-573,-328,69,117,-441
39619,571,0,2023-03-01T18:58:40.775429,2110320,896,895,-2204,-1043,-573,-328,69,117,-441
39620,572,0,2023-03-01T18:58:40.781028,2110326,893,892,-2212,-1035,-567,-333,69,117,-441
39621,573,0,2023-03-01T18:58:40.786253,2110331,893,892,-2212,-1035,-567,-333,69,117,-441
39622,574,0,2023-03-01T18:58:40.791444,2110337,893,892,-2212,-1035,-567,-333,69,117,-441
39623,575,0,2023-03-01T18:58:40.797817,2110343,892,893,-2205,-1043,-570,-328,69,117,-441
39624,576,0,2023-03-01T18:58:40.803662,2110349,892,893,-2205,-1043,-570,-328,69,117,-441
39625,577,0,2023-03-01T18:58:40.808885,2110354,892,893,-2205,-1043,-570,-328,69,117,-441
39626,578,0,2023-03-01T18:58:40.813773,2110359,892,893,-2205,-1043,-570,-328,69,117,-441
39627,579,0,2023-03-01T18:58:40.819234,2110364,891,893,-2204,-1036,-574,-326,69,117,-441
39628,580,0,2023-03-01T18:58:40.824929,2110370,891,893,-2204,-1036,-574,-326,69,117,-441
39629,581,0,2023-03-01T18:58:40.830322,2110375,891,893,-2204,-1036,-574,-326,69,117,-441
39630,582,0,2023-03-01T18:58:40.836241,2110382,891,894,-2212,-1026,-573,-327,69,117,-441
39631,583,0,2023-03-01T18:58:40.841852,2110387,891,894,-2212,-1026,-573,-327,69,117,-441
39632,584,0,2023-03-01T18:58:40.846670,2110392,891,894,-2212,-1026,-573,-327,69,117,-441
39633,585,0,2023-03-01T18:58:40.851755,2110397,891,894,-2212,-1026,-573,-327,69,117,-441
39634,586,0,2023-03-01T18:58:40.856756,2110402,892,892,-2210,-1044,-571,-320,70,120,-436
39635,587,0,2023-03-01T18:58:40.862771,2110407,892,892,-2210,-1044,-571,-320,70,120,-436
39636,588,0,2023-03-01T18:58:40.867636,2110412,892,892,-2210,-1044,-571,-320,70,120,-436
39637,589,0,2023-03-01T18:58:40.872495,2110417,892,892,-2210,-1044,-571,-320,70,120,-436
39638,590,0,2023-03-01T18:58:40.878904,2110424,889,893,-2205,-1048,-565,-328,70,120,-436
39639,591,0,2023-03-01T18:58:40.884529,2110430,889,893,-2205,-1048,-565,-328,70,120,-436
39640,592,0,2023-03-01T18:58:40.889528,2110435,889,893,-2205,-1048,-565,-328,70,120,-436
39641,593,0,2023-03-01T18:58:40.895207,2110440,889,893,-2205,-1048,-565,-328,70,120,-436
39642,594,0,2023-03-01T18:58:40.900137,2110445,892,894,-2208,-1043,-567,-327,70,120,-436
39643,595,0,2023-03-01T18:58:40.905730,2110451,892,894,-2208,-1043,-567,-327,70,120,-436
39644,596,0,2023-03-01T18:58:40.910699,2110456,892,894,-2208,-1043,-567,-327,70,120,-436
39645,597,0,2023-03-01T18:58:40.916152,2110461,892,893,-2205,-1038,-569,-325,70,120,-436
39646,598,0,2023-03-01T18:58:40.921696,2110467,892,893,-2205,-1038,-569,-325,70,120,-436
39647,599,0,2023-03-01T18:58:40.926845,2110472,892,893,-2205,-1038,-569,-325,70,120,-436
39648,600,0,2023-03-01T18:58:40.931546,2110477,892,893,-2205,-1038,-569,-325,70,120,-436
39649,601,0,2023-03-01T18:58:40.937899,2110483,893,893,-2207,-1036,-575,-320,70,120,-436
39650,602,0,2023-03-01T18:58:40.944150,2110489,893,893,-2207,-1036,-575,-320,70,120,-436
39651,603,0,2023-03-01T18:58:40.949193,2110494,893,893,-2207,-1036,-575,-320,70,120,-436
39652,604,0,2023-03-01T18:58:40.955592,2110500,893,893,-2207,-1036,-575,-320,70,120,-436
39653,605,0,2023-03-01T18:58:40.960940,2110505,890,890,-2210,-1033,-571,-317,70,120,-436
39654,606,0,2023-03-01T18:58:40.968092,2110513,890,890,-2210,-1033,-571,-317,70,120,-436
39655,607,0,2023-03-01T18:58:40.973514,2110519,890,890,-2210,-1033,-571,-317,70,120,-436
39656,608,0,2023-03-01T18:58:40.980209,2110524,895,895,-2209,-1037,-571,-318,70,120,-436
39657,609,0,2023-03-01T18:58:40.986190,2110531,895,895,-2209,-1037,-571,-318,70,120,-436
39658,610,0,2023-03-01T18:58:40.991862,2110536,895,895,-2209,-1037,-571,-318,70,120,-436
39659,611,0,2023-03-01T18:58:40.998201,2110543,892,892,-2209,-1041,-569,-316,71,117,-437
39660,612,0,2023-03-01T18:58:41.004084,2110550,892,892,-2209,-1041,-569,-316,71,117,-437
39661,613,0,2023-03-01T18:58:41.009495,2110555,892,892,-2209,-1041,-569,-316,71,117,-437
39662,614,0,2023-03-01T18:58:41.015332,2110561,892,892,-2209,-1041,-569,-316,71,117,-437
39663,615,0,2023-03-01T18:58:41.020539,2110565,892,895,-2205,-1039,-567,-323,71,117,-437
39664,616,0,2023-03-01T18:58:41.026443,2110572,892,895,-2205,-1039,-567,-323,71,117,-437
39665,617,0,2023-03-01T18:58:41.031356,2110576,892,895,-2205,-1039,-567,-323,71,117,-437
39666,618,0,2023-03-01T18:58:41.036848,2110581,887,891,-2202,-1033,-573,-325,71,117,-437
39667,619,0,2023-03-01T18:58:41.041618,2110586,887,891,-2202,-1033,-573,-325,71,117,-437
39668,620,0,2023-03-01T18:58:41.046742,2110592,887,891,-2202,-1033,-573,-325,71,117,-437
39669,621,0,2023-03-01T18:58:41.052072,2110597,887,891,-2202,-1033,-573,-325,71,117,-437
39670,622,0,2023-03-01T18:58:41.057945,2110603,890,895,-2209,-1036,-576,-327,71,117,-437
39671,623,0,2023-03-01T18:58:41.063541,2110609,890,895,-2209,-1036,-576,-327,71,117,-437
39672,624,0,2023-03-01T18:58:41.068478,2110614,890,895,-2209,-1036,-576,-327,71,117,-437
39673,625,0,2023-03-01T18:58:41.073507,2110618,890,895,-2209,-1036,-576,-327,71,117,-437
39674,626,0,2023-03-01T18:58:41.079472,2110624,890,893,-2211,-1044,-578,-323,71,117,-437
39675,627,0,2023-03-01T18:58:41.085404,2110630,890,893,-2211,-1044,-578,-323,71,117,-437
39676,628,0,2023-03-01T18:58:41.090851,2110636,890,893,-2211,-1044,-578,-323,71,117,-437
39677,629,0,2023-03-01T18:58:41.097285,2110643,892,894,-2206,-1037,-573,-325,71,117,-437
39678,630,0,2023-03-01T18:58:41.102964,2110648,892,894,-2206,-1037,-573,-325,71,117,-437
39679,631,0,2023-03-01T18:58:41.108048,2110653,892,894,-2206,-1037,-573,-325,71,117,-437
39680,632,0,2023-03-01T18:58:41.112900,2110658,892,894,-2206,-1037,-573,-325,71,117,-437
39681,633,0,2023-03-01T18:58:41.118261,2110663,893,891,-2203,-1037,-569,-324,73,123,-445
39682,634,0,2023-03-01T18:58:41.123578,2110668,893,891,-2203,-1037,-569,-324,73,123,-445
39683,635,0,2023-03-01T18:58:41.128853,2110673,893,891,-2203,-1037,-569,-324,73,123,-445
39684,636,0,2023-03-01T18:58:41.133838,2110679,893,891,-2203,-1037,-569,-324,73,123,-445
39685,637,0,2023-03-01T18:58:41.139202,2110685,892,893,-2204,-1040,-566,-317,73,123,-445
39686,638,0,2023-03-01T18:58:41.144885,2110690,892,893,-2204,-1040,-566,-317,73,123,-445
39687,639,0,2023-03-01T18:58:41.149721,2110695,892,893,-2204,-1040,-566,-317,73,123,-445
39688,640,0,2023-03-01T18:58:41.154470,2110700,892,893,-2204,-1040,-566,-317,73,123,-445
39689,641,0,2023-03-01T18:58:41.159498,2110704,894,895,-2202,-1037,-573,-320,73,123,-445
39690,642,0,2023-03-01T18:58:41.165317,2110710,894,895,-2202,-1037,-573,-320,73,123,-445
39691,643,0,2023-03-01T18:58:41.170908,2110715,894,895,-2202,-1037,-573,-320,73,123,-445
39692,644,0,2023-03-01T18:58:41.177784,2110723,891,890,-2207,-1042,-574,-322,73,123,-445
39693,645,0,2023-03-01T18:58:41.183889,2110729,891,890,-2207,-1042,-574,-322,73,123,-445
39694,646,0,2023-03-01T18:58:41.189414,2110734,891,890,-2207,-1042,-574,-322,73,123,-445
39695,647,0,2023-03-01T18:58:41.195798,2110740,891,890,-2207,-1042,-574,-322,73,123,-445
39696,648,0,2023-03-01T18:58:41.201841,2110747,889,893,-2209,-1047,-570,-322,73,123,-445
39697,649,0,2023-03-01T18:58:41.208555,2110753,889,893,-2209,-1047,-570,-322,73,123,-445
39698,650,0,2023-03-01T18:58:41.214583,2110759,889,893,-2209,-1047,-570,-322,73,123,-445
39699,651,0,2023-03-01T18:58:41.220531,2110766,893,893,-2210,-1040,-568,-324,73,123,-445
39700,652,0,2023-03-01T18:58:41.226849,2110772,893,893,-2210,-1040,-568,-324,73,123,-445
39701,653,0,2023-03-01T18:58:41.232430,2110777,893,893,-2210,-1040,-568,-324,73,123,-445
39702,654,0,2023-03-01T18:58:41.239319,2110784,892,894,-2213,-1034,-570,-326,73,123,-445
39703,655,0,2023-03-01T18:58:41.245822,2110790,892,894,-2213,-1034,-570,-326,73,123,-445
39704,656,0,2023-03-01T18:58:41.251010,2110796,892,894,-2213,-1034,-570,-326,73,123,-445
39705,657,0,2023-03-01T18:58:41.257231,2110802,892,894,-2213,-1034,-570,-326,69,119,-443
39706,658,0,2023-03-01T18:58:41.261885,2110807,892,894,-2213,-1034,-570,-326,69,119,-443
39707,659,0,2023-03-01T18:58:41.267447,2110813,892,894,-2213,-1034,-570,-326,69,119,-443
39708,660,0,2023-03-01T18:58:41.272470,2110818,892,894,-2213,-1034,-570,-326,69,119,-443
39709,661,0,2023-03-01T18:58:41.278298,2110823,892,892,-2205,-1035,-574,-326,69,119,-443
39710,662,0,2023-03-01T18:58:41.284089,2110829,892,892,-2205,-1035,-574,-326,69,119,-443
39711,663,0,2023-03-01T18:58:41.291304,2110836,892,892,-2205,-1035,-574,-326,69,119,-443
39712,664,0,2023-03-01T18:58:41.297257,2110842,894,892,-2201,-1041,-577,-321,69,119,-443
39713,665,0,2023-03-01T18:58:41.303143,2110849,894,892,-2201,-1041,-577,-321,69,119,-443
39714,666,0,2023-03-01T18:58:41.308597,2110854,894,892,-2201,-1041,-577,-321,69,119,-443
39715,667,0,2023-03-01T18:58:41.313420,2110859,894,892,-2201,-1041,-577,-321,69,119,-443
39716,668,0,2023-03-01T18:58:41.319119,2110864,893,892,-2210,-1041,-573,-322,69,119,-443
39717,669,0,2023-03-01T18:58:41.324641,2110870,893,892,-2210,-1041,-573,-322,69,119,-443
39718,670,0,2023-03-01T18:58:41.329746,2110874,893,892,-2210,-1041,-573,-322,69,119,-443
39719,671,0,2023-03-01T18:58:41.335788,2110881,893,892,-2210,-1041,-573,-322,69,119,-443
39720,672,0,2023-03-01T18:58:41.340721,2110885,891,891,-2213,-1042,-570,-318,69,119,-443
39721,673,0,2023-03-01T18:58:41.346170,2110892,891,891,-2213,-1042,-570,-318,69,119,-443
39722,674,0,2023-03-01T18:58:41.351320,2110897,891,891,-2213,-1042,-570,-318,69,119,-443
39723,675,0,2023-03-01T18:58:41.358436,2110904,892,891,-2205,-1035,-573,-313,69,119,-443
39724,676,0,2023-03-01T18:58:41.364016,2110909,892,891,-2205,-1035,-573,-313,69,119,-443
39725,677,0,2023-03-01T18:58:41.368887,2110914,892,891,-2205,-1035,-573,-313,69,119,-443
39726,678,0,2023-03-01T18:58:41.373623,2110919,892,891,-2205,-1035,-573,-313,69,119,-443
39727,679,0,2023-03-01T18:58:41.378486,2110923,894,896,-2206,-1036,-584,-323,59,125,-439
39728,680,0,2023-03-01T18:58:41.384911,2110929,894,896,-2206,-1036,-584,-323,59,125,-439
39729,681,0,2023-03-01T18:58:41.390016,2110935,894,896,-2206,-1036,-584,-323,59,125,-439
39730,682,0,2023-03-01T18:58:41.396688,2110942,894,896,-2206,-1036,-584,-323,59,125,-439
39731,683,0,2023-03-01T18:58:41.402366,2110948,892,890,-2210,-1028,-575,-320,59,125,-439
39732,684,0,2023-03-01T18:58:41.408394,2110953,892,890,-2210,-1028,-575,-320,59,125,-439
39733,685,0,2023-03-01T18:58:41.413719,2110958,892,890,-2210,-1028,-575,-320,59,125,-439
39734,686,0,2023-03-01T18:58:41.419443,2110964,892,893,-2207,-1029,-570,-319,59,125,-439
39735,687,0,2023-03-01T18:58:41.424881,2110970,892,893,-2207,-1029,-570,-319,59,125,-439
39736,688,0,2023-03-01T18:58:41.429910,2110974,892,893,-2207,-1029,-570,-319,59,125,-439
39737,689,0,2023-03-01T18:58:41.436528,2110982,892,893,-2207,-1029,-570,-319,59,125,-439
39738,690,0,2023-03-01T18:58:41.441384,2110987,891,893,-2211,-1037,-561,-326,59,125,-439
39739,691,0,2023-03-01T18:58:41.447670,2110992,891,893,-2211,-1037,-561,-326,59,125,-439
39740,692,0,2023-03-01T18:58:41.452575,2110998,891,893,-2211,-1037,-561,-326,59,125,-439
39741,693,0,2023-03-01T18:58:41.458794,2111004,889,893,-2206,-1041,-568,-323,59,125,-439
39742,694,0,2023-03-01T18:58:41.465578,2111010,889,893,-2206,-1041,-568,-323,59,125,-439
39743,695,0,2023-03-01T18:58:41.470519,2111015,889,893,-2206,-1041,-568,-323,59,125,-439
39744,696,0,2023-03-01T18:58:41.476943,2111022,889,893,-2206,-1041,-568,-323,59,125,-439
39745,697,0,2023-03-01T18:58:41.482151,2111027,892,892,-2203,-1040,-579,-320,59,125,-439
39746,698,0,2023-03-01T18:58:41.488436,2111033,892,892,-2203,-1040,-579,-320,59,125,-439
39747,699,0,2023-03-01T18:58:41.493327,2111038,892,892,-2203,-1040,-579,-320,59,125,-439
39748,700,0,2023-03-01T18:58:41.499487,2111044,892,894,-2209,-1052,-576,-320,73,123,-435
39749,701,0,2023-03-01T18:58:41.505935,2111050,892,894,-2209,-1052,-576,-320,73,123,-435
39750,702,0,2023-03-01T18:58:41.511197,2111056,892,894,-2209,-1052,-576,-320,73,123,-435
39751,703,0,2023-03-01T18:58:41.516969,2111062,892,894,-2209,-1052,-576,-320,73,123,-435
39752,704,0,2023-03-01T18:58:41.522119,2111067,890,889,-2203,-1047,-576,-328,73,123,-435
39753,705,0,2023-03-01T18:58:41.528554,2111074,890,889,-2203,-1047,-576,-328,73,123,-435
39754,706,0,2023-03-01T18:58:41.533452,2111079,890,889,-2203,-1047,-576,-328,73,123,-435
39755,707,0,2023-03-01T18:58:41.539343,2111084,892,896,-2205,-1039,-572,-326,73,123,-435
39756,708,0,2023-03-01T18:58:41.545307,2111090,892,896,-2205,-1039,-572,-326,73,123,-435
39757,709,0,2023-03-01T18:58:41.550334,2111095,892,896,-2205,-1039,-572,-326,73,123,-435
39758,710,0,2023-03-01T18:58:41.557698,2111102,892,894,-2209,-1049,-571,-320,73,123,-435
39759,711,0,2023-03-01T18:58:41.563888,2111109,892,894,-2209,-1049,-571,-320,73,123,-435
39760,712,0,2023-03-01T18:58:41.569462,2111115,892,894,-2209,-1049,-571,-320,73,123,-435
39761,713,0,2023-03-01T18:58:41.576298,2111121,892,894,-2209,-1049,-571,-320,73,123,-435
39762,714,0,2023-03-01T18:58:41.581387,2111126,892,891,-2201,-1044,-579,-324,73,123,-435
39763,715,0,2023-03-01T18:58:41.587147,2111132,892,891,-2201,-1044,-579,-324,73,123,-435
39764,716,0,2023-03-01T18:58:41.592386,2111137,892,891,-2201,-1044,-579,-324,73,123,-435
39765,717,0,2023-03-01T18:58:41.597973,2111143,892,892,-2207,-1033,-573,-326,73,123,-435
39766,718,0,2023-03-01T18:58:41.603346,2111149,892,892,-2207,-1033,-573,-326,73,123,-435
39767,719,0,2023-03-01T18:58:41.608758,2111154,892,892,-2207,-1033,-573,-326,73,123,-435
39768,720,0,2023-03-01T18:58:41.614436,2111159,892,892,-2207,-1033,-573,-326,73,123,-435
39769,721,0,2023-03-01T18:58:41.620139,2111165,890,895,-2203,-1041,-574,-330,73,123,-435
39770,722,0,2023-03-01T18:58:41.625853,2111171,890,895,-2203,-1041,-574,-330,73,123,-435
39771,723,0,2023-03-01T18:58:41.630952,2111176,890,895,-2203,-1041,-574,-330,73,123,-435
39772,724,0,2023-03-01T18:58:41.637561,2111182,890,895,-2203,-1041,-574,-330,71,123,-435
39773,725,0,2023-03-01T18:58:41.642231,2111187,890,895,-2203,-1041,-574,-330,71,127,-437
39774,726,0,2023-03-01T18:58:41.646888,2111193,890,895,-2203,-1041,-574,-330,71,127,-437
39775,727,0,2023-03-01T18:58:41.651595,2111197,890,895,-2203,-1041,-574,-330,71,127,-437
39776,728,0,2023-03-01T18:58:41.657418,2111203,892,895,-2207,-1042,-574,-321,71,127,-437
39777,729,0,2023-03-01T18:58:41.662772,2111208,892,895,-2207,-1042,-574,-321,71,127,-437
39778,730,0,2023-03-01T18:58:41.667648,2111213,892,895,-2207,-1042,-574,-321,71,127,-437
39779,731,0,2023-03-01T18:58:41.672781,2111217,892,895,-2207,-1042,-574,-321,71,127,-437
39780,732,0,2023-03-01T18:58:41.678108,2111223,891,893,-2209,-1033,-576,-327,71,127,-437
39781,733,0,2023-03-01T18:58:41.682920,2111228,891,893,-2209,-1033,-576,-327,71,127,-437
39782,734,0,2023-03-01T18:58:41.687830,2111233,891,893,-2209,-1033,-576,-327,71,127,-437
39783,735,0,2023-03-01T18:58:41.693410,2111239,891,893,-2209,-1033,-576,-327,71,127,-437
39784,736,0,2023-03-01T18:58:41.699664,2111245,891,891,-2208,-1038,-575,-329,71,127,-437
39785,737,0,2023-03-01T18:58:41.704945,2111250,891,891,-2208,-1038,-575,-329,71,127,-437
39786,738,0,2023-03-01T18:58:41.710057,2111255,891,891,-2208,-1038,-575,-329,71,127,-437
39787,739,0,2023-03-01T18:58:41.715091,2111260,891,891,-2208,-1038,-575,-329,71,127,-437
39788,740,0,2023-03-01T18:58:41.720405,2111265,892,890,-2212,-1035,-568,-327,71,127,-437
39789,741,0,2023-03-01T18:58:41.726235,2111271,892,890,-2212,-1035,-568,-327,71,127,-437
39790,742,0,2023-03-01T18:58:41.731470,2111277,892,890,-2212,-1035,-568,-327,71,127,-437
39791,743,0,2023-03-01T18:58:41.737088,2111283,891,894,-2209,-1034,-568,-325,71,127,-437
39792,744,0,2023-03-01T18:58:41.742289,2111288,891,894,-2209,-1034,-568,-325,71,127,-437
39793,745,0,2023-03-01T18:58:41.747353,2111292,891,894,-2209,-1034,-568,-325,71,127,-437
39794,746,0,2023-03-01T18:58:41.752662,2111298,891,894,-2209,-1034,-568,-325,71,127,-437
39795,747,0,2023-03-01T18:58:41.758806,2111304,891,893,-2208,-1035,-565,-318,68,118,-440
39796,748,0,2023-03-01T18:58:41.764420,2111309,891,893,-2208,-1035,-565,-318,68,118,-440
39797,749,0,2023-03-01T18:58:41.768880,2111314,891,893,-2208,-1035,-565,-318,68,118,-440
39798,750,0,2023-03-01T18:58:41.773938,2111319,891,893,-2208,-1035,-565,-318,68,118,-440
39799,751,0,2023-03-01T18:58:41.779587,2111325,889,894,-2207,-1044,-572,-320,68,118,-440
39800,752,0,2023-03-01T18:58:41.785593,2111331,889,894,-2207,-1044,-572,-320,68,118,-440
39801,753,0,2023-03-01T18:58:41.790252,2111336,889,894,-2207,-1044,-572,-320,68,118,-440
39802,754,0,2023-03-01T18:58:41.796156,2111341,889,894,-2207,-1044,-572,-320,68,118,-440
39803,755,0,2023-03-01T18:58:41.801262,2111346,889,895,-2207,-1045,-572,-319,68,118,-440
39804,756,0,2023-03-01T18:58:41.808074,2111352,889,895,-2207,-1045,-572,-319,68,118,-440
39805,757,0,2023-03-01T18:58:41.813013,2111358,889,895,-2207,-1045,-572,-319,68,118,-440
39806,758,0,2023-03-01T18:58:41.818875,2111365,890,893,-2208,-1039,-576,-318,68,118,-440
39807,759,0,2023-03-01T18:58:41.824320,2111370,890,893,-2208,-1039,-576,-318,68,118,-440
39808,760,0,2023-03-01T18:58:41.829938,2111375,890,893,-2208,-1039,-576,-318,68,118,-440
39809,761,0,2023-03-01T18:58:41.835859,2111381,890,893,-2208,-1039,-576,-318,68,118,-440
39810,762,0,2023-03-01T18:58:41.841049,2111386,889,892,-2206,-1040,-567,-320,68,118,-440
39811,763,0,2023-03-01T18:58:41.847013,2111392,889,892,-2206,-1040,-567,-320,68,118,-440
39812,764,0,2023-03-01T18:58:41.852201,2111397,889,892,-2206,-1040,-567,-320,68,118,-440
39813,765,0,2023-03-01T18:58:41.858353,2111404,888,893,-2211,-1037,-573,-326,68,118,-440
39814,766,0,2023-03-01T18:58:41.864590,2111410,888,893,-2211,-1037,-573,-326,68,118,-440
39815,767,0,2023-03-01T18:58:41.869738,2111415,888,893,-2211,-1037,-573,-326,68,118,-440
39816,768,0,2023-03-01T18:58:41.875603,2111421,888,893,-2211,-1037,-573,-326,68,118,-440
39817,769,0,2023-03-01T18:58:41.880327,2111426,891,894,-2208,-1038,-574,-321,68,118,-440
39818,770,0,2023-03-01T18:58:41.885868,2111431,891,894,-2208,-1038,-574,-321,68,118,-440
39819,771,0,2023-03-01T18:58:41.890763,2111436,891,894,-2208,-1038,-574,-321,68,118,-440
39820,772,0,2023-03-01T18:58:41.896962,2111442,891,894,-2208,-1038,-574,-321,68,118,-440
39821,773,0,2023-03-01T18:58:41.901736,2111447,890,893,-2200,-1034,-572,-315,57,121,-437
39822,774,0,2023-03-01T18:58:41.907400,2111453,890,893,-2200,-1034,-572,-315,57,121,-437
39823,775,0,2023-03-01T18:58:41.912495,2111458,890,893,-2200,-1034,-572,-315,57,121,-437
39824,776,0,2023-03-01T18:58:41.919373,2111464,893,889,-2202,-1037,-577,-319,57,121,-437
39825,777,0,2023-03-01T18:58:41.924952,2111470,893,889,-2202,-1037,-577,-319,57,121,-437
39826,778,0,2023-03-01T18:58:41.930052,2111475,893,889,-2202,-1037,-577,-319,57,121,-437
39827,779,0,2023-03-01T18:58:41.936375,2111481,893,889,-2202,-1037,-577,-319,57,121,-437
39828,780,0,2023-03-01T18:58:41.941153,2111486,891,894,-2203,-1038,-573,-324,57,121,-437
39829,781,0,2023-03-01T18:58:41.947670,2111492,891,894,-2203,-1038,-573,-324,57,121,-437
39830,782,0,2023-03-01T18:58:41.953290,2111498,891,894,-2203,-1038,-573,-324,57,121,-437
39831,783,0,2023-03-01T18:58:41.959031,2111504,893,893,-2211,-1049,-572,-320,57,121,-437
39832,784,0,2023-03-01T18:58:41.964623,2111509,893,893,-2211,-1049,-572,-320,57,121,-437
39833,785,0,2023-03-01T18:58:41.969626,2111514,893,893,-2211,-1049,-572,-320,57,121,-437
39834,786,0,2023-03-01T18:58:41.976047,2111521,893,893,-2211,-1049,-572,-320,57,121,-437
39835,787,0,2023-03-01T18:58:41.981313,2111526,893,894,-2207,-1043,-576,-314,57,121,-437
39836,788,0,2023-03-01T18:58:41.986719,2111532,893,894,-2207,-1043,-576,-314,57,121,-437
39837,789,0,2023-03-01T18:58:41.991781,2111537,893,894,-2207,-1043,-576,-314,57,121,-437
39838,790,0,2023-03-01T18:58:41.998476,2111544,891,888,-2207,-1038,-570,-320,57,121,-437
39839,791,0,2023-03-01T18:58:42.004455,2111549,891,888,-2207,-1038,-570,-320,57,121,-437
39840,792,0,2023-03-01T18:58:42.009453,2111554,891,888,-2207,-1038,-570,-320,57,121,-437
39841,793,0,2023-03-01T18:58:42.014255,2111559,891,888,-2207,-1038,-570,-320,57,121,-437
39842,794,0,2023-03-01T18:58:42.020136,2111565,891,892,-2203,-1044,-568,-322,67,121,-439
39843,795,0,2023-03-01T18:58:42.025560,2111570,891,892,-2203,-1044,-568,-322,67,121,-439
39844,796,0,2023-03-01T18:58:42.030293,2111576,891,892,-2203,-1044,-568,-322,67,121,-439
39845,797,0,2023-03-01T18:58:42.036782,2111582,891,892,-2203,-1044,-568,-322,67,121,-439
39846,798,0,2023-03-01T18:58:42.042208,2111588,893,891,-2210,-1041,-570,-322,67,121,-439
39847,799,0,2023-03-01T18:58:42.048057,2111593,893,891,-2210,-1041,-570,-322,67,121,-439
39848,800,0,2023-03-01T18:58:42.053010,2111598,893,891,-2210,-1041,-570,-322,67,121,-439
39849,801,0,2023-03-01T18:58:42.059935,2111604,892,893,-2204,-1031,-564,-320,67,121,-439
39850,802,0,2023-03-01T18:58:42.066046,2111611,892,893,-2204,-1031,-564,-320,67,121,-439
39851,803,0,2023-03-01T18:58:42.070876,2111617,892,893,-2204,-1031,-564,-320,67,121,-439
39852,804,0,2023-03-01T18:58:42.077030,2111622,892,893,-2204,-1031,-564,-320,67,121,-439
39853,805,0,2023-03-01T18:58:42.082349,2111628,892,894,-2210,-1043,-570,-321,67,121,-439
39854,806,0,2023-03-01T18:58:42.088509,2111634,892,894,-2210,-1043,-570,-321,67,121,-439
39855,807,0,2023-03-01T18:58:42.094923,2111639,892,894,-2210,-1043,-570,-321,67,121,-439
39856,808,0,2023-03-01T18:58:42.100244,2111645,894,896,-2210,-1034,-573,-317,67,121,-439
39857,809,0,2023-03-01T18:58:42.105413,2111650,894,896,-2210,-1034,-573,-317,67,121,-439
39858,810,0,2023-03-01T18:58:42.110202,2111655,894,896,-2210,-1034,-573,-317,67,121,-439
39859,811,0,2023-03-01T18:58:42.116140,2111661,894,896,-2210,-1034,-573,-317,67,121,-439
39860,812,0,2023-03-01T18:58:42.121418,2111667,891,894,-2205,-1041,-574,-318,67,121,-439
39861,813,0,2023-03-01T18:58:42.126975,2111672,891,894,-2205,-1041,-574,-318,67,121,-439
39862,814,0,2023-03-01T18:58:42.132164,2111677,891,894,-2205,-1041,-574,-318,67,121,-439
39863,815,0,2023-03-01T18:58:42.138662,2111683,891,893,-2205,-1036,-571,-321,67,121,-439
39864,816,0,2023-03-01T18:58:42.144540,2111689,891,893,-2205,-1036,-571,-321,67,121,-439
39865,817,0,2023-03-01T18:58:42.149604,2111694,891,893,-2205,-1036,-571,-321,67,121,-439
39866,818,0,2023-03-01T18:58:42.155281,2111700,891,893,-2205,-1036,-571,-321,67,121,-439
39867,819,0,2023-03-01T18:58:42.159970,2111706,892,899,-2209,-1038,-568,-320,68,122,-430
39868,820,0,2023-03-01T18:58:42.165288,2111711,892,899,-2209,-1038,-568,-320,68,122,-430
39869,821,0,2023-03-01T18:58:42.172084,2111717,892,899,-2209,-1038,-568,-320,68,122,-430
39870,822,0,2023-03-01T18:58:42.179004,2111724,889,892,-2204,-1034,-567,-317,68,122,-430
39871,823,0,2023-03-01T18:58:42.184332,2111729,889,892,-2204,-1034,-567,-317,68,122,-430
39872,824,0,2023-03-01T18:58:42.189207,2111734,889,892,-2204,-1034,-567,-317,68,122,-430
39873,825,0,2023-03-01T18:58:42.195178,2111740,889,892,-2204,-1034,-567,-317,68,122,-430
39874,826,0,2023-03-01T18:58:42.200684,2111746,892,895,-2204,-1034,-576,-321,68,122,-430
39875,827,0,2023-03-01T18:58:42.206441,2111752,892,895,-2204,-1034,-576,-321,68,122,-430
39876,828,0,2023-03-01T18:58:42.211906,2111757,892,895,-2204,-1034,-576,-321,68,122,-430
39877,829,0,2023-03-01T18:58:42.219489,2111765,892,892,-2209,-1031,-579,-330,68,122,-430
39878,830,0,2023-03-01T18:58:42.226604,2111771,892,892,-2209,-1031,-579,-330,68,122,-430
39879,831,0,2023-03-01T18:58:42.231841,2111777,892,892,-2209,-1031,-579,-330,68,122,-430
39880,832,0,2023-03-01T18:58:42.237787,2111783,894,893,-2211,-1033,-567,-322,68,122,-430
39881,833,0,2023-03-01T18:58:42.243458,2111789,894,893,-2211,-1033,-567,-322,68,122,-430
39882,834,0,2023-03-01T18:58:42.248635,2111794,894,893,-2211,-1033,-567,-322,68,122,-430
39883,835,0,2023-03-01T18:58:42.253703,2111799,894,893,-2211,-1033,-567,-322,68,122,-430
39884,836,0,2023-03-01T18:58:42.259322,2111804,893,893,-2205,-1039,-572,-325,68,122,-430
39885,837,0,2023-03-01T18:58:42.265162,2111810,893,893,-2205,-1039,-572,-325,68,122,-430
39886,838,0,2023-03-01T18:58:42.269965,2111815,893,893,-2205,-1039,-572,-325,68,122,-430
39887,839,0,2023-03-01T18:58:42.276492,2111821,893,893,-2205,-1039,-572,-325,68,122,-430
39888,840,0,2023-03-01T18:58:42.283342,2111828,894,893,-2203,-1040,-577,-325,70,122,-436
39889,841,0,2023-03-01T18:58:42.289244,2111835,894,893,-2203,-1040,-577,-325,70,122,-436
39890,842,0,2023-03-01T18:58:42.295060,2111841,894,893,-2203,-1040,-577,-325,70,122,-436
39891,843,0,2023-03-01T18:58:42.300442,2111846,892,894,-2204,-1045,-579,-321,70,122,-436
39892,844,0,2023-03-01T18:58:42.305517,2111851,892,894,-2204,-1045,-579,-321,70,122,-436
39893,845,0,2023-03-01T18:58:42.310334,2111855,892,894,-2204,-1045,-579,-321,70,122,-436
39894,846,0,2023-03-01T18:58:42.316506,2111861,892,894,-2204,-1045,-579,-321,70,122,-436
39895,847,0,2023-03-01T18:58:42.321322,2111866,894,893,-2208,-1039,-568,-321,70,122,-436
39896,848,0,2023-03-01T18:58:42.326942,2111873,894,893,-2208,-1039,-568,-321,70,122,-436
39897,849,0,2023-03-01T18:58:42.331781,2111877,894,893,-2208,-1039,-568,-321,70,122,-436
39898,850,0,2023-03-01T18:58:42.337821,2111883,894,893,-2208,-1039,-568,-321,70,122,-436
39899,851,0,2023-03-01T18:58:42.343834,2111888,891,893,-2197,-1037,-572,-328,70,122,-436
39900,852,0,2023-03-01T18:58:42.349301,2111895,891,893,-2197,-1037,-572,-328,70,122,-436
39901,853,0,2023-03-01T18:58:42.355613,2111901,891,893,-2197,-1037,-572,-328,70,122,-436
39902,854,0,2023-03-01T18:58:42.360213,2111905,892,892,-2208,-1031,-569,-325,70,122,-436
39903,855,0,2023-03-01T18:58:42.365808,2111910,892,892,-2208,-1031,-569,-325,70,122,-436
39904,856,0,2023-03-01T18:58:42.371047,2111916,892,892,-2208,-1031,-569,-325,70,122,-436
39905,857,0,2023-03-01T18:58:42.376092,2111922,892,892,-2208,-1031,-569,-325,70,122,-436
39906,858,0,2023-03-01T18:58:42.381043,2111926,893,888,-2208,-1030,-567,-324,70,122,-436
39907,859,0,2023-03-01T18:58:42.386844,2111932,893,888,-2208,-1030,-567,-324,70,122,-436
39908,860,0,2023-03-01T18:58:42.391732,2111937,893,888,-2208,-1030,-567,-324,70,122,-436
39909,861,0,2023-03-01T18:58:42.398389,2111943,891,894,-2210,-1037,-569,-320,70,122,-436
39910,862,0,2023-03-01T18:58:42.404069,2111949,891,894,-2210,-1037,-569,-320,66,124,-440
39911,863,0,2023-03-01T18:58:42.408921,2111954,891,894,-2210,-1037,-569,-320,66,124,-440
39912,864,0,2023-03-01T18:58:42.413576,2111959,891,894,-2210,-1037,-569,-320,66,124,-440
39913,865,0,2023-03-01T18:58:42.419061,2111964,896,891,-2204,-1034,-567,-316,66,124,-440
39914,866,0,2023-03-01T18:58:42.424567,2111970,896,891,-2204,-1034,-567,-316,66,124,-440
39915,867,0,2023-03-01T18:58:42.429536,2111975,896,891,-2204,-1034,-567,-316,66,124,-440
39916,868,0,2023-03-01T18:58:42.435003,2111980,896,891,-2204,-1034,-567,-316,66,124,-440
39917,869,0,2023-03-01T18:58:42.439788,2111985,893,892,-2201,-1039,-572,-317,66,124,-440
39918,870,0,2023-03-01T18:58:42.445666,2111990,893,892,-2201,-1039,-572,-317,66,124,-440
39919,871,0,2023-03-01T18:58:42.450269,2111995,893,892,-2201,-1039,-572,-317,66,124,-440
39920,872,0,2023-03-01T18:58:42.456130,2112002,893,892,-2201,-1039,-572,-317,66,124,-440
39921,873,0,2023-03-01T18:58:42.461837,2112007,894,896,-2204,-1048,-578,-318,66,124,-440
39922,874,0,2023-03-01T18:58:42.467768,2112013,894,896,-2204,-1048,-578,-318,66,124,-440
39923,875,0,2023-03-01T18:58:42.473690,2112019,894,896,-2204,-1048,-578,-318,66,124,-440
39924,876,0,2023-03-01T18:58:42.479823,2112025,892,894,-2209,-1045,-574,-325,66,124,-440
39925,877,0,2023-03-01T18:58:42.486140,2112031,892,894,-2209,-1045,-574,-325,66,124,-440
39926,878,0,2023-03-01T18:58:42.491262,2112036,892,894,-2209,-1045,-574,-325,66,124,-440
39927,879,0,2023-03-01T18:58:42.497269,2112043,892,894,-2209,-1045,-574,-325,66,124,-440
39928,880,0,2023-03-01T18:58:42.502744,2112048,892,891,-2204,-1037,-571,-326,66,124,-440
39929,881,0,2023-03-01T18:58:42.507874,2112053,892,891,-2204,-1037,-571,-326,66,124,-440
39930,882,0,2023-03-01T18:58:42.513020,2112058,892,891,-2204,-1037,-571,-326,66,124,-440
39931,883,0,2023-03-01T18:58:42.519289,2112064,889,892,-2206,-1042,-571,-315,66,124,-440
39932,884,0,2023-03-01T18:58:42.524969,2112070,889,892,-2206,-1042,-571,-315,66,124,-440
39933,885,0,2023-03-01T18:58:42.529836,2112075,889,892,-2206,-1042,-571,-315,66,124,-440
39934,886,0,2023-03-01T18:58:42.536091,2112081,889,892,-2206,-1042,-571,-315,66,124,-440
39935,887,0,2023-03-01T18:58:42.541808,2112087,891,896,-2203,-1035,-572,-319,70,116,-434
39936,888,0,2023-03-01T18:58:42.547610,2112093,891,896,-2203,-1035,-572,-319,70,116,-434
39937,889,0,2023-03-01T18:58:42.552952,2112098,891,896,-2203,-1035,-572,-319,70,116,-434
39938,890,0,2023-03-01T18:58:42.559324,2112104,893,895,-2206,-1031,-572,-310,70,116,-434
39939,891,0,2023-03-01T18:58:42.565298,2112110,893,895,-2206,-1031,-572,-310,70,116,-434
39940,892,0,2023-03-01T18:58:42.570755,2112116,893,895,-2206,-1031,-572,-310,70,116,-434
39941,893,0,2023-03-01T18:58:42.576964,2112122,893,895,-2206,-1031,-572,-310,70,116,-434
39942,894,0,2023-03-01T18:58:42.582173,2112128,891,894,-2205,-1037,-569,-321,70,116,-434
39943,895,0,2023-03-01T18:58:42.587710,2112133,891,894,-2205,-1037,-569,-321,70,116,-434
39944,896,0,2023-03-01T18:58:42.592638,2112138,891,894,-2205,-1037,-569,-321,70,116,-434
39945,897,0,2023-03-01T18:58:42.598720,2112144,892,893,-2205,-1035,-575,-319,70,116,-434
39946,898,0,2023-03-01T18:58:42.606559,2112151,892,893,-2205,-1035,-575,-319,70,116,-434
39947,899,0,2023-03-01T18:58:42.611998,2112156,892,893,-2205,-1035,-575,-319,70,116,-434
39948,900,0,2023-03-01T18:58:42.617867,2112163,892,893,-2205,-1035,-575,-319,70,116,-434
39949,901,0,2023-03-01T18:58:42.623117,2112168,896,894,-2209,-1041,-571,-321,70,116,-434
39950,902,0,2023-03-01T18:58:42.628735,2112174,896,894,-2209,-1041,-571,-321,70,116,-434
39951,903,0,2023-03-01T18:58:42.634714,2112180,896,894,-2209,-1041,-571,-321,70,116,-434
39952,904,0,2023-03-01T18:58:42.640027,2112185,895,891,-2204,-1031,-571,-318,70,116,-434
39953,905,0,2023-03-01T18:58:42.645867,2112191,895,891,-2204,-1031,-571,-318,70,116,-434
39954,906,0,2023-03-01T18:58:42.650905,2112196,895,891,-2204,-1031,-571,-318,70,116,-434
39955,907,0,2023-03-01T18:58:42.656925,2112202,895,891,-2204,-1031,-571,-318,70,116,-434
39956,908,0,2023-03-01T18:58:42.661916,2112207,891,890,-2206,-1030,-572,-327,76,124,-446
39957,909,0,2023-03-01T18:58:42.668105,2112212,891,890,-2206,-1030,-572,-327,76,124,-446
39958,910,0,2023-03-01T18:58:42.673154,2112219,891,890,-2206,-1030,-572,-327,76,124,-446
39959,911,0,2023-03-01T18:58:42.679588,2112225,890,895,-2206,-1039,-571,-327,76,124,-446
39960,912,0,2023-03-01T18:58:42.685254,2112231,890,895,-2206,-1039,-571,-327,76,124,-446
39961,913,0,2023-03-01T18:58:42.690378,2112235,890,895,-2206,-1039,-571,-327,76,124,-446
39962,914,0,2023-03-01T18:58:42.696294,2112241,890,895,-2206,-1039,-571,-327,76,124,-446
39963,915,0,2023-03-01T18:58:42.701240,2112246,892,893,-2205,-1040,-573,-319,76,124,-446
39964,916,0,2023-03-01T18:58:42.707519,2112252,892,893,-2205,-1040,-573,-319,76,124,-446
39965,917,0,2023-03-01T18:58:42.712634,2112258,892,893,-2205,-1040,-573,-319,76,124,-446
39966,918,0,2023-03-01T18:58:42.719235,2112264,891,894,-2211,-1036,-567,-316,76,124,-446
39967,919,0,2023-03-01T18:58:42.724716,2112270,891,894,-2211,-1036,-567,-316,76,124,-446
39968,920,0,2023-03-01T18:58:42.729756,2112275,891,894,-2211,-1036,-567,-316,76,124,-446
39969,921,0,2023-03-01T18:58:42.735760,2112281,891,894,-2211,-1036,-567,-316,76,124,-446
39970,922,0,2023-03-01T18:58:42.740312,2112286,894,895,-2205,-1035,-573,-318,76,124,-446
39971,923,0,2023-03-01T18:58:42.746125,2112290,894,895,-2205,-1035,-573,-318,76,124,-446
39972,924,0,2023-03-01T18:58:42.751438,2112296,894,895,-2205,-1035,-573,-318,76,124,-446
39973,925,0,2023-03-01T18:58:42.756105,2112302,894,895,-2205,-1035,-573,-318,76,124,-446
39974,926,0,2023-03-01T18:58:42.761186,2112307,893,891,-2206,-1023,-562,-322,76,124,-446
39975,927,0,2023-03-01T18:58:42.766557,2112312,893,891,-2206,-1023,-562,-322,76,124,-446
39976,928,0,2023-03-01T18:58:42.771113,2112317,893,891,-2206,-1023,-562,-322,76,124,-446
39977,929,0,2023-03-01T18:58:42.777192,2112322,893,891,-2206,-1023,-562,-322,76,124,-446
39978,930,0,2023-03-01T18:58:42.782383,2112327,892,892,-2210,-1035,-571,-326,76,124,-446
39979,931,0,2023-03-01T18:58:42.788389,2112333,892,892,-2210,-1035,-571,-326,76,124,-446
39980,932,0,2023-03-01T18:58:42.793993,2112339,892,892,-2210,-1035,-571,-326,76,124,-446
39981,933,0,2023-03-01T18:58:42.799947,2112346,893,891,-2203,-1039,-579,-326,59,125,-439
39982,934,0,2023-03-01T18:58:42.806057,2112351,893,891,-2203,-1039,-579,-326,59,125,-439
39983,935,0,2023-03-01T18:58:42.811225,2112356,893,891,-2203,-1039,-579,-326,59,125,-439
39984,936,0,2023-03-01T18:58:42.817791,2112363,893,891,-2203,-1039,-579,-326,59,125,-439
39985,937,0,2023-03-01T18:58:42.822682,2112368,890,894,-2207,-1042,-575,-322,59,125,-439
39986,938,0,2023-03-01T18:58:42.828656,2112373,890,894,-2207,-1042,-575,-322,59,125,-439
39987,939,0,2023-03-01T18:58:42.833259,2112378,890,894,-2207,-1042,-575,-322,59,125,-439
39988,940,0,2023-03-01T18:58:42.838079,2112384,890,894,-2207,-1042,-575,-322,59,125,-439
39989,941,0,2023-03-01T18:58:42.844436,2112390,892,891,-2210,-1036,-567,-317,59,125,-439
39990,942,0,2023-03-01T18:58:42.849812,2112395,892,891,-2210,-1036,-567,-317,59,125,-439
39991,943,0,2023-03-01T18:58:42.855597,2112401,892,891,-2210,-1036,-567,-317,59,125,-439
39992,944,0,2023-03-01T18:58:42.860619,2112406,895,894,-2214,-1030,-572,-316,59,125,-439
39993,945,0,2023-03-01T18:58:42.866365,2112411,895,894,-2214,-1030,-572,-316,59,125,-439
39994,946,0,2023-03-01T18:58:42.871583,2112416,895,894,-2214,-1030,-572,-316,59,125,-439
39995,947,0,2023-03-01T18:58:42.877645,2112422,895,894,-2214,-1030,-572,-316,59,125,-439
39996,948,0,2023-03-01T18:58:42.882627,2112428,893,891,-2209,-1027,-574,-319,59,125,-439
39997,949,0,2023-03-01T18:58:42.888217,2112434,893,891,-2209,-1027,-574,-319,59,125,-439
39998,950,0,2023-03-01T18:58:42.893248,2112439,893,891,-2209,-1027,-574,-319,59,125,-439
39999,951,0,2023-03-01T18:58:42.899025,2112444,890,895,-2205,-1030,-566,-321,59,125,-439
40000,952,0,2023-03-01T18:58:42.904884,2112450,890,895,-2205,-1030,-566,-321,59,125,-439
40001,953,0,2023-03-01T18:58:42.909713,2112455,890,895,-2205,-1030,-566,-321,59,125,-439
40002,954,0,2023-03-01T18:58:42.915886,2112461,890,895,-2205,-1030,-566,-321,59,125,-439
40003,955,0,2023-03-01T18:58:42.920760,2112466,892,892,-2207,-1036,-568,-316,68,120,-440
40004,956,0,2023-03-01T18:58:42.925979,2112472,892,892,-2207,-1036,-568,-316,68,120,-440
40005,957,0,2023-03-01T18:58:42.931022,2112476,892,892,-2207,-1036,-568,-316,68,120,-440
40006,958,0,2023-03-01T18:58:42.937049,2112482,892,892,-2207,-1036,-568,-316,68,120,-440
40007,959,0,2023-03-01T18:58:42.942166,2112487,892,891,-2198,-1038,-570,-320,68,120,-440
40008,960,0,2023-03-01T18:58:42.947912,2112493,892,891,-2198,-1038,-570,-320,68,120,-440
40009,961,0,2023-03-01T18:58:42.953076,2112498,892,891,-2198,-1038,-570,-320,68,120,-440
40010,962,0,2023-03-01T18:58:42.959647,2112504,888,891,-2209,-1038,-565,-322,68,120,-440
40011,963,0,2023-03-01T18:58:42.965163,2112510,888,891,-2209,-1038,-565,-322,68,120,-440
40012,964,0,2023-03-01T18:58:42.970533,2112516,888,891,-2209,-1038,-565,-322,68,120,-440
40013,965,0,2023-03-01T18:58:42.976836,2112522,888,891,-2209,-1038,-565,-322,68,120,-440
40014,966,0,2023-03-01T18:58:42.981596,2112527,894,894,-2208,-1045,-574,-319,68,120,-440
40015,967,0,2023-03-01T18:58:42.986872,2112532,894,894,-2208,-1045,-574,-319,68,120,-440
40016,968,0,2023-03-01T18:58:42.991717,2112537,894,894,-2208,-1045,-574,-319,68,120,-440
40017,969,0,2023-03-01T18:58:42.998115,2112543,894,894,-2208,-1045,-574,-319,68,120,-440
40018,970,0,2023-03-01T18:58:43.003138,2112548,893,893,-2205,-1036,-570,-323,68,120,-440
40019,971,0,2023-03-01T18:58:43.009441,2112555,893,893,-2205,-1036,-570,-323,68,120,-440
40020,972,0,2023-03-01T18:58:43.014474,2112560,893,893,-2205,-1036,-570,-323,68,120,-440
40021,973,0,2023-03-01T18:58:43.020182,2112565,893,893,-2209,-1039,-567,-318,68,120,-440
40022,974,0,2023-03-01T18:58:43.026149,2112572,893,893,-2209,-1039,-567,-318,68,120,-440
40023,975,0,2023-03-01T18:58:43.031369,2112576,893,893,-2209,-1039,-567,-318,68,120,-440
40024,976,0,2023-03-01T18:58:43.038463,2112583,893,893,-2209,-1039,-567,-318,68,120,-440
40025,977,0,2023-03-01T18:58:43.043225,2112588,892,895,-2211,-1040,-575,-320,66,122,-436
40026,978,0,2023-03-01T18:58:43.048935,2112594,892,895,-2211,-1040,-575,-320,66,122,-436
40027,979,0,2023-03-01T18:58:43.053806,2112599,892,895,-2211,-1040,-575,-320,66,122,-436
40028,980,0,2023-03-01T18:58:43.059478,2112605,891,894,-2200,-1038,-572,-325,66,122,-436
40029,981,0,2023-03-01T18:58:43.069555,2112615,891,894,-2200,-1038,-572,-325,66,122,-436
40030,982,0,2023-03-01T18:58:43.075032,2112620,891,894,-2200,-1038,-572,-325,66,122,-436
40031,983,0,2023-03-01T18:58:43.081330,2112626,894,893,-2208,-1030,-570,-321,66,122,-436
40032,984,0,2023-03-01T18:58:43.087407,2112632,894,893,-2208,-1030,-570,-321,66,122,-436
40033,985,0,2023-03-01T18:58:43.092529,2112637,894,893,-2208,-1030,-570,-321,66,122,-436
40034,986,0,2023-03-01T18:58:43.098190,2112644,894,893,-2208,-1030,-570,-321,66,122,-436
40035,987,0,2023-03-01T18:58:43.103621,2112649,892,892,-2201,-1036,-571,-319,66,122,-436
40036,988,0,2023-03-01T18:58:43.109421,2112654,892,892,-2201,-1036,-571,-319,66,122,-436
40037,989,0,2023-03-01T18:58:43.114584,2112659,892,892,-2201,-1036,-571,-319,66,122,-436
40038,990,0,2023-03-01T18:58:43.119468,2112664,891,892,-2207,-1041,-569,-315,66,122,-436
40039,991,0,2023-03-01T18:58:43.125886,2112671,891,892,-2207,-1041,-569,-315,66,122,-436
40040,992,0,2023-03-01T18:58:43.130844,2112676,891,892,-2207,-1041,-569,-315,66,122,-436
40041,993,0,2023-03-01T18:58:43.137335,2112681,891,892,-2207,-1041,-569,-315,66,122,-436
40042,994,0,2023-03-01T18:58:43.142335,2112688,891,893,-2207,-1040,-567,-319,66,122,-436
40043,995,0,2023-03-01T18:58:43.149079,2112694,891,893,-2207,-1040,-567,-319,66,122,-436
40044,996,0,2023-03-01T18:58:43.154370,2112699,891,893,-2207,-1040,-567,-319,66,122,-436
40045,997,0,2023-03-01T18:58:43.160181,2112705,891,893,-2208,-1048,-571,-321,66,122,-436
40046,998,0,2023-03-01T18:58:43.165671,2112711,891,893,-2208,-1048,-571,-321,66,122,-436
40047,999,0,2023-03-01T18:58:43.170705,2112715,891,893,-2208,-1048,-571,-321,66,122,-436
40048,1000,0,2023-03-01T18:58:43.176727,2112721,891,893,-2208,-1048,-571,-321,66,122,-436
40049,1001,0,2023-03-01T18:58:43.181700,2112728,889,892,-2202,-1039,-573,-321,66,124,-436
40050,1002,0,2023-03-01T18:58:43.187094,2112733,889,892,-2202,-1039,-573,-321,66,124,-436
40051,1003,0,2023-03-01T18:58:43.192030,2112737,889,892,-2202,-1039,-573,-321,66,124,-436
40052,1004,0,2023-03-01T18:58:43.198384,2112743,889,892,-2202,-1039,-573,-321,66,124,-436
40053,1005,0,2023-03-01T18:58:43.204549,2112749,895,893,-2209,-1043,-572,-318,66,124,-436
40054,1006,0,2023-03-01T18:58:43.210379,2112755,895,893,-2209,-1043,-572,-318,66,124,-436
40055,1007,0,2023-03-01T18:58:43.215793,2112761,895,893,-2209,-1043,-572,-318,66,124,-436
40056,1008,0,2023-03-01T18:58:43.220720,2112765,894,892,-2207,-1035,-575,-316,66,124,-436
40057,1009,0,2023-03-01T18:58:43.226503,2112772,894,892,-2207,-1035,-575,-316,66,124,-436
40058,1010,0,2023-03-01T18:58:43.231712,2112777,894,892,-2207,-1035,-575,-316,66,124,-436
40059,1011,0,2023-03-01T18:58:43.238176,2112783,894,892,-2207,-1035,-575,-316,66,124,-436
40060,1012,0,2023-03-01T18:58:43.243498,2112789,890,890,-2211,-1039,-561,-326,66,124,-436
40061,1013,0,2023-03-01T18:58:43.250098,2112795,890,890,-2211,-1039,-561,-326,66,124,-436
40062,1014,0,2023-03-01T18:58:43.255714,2112800,890,890,-2211,-1039,-561,-326,66,124,-436
40063,1015,0,2023-03-01T18:58:43.260967,2112805,888,891,-2209,-1039,-568,-322,66,124,-436
40064,1016,0,2023-03-01T18:58:43.267414,2112813,888,891,-2209,-1039,-568,-322,66,124,-436
40065,1017,0,2023-03-01T18:58:43.272436,2112818,888,891,-2209,-1039,-568,-322,66,124,-436
40066,1018,0,2023-03-01T18:58:43.278470,2112824,888,891,-2209,-1039,-568,-322,66,124,-436
40067,1019,0,2023-03-01T18:58:43.283393,2112829,893,893,-2212,-1035,-568,-325,66,124,-436
40068,1020,0,2023-03-01T18:58:43.289283,2112834,893,893,-2212,-1035,-568,-325,66,124,-436
40069,1021,0,2023-03-01T18:58:43.295142,2112840,893,893,-2212,-1035,-568,-325,66,124,-436
40070,1022,0,2023-03-01T18:58:43.300748,2112846,891,894,-2210,-1035,-570,-317,67,119,-433
40071,1023,0,2023-03-01T18:58:43.305793,2112851,891,894,-2210,-1035,-570,-317,67,119,-433
40072,1024,0,2023-03-01T18:58:43.310751,2112856,891,894,-2210,-1035,-570,-317,67,119,-433
40073,1025,0,2023-03-01T18:58:43.316963,2112862,891,894,-2210,-1035,-570,-317,67,119,-433
40074,1026,0,2023-03-01T18:58:43.322498,2112867,889,894,-2213,-1046,-571,-318,67,119,-433
40075,1027,0,2023-03-01T18:58:43.328422,2112874,889,894,-2213,-1046,-571,-318,67,119,-433
40076,1028,0,2023-03-01T18:58:43.333282,2112878,889,894,-2213,-1046,-571,-318,67,119,-433
40077,1029,0,2023-03-01T18:58:43.338781,2112884,889,894,-2213,-1046,-571,-318,67,119,-433
40078,1030,0,2023-03-01T18:58:43.343470,2112888,889,892,-2211,-1039,-568,-325,67,119,-433
40079,1031,0,2023-03-01T18:58:43.349645,2112894,889,892,-2211,-1039,-568,-325,67,119,-433
40080,1032,0,2023-03-01T18:58:43.354384,2112900,889,892,-2211,-1039,-568,-325,67,119,-433
40081,1033,0,2023-03-01T18:58:43.359963,2112906,892,895,-2207,-1036,-566,-327,67,119,-433
40082,1034,0,2023-03-01T18:58:43.365205,2112911,892,895,-2207,-1036,-566,-327,67,119,-433
40083,1035,0,2023-03-01T18:58:43.372715,2112917,892,895,-2207,-1036,-566,-327,67,119,-433
40084,1036,0,2023-03-01T18:58:43.379048,2112924,892,895,-2207,-1036,-566,-327,67,119,-433
40085,1037,0,2023-03-01T18:58:43.383669,2112929,889,892,-2203,-1042,-568,-325,67,119,-433
40086,1038,0,2023-03-01T18:58:43.389225,2112934,889,892,-2203,-1042,-568,-325,67,119,-433
40087,1039,0,2023-03-01T18:58:43.394077,2112940,889,892,-2203,-1042,-568,-325,67,119,-433
40088,1040,0,2023-03-01T18:58:43.399961,2112945,892,894,-2209,-1042,-572,-326,67,119,-433
40089,1041,0,2023-03-01T18:58:43.405774,2112951,892,894,-2209,-1042,-572,-326,67,119,-433
40090,1042,0,2023-03-01T18:58:43.410284,2112956,892,894,-2209,-1042,-572,-326,67,119,-433
40091,1043,0,2023-03-01T18:58:43.416064,2112961,892,894,-2209,-1042,-572,-326,67,119,-433
40092,1044,0,2023-03-01T18:58:43.420988,2112966,892,894,-2209,-1042,-572,-326,67,119,-433
40093,1045,0,2023-03-01T18:58:43.425879,2112971,892,894,-2209,-1042,-572,-326,67,119,-433
40094,1046,0,2023-03-01T18:58:43.431243,2112976,892,894,-2209,-1042,-572,-326,67,119,-433
40095,1047,0,2023-03-01T18:58:43.437503,2112983,892,894,-2209,-1042,-572,-326,67,119,-433
40096,1048,0,2023-03-01T18:58:43.443622,2112989,889,893,-2205,-1038,-570,-325,67,125,-435
40097,1049,0,2023-03-01T18:58:43.449537,2112995,889,893,-2205,-1038,-570,-325,67,125,-435
40098,1050,0,2023-03-01T18:58:43.455130,2113000,889,893,-2205,-1038,-570,-325,67,125,-435
40099,1051,0,2023-03-01T18:58:43.461110,2113006,890,896,-2206,-1036,-575,-329,67,125,-435
40100,1052,0,2023-03-01T18:58:43.466980,2113012,890,896,-2206,-1036,-575,-329,67,125,-435
40101,1053,0,2023-03-01T18:58:43.471710,2113017,890,896,-2206,-1036,-575,-329,67,125,-435
40102,1054,0,2023-03-01T18:58:43.477559,2113022,890,896,-2206,-1036,-575,-329,67,125,-435
40103,1055,0,2023-03-01T18:58:43.483012,2113028,892,889,-2207,-1032,-573,-325,67,125,-435
40104,1056,0,2023-03-01T18:58:43.488800,2113034,892,889,-2207,-1032,-573,-325,67,125,-435
40105,1057,0,2023-03-01T18:58:43.493753,2113039,892,889,-2207,-1032,-573,-325,67,125,-435
40106,1058,0,2023-03-01T18:58:43.499789,2113045,890,891,-2211,-1028,-569,-327,67,125,-435
40107,1059,0,2023-03-01T18:58:43.505636,2113050,890,891,-2211,-1028,-569,-327,67,125,-435
40108,1060,0,2023-03-01T18:58:43.510545,2113055,890,891,-2211,-1028,-569,-327,67,125,-435
40109,1061,0,2023-03-01T18:58:43.516732,2113062,890,891,-2211,-1028,-569,-327,67,125,-435
40110,1062,0,2023-03-01T18:58:43.522000,2113068,893,890,-2205,-1032,-573,-325,67,125,-435
40111,1063,0,2023-03-01T18:58:43.527451,2113073,893,890,-2205,-1032,-573,-325,67,125,-435
40112,1064,0,2023-03-01T18:58:43.532221,2113078,893,890,-2205,-1032,-573,-325,67,125,-435
40113,1065,0,2023-03-01T18:58:43.539477,2113083,893,890,-2205,-1032,-573,-325,67,125,-435
40114,1066,0,2023-03-01T18:58:43.544481,2113090,892,893,-2207,-1043,-573,-319,67,125,-435
40115,1067,0,2023-03-01T18:58:43.550271,2113095,892,893,-2207,-1043,-573,-319,67,125,-435
40116,1068,0,2023-03-01T18:58:43.556109,2113101,892,893,-2207,-1043,-573,-319,67,125,-435
40117,1069,0,2023-03-01T18:58:43.561332,2113106,891,893,-2202,-1044,-573,-319,65,129,-429
40118,1070,0,2023-03-01T18:58:43.567154,2113112,891,893,-2202,-1044,-573,-319,65,129,-429
40119,1071,0,2023-03-01T18:58:43.572303,2113118,891,893,-2202,-1044,-573,-319,65,129,-429
40120,1072,0,2023-03-01T18:58:43.577748,2113123,891,893,-2202,-1044,-573,-319,65,129,-429
40121,1073,0,2023-03-01T18:58:43.583116,2113128,893,894,-2203,-1032,-573,-321,65,129,-429
40122,1074,0,2023-03-01T18:58:43.589937,2113134,893,894,-2203,-1032,-573,-321,65,129,-429
40123,1075,0,2023-03-01T18:58:43.595355,2113140,893,894,-2203,-1032,-573,-321,65,129,-429
40124,1076,0,2023-03-01T18:58:43.601888,2113147,894,891,-2206,-1034,-573,-324,65,129,-429
40125,1077,0,2023-03-01T18:58:43.607609,2113153,894,891,-2206,-1034,-573,-324,65,129,-429
40126,1078,0,2023-03-01T18:58:43.612409,2113158,894,891,-2206,-1034,-573,-324,65,129,-429
40127,1079,0,2023-03-01T18:58:43.617773,2113163,894,891,-2206,-1034,-573,-324,65,129,-429
40128,1080,0,2023-03-01T18:58:43.622444,2113168,890,894,-2204,-1035,-568,-323,65,129,-429
40129,1081,0,2023-03-01T18:58:43.628722,2113173,890,894,-2204,-1035,-568,-323,65,129,-429
40130,1082,0,2023-03-01T18:58:43.633717,2113179,890,894,-2204,-1035,-568,-323,65,129,-429
40131,1083,0,2023-03-01T18:58:43.640359,2113185,890,895,-2207,-1034,-569,-329,65,129,-429
40132,1084,0,2023-03-01T18:58:43.645943,2113190,890,895,-2207,-1034,-569,-329,65,129,-429
40133,1085,0,2023-03-01T18:58:43.650964,2113197,890,895,-2207,-1034,-569,-329,65,129,-429
40134,1086,0,2023-03-01T18:58:43.657832,2113203,890,895,-2207,-1034,-569,-329,65,129,-429
40135,1087,0,2023-03-01T18:58:43.662909,2113208,888,893,-2210,-1035,-568,-326,65,129,-429
40136,1088,0,2023-03-01T18:58:43.668742,2113214,888,893,-2210,-1035,-568,-326,65,129,-429
40137,1089,0,2023-03-01T18:58:43.673561,2113219,888,893,-2210,-1035,-568,-326,65,129,-429
40138,1090,0,2023-03-01T18:58:43.679642,2113224,888,893,-2210,-1035,-568,-326,65,129,-429
40139,1091,0,2023-03-01T18:58:43.684685,2113230,888,895,-2213,-1042,-577,-322,65,129,-429
40140,1092,0,2023-03-01T18:58:43.690366,2113235,888,895,-2213,-1042,-577,-322,65,129,-429
40141,1093,0,2023-03-01T18:58:43.696568,2113242,888,895,-2213,-1042,-577,-322,65,129,-429
40142,1094,0,2023-03-01T18:58:43.701828,2113247,888,895,-2213,-1042,-577,-322,64,128,-432
40143,1095,0,2023-03-01T18:58:43.706673,2113252,888,895,-2213,-1042,-577,-322,64,128,-432
40144,1096,0,2023-03-01T18:58:43.711733,2113257,888,895,-2213,-1042,-577,-322,64,128,-432
40145,1097,0,2023-03-01T18:58:43.718390,2113263,888,895,-2213,-1042,-577,-322,64,128,-432
40146,1098,0,2023-03-01T18:58:43.723259,2113268,892,893,-2205,-1034,-568,-327,64,128,-432
40147,1099,0,2023-03-01T18:58:43.728632,2113273,892,893,-2205,-1034,-568,-327,64,128,-432
40148,1100,0,2023-03-01T18:58:43.733479,2113278,892,893,-2205,-1034,-568,-327,64,128,-432
40149,1101,0,2023-03-01T18:58:43.740045,2113285,892,893,-2205,-1034,-568,-327,64,128,-432
40150,1102,0,2023-03-01T18:58:43.745427,2113291,892,892,-2211,-1043,-570,-325,64,128,-432
40151,1103,0,2023-03-01T18:58:43.750993,2113296,892,892,-2211,-1043,-570,-325,64,128,-432
40152,1104,0,2023-03-01T18:58:43.756436,2113301,892,892,-2211,-1043,-570,-325,64,128,-432
40153,1105,0,2023-03-01T18:58:43.761983,2113307,892,893,-2209,-1045,-576,-322,64,128,-432
40154,1106,0,2023-03-01T18:58:43.767858,2113313,892,893,-2209,-1045,-576,-322,64,128,-432
40155,1107,0,2023-03-01T18:58:43.773769,2113318,892,893,-2209,-1045,-576,-322,64,128,-432
40156,1108,0,2023-03-01T18:58:43.779740,2113325,891,889,-2204,-1038,-571,-323,64,128,-432
40157,1109,0,2023-03-01T18:58:43.785296,2113331,891,889,-2204,-1038,-571,-323,64,128,-432
40158,1110,0,2023-03-01T18:58:43.790108,2113336,891,889,-2204,-1038,-571,-323,64,128,-432
40159,1111,0,2023-03-01T18:58:43.796856,2113342,891,889,-2204,-1038,-571,-323,64,128,-432
40160,1112,0,2023-03-01T18:58:43.801697,2113347,891,893,-2206,-1040,-572,-323,64,128,-432
40161,1113,0,2023-03-01T18:58:43.808922,2113354,891,893,-2206,-1040,-572,-323,64,128,-432
40162,1114,0,2023-03-01T18:58:43.813871,2113359,891,893,-2206,-1040,-572,-323,64,128,-432
40163,1115,0,2023-03-01T18:58:43.820575,2113366,891,893,-2204,-1042,-570,-327,69,125,-433
40164,1116,0,2023-03-01T18:58:43.826893,2113372,891,893,-2204,-1042,-570,-327,69,125,-433
40165,1117,0,2023-03-01T18:58:43.831495,2113377,891,893,-2204,-1042,-570,-327,69,125,-433
40166,1118,0,2023-03-01T18:58:43.837039,2113383,891,893,-2204,-1042,-570,-327,69,125,-433
40167,1119,0,2023-03-01T18:58:43.842097,2113387,891,891,-2202,-1039,-569,-323,69,125,-433
40168,1120,0,2023-03-01T18:58:43.847189,2113392,891,891,-2202,-1039,-569,-323,69,125,-433
40169,1121,0,2023-03-01T18:58:43.852038,2113397,891,891,-2202,-1039,-569,-323,69,125,-433
40170,1122,0,2023-03-01T18:58:43.857648,2113402,891,891,-2202,-1039,-569,-323,69,125,-433
40171,1123,0,2023-03-01T18:58:43.862545,2113409,892,891,-2207,-1035,-567,-323,69,125,-433
40172,1124,0,2023-03-01T18:58:43.867929,2113414,892,891,-2207,-1035,-567,-323,69,125,-433
40173,1125,0,2023-03-01T18:58:43.872939,2113418,892,891,-2207,-1035,-567,-323,69,125,-433
40174,1126,0,2023-03-01T18:58:43.879882,2113425,892,891,-2207,-1035,-567,-323,69,125,-433
40175,1127,0,2023-03-01T18:58:43.884694,2113430,892,891,-2209,-1024,-572,-323,69,125,-433
40176,1128,0,2023-03-01T18:58:43.890001,2113435,892,891,-2209,-1024,-572,-323,69,125,-433
40177,1129,0,2023-03-01T18:58:43.896074,2113441,892,891,-2209,-1024,-572,-323,69,125,-433
40178,1130,0,2023-03-01T18:58:43.901273,2113446,888,893,-2209,-1032,-574,-317,69,125,-433
40179,1131,0,2023-03-01T18:58:43.907096,2113453,888,893,-2209,-1032,-574,-317,69,125,-433
40180,1132,0,2023-03-01T18:58:43.912932,2113458,888,893,-2209,-1032,-574,-317,69,125,-433
40181,1133,0,2023-03-01T18:58:43.918787,2113464,888,893,-2209,-1032,-574,-317,69,125,-433
40182,1134,0,2023-03-01T18:58:43.923748,2113469,890,894,-2209,-1034,-575,-320,69,125,-433
40183,1135,0,2023-03-01T18:58:43.930001,2113474,890,894,-2209,-1034,-575,-320,69,125,-433
40184,1136,0,2023-03-01T18:58:43.935385,2113480,890,894,-2209,-1034,-575,-320,69,125,-433
40185,1137,0,2023-03-01T18:58:43.940989,2113486,891,892,-2210,-1030,-567,-317,67,117,-443
40186,1138,0,2023-03-01T18:58:43.946266,2113491,891,892,-2210,-1030,-567,-317,67,117,-443
40187,1139,0,2023-03-01T18:58:43.951236,2113497,891,892,-2210,-1030,-567,-317,67,117,-443
40188,1140,0,2023-03-01T18:58:43.956714,2113502,891,892,-2210,-1030,-567,-317,67,117,-443
40189,1141,0,2023-03-01T18:58:43.961706,2113507,890,892,-2205,-1033,-569,-322,67,117,-443
40190,1142,0,2023-03-01T18:58:43.967277,2113513,890,892,-2205,-1033,-569,-322,67,117,-443
40191,1143,0,2023-03-01T18:58:43.971978,2113517,890,892,-2205,-1033,-569,-322,67,117,-443
40192,1144,0,2023-03-01T18:58:43.977612,2113523,890,892,-2205,-1033,-569,-322,67,117,-443
40193,1145,0,2023-03-01T18:58:43.982227,2113527,891,891,-2207,-1032,-577,-319,67,117,-443
40194,1146,0,2023-03-01T18:58:43.987805,2113533,891,891,-2207,-1032,-577,-319,67,117,-443
40195,1147,0,2023-03-01T18:58:43.993090,2113539,891,891,-2207,-1032,-577,-319,67,117,-443
40196,1148,0,2023-03-01T18:58:43.999172,2113545,891,891,-2207,-1032,-577,-319,67,117,-443
40197,1149,0,2023-03-01T18:58:44.003839,2113549,893,892,-2211,-1043,-571,-324,67,117,-443
40198,1150,0,2023-03-01T18:58:44.009510,2113555,893,892,-2211,-1043,-571,-324,67,117,-443
40199,1151,0,2023-03-01T18:58:44.014698,2113560,893,892,-2211,-1043,-571,-324,67,117,-443
40200,1152,0,2023-03-01T18:58:44.021798,2113566,891,893,-2206,-1045,-570,-326,67,117,-443
40201,1153,0,2023-03-01T18:58:44.028680,2113574,891,893,-2206,-1045,-570,-326,67,117,-443
40202,1154,0,2023-03-01T18:58:44.033774,2113580,891,893,-2206,-1045,-570,-326,67,117,-443
40203,1155,0,2023-03-01T18:58:44.039884,2113586,891,893,-2206,-1045,-570,-326,67,117,-443
40204,1156,0,2023-03-01T18:58:44.044751,2113590,888,890,-2206,-1033,-566,-331,67,117,-443
40205,1157,0,2023-03-01T18:58:44.050681,2113596,888,890,-2206,-1033,-566,-331,67,117,-443
40206,1158,0,2023-03-01T18:58:44.056605,2113602,888,890,-2206,-1033,-566,-331,67,117,-443
40207,1159,0,2023-03-01T18:58:44.061211,2113606,889,893,-2208,-1037,-575,-319,67,117,-443
40208,1160,0,2023-03-01T18:58:44.066468,2113612,889,893,-2208,-1037,-575,-319,67,117,-443
40209,1161,0,2023-03-01T18:58:44.071566,2113616,889,893,-2208,-1037,-575,-319,67,117,-443
40210,1162,0,2023-03-01T18:58:44.077696,2113624,889,893,-2208,-1037,-575,-319,67,117,-443
40211,1163,0,2023-03-01T18:58:44.082681,2113628,891,894,-2205,-1035,-571,-318,79,119,-433
40212,1164,0,2023-03-01T18:58:44.088112,2113634,891,894,-2205,-1035,-571,-318,79,119,-433
40213,1165,0,2023-03-01T18:58:44.093038,2113638,891,894,-2205,-1035,-571,-318,79,119,-433
40214,1166,0,2023-03-01T18:58:44.099746,2113644,891,894,-2205,-1035,-571,-318,79,119,-433
40215,1167,0,2023-03-01T18:58:44.105023,2113650,888,895,-2205,-1042,-572,-318,79,119,-433
40216,1168,0,2023-03-01T18:58:44.110981,2113656,888,895,-2205,-1042,-572,-318,79,119,-433
40217,1169,0,2023-03-01T18:58:44.116913,2113662,888,895,-2205,-1042,-572,-318,79,119,-433
40218,1170,0,2023-03-01T18:58:44.121926,2113667,892,893,-2208,-1027,-571,-323,79,119,-433
40219,1171,0,2023-03-01T18:58:44.127945,2113673,892,893,-2208,-1027,-571,-323,79,119,-433
40220,1172,0,2023-03-01T18:58:44.133004,2113678,892,893,-2208,-1027,-571,-323,79,119,-433
40221,1173,0,2023-03-01T18:58:44.141041,2113686,891,892,-2207,-1040,-578,-330,79,119,-433
40222,1174,0,2023-03-01T18:58:44.146590,2113691,891,892,-2207,-1040,-578,-330,79,119,-433
40223,1175,0,2023-03-01T18:58:44.151583,2113697,891,892,-2207,-1040,-578,-330,79,119,-433
40224,1176,0,2023-03-01T18:58:44.158270,2113703,891,892,-2207,-1040,-578,-330,79,119,-433
40225,1177,0,2023-03-01T18:58:44.163265,2113709,893,894,-2208,-1038,-576,-333,79,119,-433
40226,1178,0,2023-03-01T18:58:44.169219,2113715,893,894,-2208,-1038,-576,-333,79,119,-433
40227,1179,0,2023-03-01T18:58:44.174107,2113720,893,894,-2208,-1038,-576,-333,79,119,-433
40228,1180,0,2023-03-01T18:58:44.181538,2113726,891,892,-2209,-1027,-573,-319,79,119,-433
40229,1181,0,2023-03-01T18:58:44.187411,2113732,891,892,-2209,-1027,-573,-319,79,119,-433
40230,1182,0,2023-03-01T18:58:44.192923,2113737,891,892,-2209,-1027,-573,-319,79,119,-433
40231,1183,0,2023-03-01T18:58:44.199722,2113745,891,892,-2209,-1027,-573,-319,79,119,-433
40232,1184,0,2023-03-01T18:58:44.204597,2113751,889,891,-2202,-1026,-563,-324,62,124,-436
40233,1185,0,2023-03-01T18:58:44.210066,2113756,889,891,-2202,-1026,-563,-324,62,124,-436
40234,1186,0,2023-03-01T18:58:44.215407,2113761,889,891,-2202,-1026,-563,-324,62,124,-436
40235,1187,0,2023-03-01T18:58:44.220745,2113766,889,891,-2202,-1026,-563,-324,62,124,-436
40236,1188,0,2023-03-01T18:58:44.226705,2113772,889,891,-2202,-1026,-563,-324,62,124,-436
40237,1189,0,2023-03-01T18:58:44.231660,2113777,889,891,-2202,-1026,-563,-324,62,124,-436
40238,1190,0,2023-03-01T18:58:44.238963,2113783,889,891,-2202,-1026,-563,-324,62,124,-436
40239,1191,0,2023-03-01T18:58:44.246120,2113790,890,891,-2205,-1050,-581,-325,62,124,-436
40240,1192,0,2023-03-01T18:58:44.253083,2113798,890,891,-2205,-1050,-581,-325,62,124,-436
40241,1193,0,2023-03-01T18:58:44.260033,2113805,890,891,-2205,-1050,-581,-325,62,124,-436
40242,1194,0,2023-03-01T18:58:44.265314,2113810,894,889,-2208,-1038,-576,-327,62,124,-436
40243,1195,0,2023-03-01T18:58:44.270942,2113816,894,889,-2208,-1038,-576,-327,62,124,-436
40244,1196,0,2023-03-01T18:58:44.277064,2113822,894,889,-2208,-1038,-576,-327,62,124,-436
40245,1197,0,2023-03-01T18:58:44.282320,2113827,891,889,-2207,-1036,-573,-322,62,124,-436
40246,1198,0,2023-03-01T18:58:44.288443,2113833,891,889,-2207,-1036,-573,-322,62,124,-436
40247,1199,0,2023-03-01T18:58:44.293467,2113839,891,889,-2207,-1036,-573,-322,62,124,-436
40248,1200,0,2023-03-01T18:58:44.299244,2113845,891,889,-2207,-1036,-573,-322,62,124,-436
40249,1201,0,2023-03-01T18:58:44.304615,2113850,895,892,-2208,-1039,-572,-319,62,124,-436
40250,1202,0,2023-03-01T18:58:44.310878,2113856,895,892,-2208,-1039,-572,-319,62,124,-436
40251,1203,0,2023-03-01T18:58:44.317084,2113862,895,892,-2208,-1039,-572,-319,62,124,-436
40252,1204,0,2023-03-01T18:58:44.322853,2113868,891,888,-2205,-1036,-574,-321,62,124,-436
40253,1205,0,2023-03-01T18:58:44.328418,2113873,891,888,-2205,-1036,-574,-321,62,124,-436
40254,1206,0,2023-03-01T18:58:44.333222,2113879,891,888,-2205,-1036,-574,-321,62,124,-436
40255,1207,0,2023-03-01T18:58:44.338931,2113884,891,888,-2205,-1036,-574,-321,62,124,-436
40256,1208,0,2023-03-01T18:58:44.344243,2113890,890,893,-2205,-1033,-573,-317,65,127,-435
40257,1209,0,2023-03-01T18:58:44.350251,2113895,890,893,-2205,-1033,-573,-317,65,127,-435
40258,1210,0,2023-03-01T18:58:44.356093,2113901,890,893,-2205,-1033,-573,-317,65,127,-435
40259,1211,0,2023-03-01T18:58:44.362047,2113907,888,893,-2209,-1039,-578,-317,65,127,-435
40260,1212,0,2023-03-01T18:58:44.367391,2113912,888,893,-2209,-1039,-578,-317,65,127,-435
40261,1213,0,2023-03-01T18:58:44.372173,2113917,888,893,-2209,-1039,-578,-317,65,127,-435
40262,1214,0,2023-03-01T18:58:44.377782,2113923,888,893,-2209,-1039,-578,-317,65,127,-435
40263,1215,0,2023-03-01T18:58:44.382772,2113928,893,889,-2203,-1035,-573,-321,65,127,-435
40264,1216,0,2023-03-01T18:58:44.388527,2113934,893,889,-2203,-1035,-573,-321,65,127,-435
40265,1217,0,2023-03-01T18:58:44.393116,2113939,893,889,-2203,-1035,-573,-321,65,127,-435
40266,1218,0,2023-03-01T18:58:44.399094,2113944,893,889,-2203,-1035,-573,-321,65,127,-435
40267,1219,0,2023-03-01T18:58:44.404046,2113949,894,891,-2207,-1038,-567,-321,65,127,-435
40268,1220,0,2023-03-01T18:58:44.409484,2113954,894,891,-2207,-1038,-567,-321,65,127,-435
40269,1221,0,2023-03-01T18:58:44.414552,2113959,894,891,-2207,-1038,-567,-321,65,127,-435
40270,1222,0,2023-03-01T18:58:44.421270,2113967,891,892,-2208,-1040,-564,-316,65,127,-435
40271,1223,0,2023-03-01T18:58:44.426766,2113972,891,892,-2208,-1040,-564,-316,65,127,-435
40272,1224,0,2023-03-01T18:58:44.431836,2113977,891,892,-2208,-1040,-564,-316,65,127,-435
40273,1225,0,2023-03-01T18:58:44.437993,2113983,891,892,-2208,-1040,-564,-316,65,127,-435
40274,1226,0,2023-03-01T18:58:44.443980,2113988,889,892,-2205,-1040,-568,-314,65,127,-435
40275,1227,0,2023-03-01T18:58:44.449638,2113995,889,892,-2205,-1040,-568,-314,65,127,-435
40276,1228,0,2023-03-01T18:58:44.454913,2113999,889,892,-2205,-1040,-568,-314,65,127,-435
40277,1229,0,2023-03-01T18:58:44.460813,2114006,889,892,-2205,-1040,-568,-314,65,127,-435
40278,1230,0,2023-03-01T18:58:44.466163,2114012,892,895,-2202,-1036,-580,-320,74,126,-440
40279,1231,0,2023-03-01T18:58:44.472288,2114017,892,895,-2202,-1036,-580,-320,74,126,-440
40280,1232,0,2023-03-01T18:58:44.478504,2114024,892,895,-2202,-1036,-580,-320,74,126,-440
40281,1233,0,2023-03-01T18:58:44.483301,2114029,889,891,-2205,-1046,-573,-331,74,126,-440
40282,1234,0,2023-03-01T18:58:44.489160,2114034,889,891,-2205,-1046,-573,-331,74,126,-440
40283,1235,0,2023-03-01T18:58:44.494420,2114039,889,891,-2205,-1046,-573,-331,74,126,-440
40284,1236,0,2023-03-01T18:58:44.500556,2114046,889,891,-2205,-1046,-573,-331,74,126,-440
40285,1237,0,2023-03-01T18:58:44.505443,2114051,889,891,-2205,-1046,-573,-331,74,126,-440
40286,1238,0,2023-03-01T18:58:44.510514,2114056,889,891,-2205,-1046,-573,-331,74,126,-440
40287,1239,0,2023-03-01T18:58:44.516446,2114062,889,891,-2205,-1046,-573,-331,74,126,-440
40288,1240,0,2023-03-01T18:58:44.521570,2114067,890,894,-2207,-1036,-573,-318,74,126,-440
40289,1241,0,2023-03-01T18:58:44.527042,2114073,890,894,-2207,-1036,-573,-318,74,126,-440
40290,1242,0,2023-03-01T18:58:44.532190,2114077,890,894,-2207,-1036,-573,-318,74,126,-440
40291,1243,0,2023-03-01T18:58:44.538282,2114083,890,894,-2207,-1036,-573,-318,74,126,-440
40292,1244,0,2023-03-01T18:58:44.543437,2114088,889,891,-2206,-1043,-573,-322,74,126,-440
40293,1245,0,2023-03-01T18:58:44.549465,2114095,889,891,-2206,-1043,-573,-322,74,126,-440
40294,1246,0,2023-03-01T18:58:44.554608,2114100,889,891,-2206,-1043,-573,-322,74,126,-440
40295,1247,0,2023-03-01T18:58:44.560533,2114106,889,891,-2206,-1043,-573,-322,74,126,-440
40296,1248,0,2023-03-01T18:58:44.566016,2114111,890,894,-2210,-1046,-579,-327,74,126,-440
40297,1249,0,2023-03-01T18:58:44.572061,2114117,890,894,-2210,-1046,-579,-327,74,126,-440
40298,1250,0,2023-03-01T18:58:44.578660,2114123,890,894,-2210,-1046,-579,-327,74,126,-440
40299,1251,0,2023-03-01T18:58:44.583269,2114128,891,891,-2208,-1040,-573,-323,74,126,-440
40300,1252,0,2023-03-01T18:58:44.587725,2114134,891,891,-2208,-1040,-573,-323,74,126,-440
40301,1253,0,2023-03-01T18:58:44.592722,2114138,891,891,-2208,-1040,-573,-323,74,126,-440
40302,1254,0,2023-03-01T18:58:44.598520,2114144,891,891,-2208,-1040,-573,-323,74,126,-440
40303,1255,0,2023-03-01T18:58:44.603376,2114149,891,891,-2205,-1043,-570,-321,70,120,-434
40304,1256,0,2023-03-01T18:58:44.610379,2114155,891,891,-2205,-1043,-570,-321,70,120,-434
40305,1257,0,2023-03-01T18:58:44.616161,2114161,891,891,-2205,-1043,-570,-321,70,120,-434
40306,1258,0,2023-03-01T18:58:44.623162,2114168,892,896,-2205,-1038,-575,-321,70,120,-434
40307,1259,0,2023-03-01T18:58:44.628814,2114173,892,896,-2205,-1038,-575,-321,70,120,-434
40308,1260,0,2023-03-01T18:58:44.634183,2114179,892,896,-2205,-1038,-575,-321,70,120,-434
40309,1261,0,2023-03-01T18:58:44.640164,2114185,892,896,-2205,-1038,-575,-321,70,120,-434
40310,1262,0,2023-03-01T18:58:44.645201,2114191,891,894,-2203,-1037,-571,-322,70,120,-434
40311,1263,0,2023-03-01T18:58:44.651166,2114196,891,894,-2203,-1037,-571,-322,70,120,-434
40312,1264,0,2023-03-01T18:58:44.657888,2114203,891,894,-2203,-1037,-571,-322,70,120,-434
40313,1265,0,2023-03-01T18:58:44.663236,2114208,889,892,-2211,-1037,-575,-325,70,120,-434
40314,1266,0,2023-03-01T18:58:44.669227,2114214,889,892,-2211,-1037,-575,-325,70,120,-434
40315,1267,0,2023-03-01T18:58:44.674292,2114220,889,892,-2211,-1037,-575,-325,70,120,-434
40316,1268,0,2023-03-01T18:58:44.680480,2114226,889,892,-2211,-1037,-575,-325,70,120,-434
40317,1269,0,2023-03-01T18:58:44.685446,2114231,891,894,-2208,-1039,-572,-322,70,120,-434
40318,1270,0,2023-03-01T18:58:44.690963,2114236,891,894,-2208,-1039,-572,-322,70,120,-434
40319,1271,0,2023-03-01T18:58:44.696851,2114242,891,894,-2208,-1039,-572,-322,70,120,-434
40320,1272,0,2023-03-01T18:58:44.701780,2114247,893,892,-2204,-1048,-575,-325,70,120,-434
40321,1273,0,2023-03-01T18:58:44.708112,2114253,893,892,-2204,-1048,-575,-325,70,120,-434
40322,1274,0,2023-03-01T18:58:44.713541,2114258,893,892,-2204,-1048,-575,-325,70,120,-434
40323,1275,0,2023-03-01T18:58:44.720536,2114266,893,892,-2204,-1048,-575,-325,70,120,-434
40324,1276,0,2023-03-01T18:58:44.725613,2114271,892,892,-2204,-1037,-569,-323,72,118,-432
40325,1277,0,2023-03-01T18:58:44.731435,2114277,892,892,-2204,-1037,-569,-323,72,118,-432
40326,1278,0,2023-03-01T18:58:44.737826,2114283,892,892,-2204,-1037,-569,-323,72,118,-432
40327,1279,0,2023-03-01T18:58:44.742866,2114288,889,894,-2203,-1037,-568,-322,72,118,-432
40328,1280,0,2023-03-01T18:58:44.748560,2114294,889,894,-2203,-1037,-568,-322,72,118,-432
40329,1281,0,2023-03-01T18:58:44.753507,2114299,889,894,-2203,-1037,-568,-322,72,118,-432
40330,1282,0,2023-03-01T18:58:44.759320,2114305,889,894,-2203,-1037,-568,-322,72,118,-432
40331,1283,0,2023-03-01T18:58:44.764101,2114310,892,895,-2203,-1039,-570,-321,72,118,-432
40332,1284,0,2023-03-01T18:58:44.770262,2114315,892,895,-2203,-1039,-570,-321,72,118,-432
40333,1285,0,2023-03-01T18:58:44.775504,2114321,892,895,-2203,-1039,-570,-321,72,118,-432
40334,1286,0,2023-03-01T18:58:44.781558,2114327,894,895,-2212,-1043,-570,-322,72,118,-432
40335,1287,0,2023-03-01T18:58:44.787261,2114332,894,895,-2212,-1043,-570,-322,72,118,-432
40336,1288,0,2023-03-01T18:58:44.792480,2114337,894,895,-2212,-1043,-570,-322,72,118,-432
40337,1289,0,2023-03-01T18:58:44.799622,2114344,894,895,-2212,-1043,-570,-322,72,118,-432
40338,1290,0,2023-03-01T18:58:44.804652,2114350,893,896,-2209,-1047,-576,-325,72,118,-432
40339,1291,0,2023-03-01T18:58:44.810277,2114356,893,896,-2209,-1047,-576,-325,72,118,-432
40340,1292,0,2023-03-01T18:58:44.815901,2114361,893,896,-2209,-1047,-576,-325,72,118,-432
40341,1293,0,2023-03-01T18:58:44.820777,2114366,893,896,-2209,-1047,-576,-325,72,118,-432
40342,1294,0,2023-03-01T18:58:44.826191,2114371,890,892,-2217,-1044,-575,-319,72,118,-432
40343,1295,0,2023-03-01T18:58:44.832249,2114377,890,892,-2217,-1044,-575,-319,72,118,-432
40344,1296,0,2023-03-01T18:58:44.838167,2114383,890,892,-2217,-1044,-575,-319,72,118,-432
40345,1297,0,2023-03-01T18:58:44.843127,2114388,892,895,-2208,-1045,-571,-324,75,115,-429
40346,1298,0,2023-03-01T18:58:44.848521,2114394,892,895,-2208,-1045,-571,-324,75,115,-429
40347,1299,0,2023-03-01T18:58:44.853748,2114399,892,895,-2208,-1045,-571,-324,75,115,-429
40348,1300,0,2023-03-01T18:58:44.859860,2114405,892,895,-2208,-1045,-571,-324,75,115,-429
40349,1301,0,2023-03-01T18:58:44.864742,2114410,890,892,-2204,-1036,-566,-326,75,115,-429
40350,1302,0,2023-03-01T18:58:44.870224,2114415,890,892,-2204,-1036,-566,-326,75,115,-429
40351,1303,0,2023-03-01T18:58:44.875545,2114421,890,892,-2204,-1036,-566,-326,75,115,-429
40352,1304,0,2023-03-01T18:58:44.880997,2114426,890,892,-2204,-1036,-566,-326,75,115,-429
40353,1305,0,2023-03-01T18:58:44.886086,2114432,889,897,-2201,-1039,-570,-321,75,115,-429
40354,1306,0,2023-03-01T18:58:44.891674,2114437,889,897,-2201,-1039,-570,-321,75,115,-429
40355,1307,0,2023-03-01T18:58:44.897393,2114443,889,897,-2201,-1039,-570,-321,75,115,-429
40356,1308,0,2023-03-01T18:58:44.902615,2114448,891,893,-2208,-1032,-577,-323,75,115,-429
40357,1309,0,2023-03-01T18:58:44.909237,2114454,891,893,-2208,-1032,-577,-323,75,115,-429
40358,1310,0,2023-03-01T18:58:44.914619,2114459,891,893,-2208,-1032,-577,-323,75,115,-429
40359,1311,0,2023-03-01T18:58:44.920232,2114465,891,893,-2208,-1032,-577,-323,75,115,-429
40360,1312,0,2023-03-01T18:58:44.925061,2114470,891,896,-2208,-1033,-581,-314,75,115,-429
40361,1313,0,2023-03-01T18:58:44.931219,2114476,891,896,-2208,-1033,-581,-314,75,115,-429
40362,1314,0,2023-03-01T18:58:44.936664,2114482,891,896,-2208,-1033,-581,-314,75,115,-429
40363,1315,0,2023-03-01T18:58:44.942727,2114488,892,893,-2209,-1038,-574,-319,75,115,-429
40364,1316,0,2023-03-01T18:58:44.948152,2114494,892,893,-2209,-1038,-574,-319,75,115,-429
40365,1317,0,2023-03-01T18:58:44.953011,2114499,892,893,-2209,-1038,-574,-319,75,115,-429
40366,1318,0,2023-03-01T18:58:44.958692,2114504,892,893,-2209,-1038,-574,-319,75,115,-429
40367,1319,0,2023-03-01T18:58:44.963604,2114509,887,893,-2207,-1038,-573,-322,75,115,-429
40368,1320,0,2023-03-01T18:58:44.969019,2114514,887,893,-2207,-1038,-573,-322,75,115,-429
40369,1321,0,2023-03-01T18:58:44.974683,2114520,887,893,-2207,-1038,-573,-322,75,115,-429
40370,1322,0,2023-03-01T18:58:44.981506,2114527,889,889,-2204,-1033,-566,-321,72,115,-429
40371,1323,0,2023-03-01T18:58:44.987068,2114532,889,889,-2204,-1033,-566,-321,72,118,-436
40372,1324,0,2023-03-01T18:58:44.992160,2114537,889,889,-2204,-1033,-566,-321,72,118,-436
40373,1325,0,2023-03-01T18:58:44.998464,2114543,889,889,-2204,-1033,-566,-321,72,118,-436
40374,1326,0,2023-03-01T18:58:45.003219,2114548,889,893,-2208,-1034,-569,-314,72,118,-436
40375,1327,0,2023-03-01T18:58:45.008897,2114553,889,893,-2208,-1034,-569,-314,72,118,-436
40376,1328,0,2023-03-01T18:58:45.014152,2114560,889,893,-2208,-1034,-569,-314,72,118,-436
40377,1329,0,2023-03-01T18:58:45.020147,2114566,889,893,-2208,-1034,-569,-314,72,118,-436
40378,1330,0,2023-03-01T18:58:45.025284,2114571,889,895,-2203,-1030,-573,-316,72,118,-436
40379,1331,0,2023-03-01T18:58:45.031137,2114576,889,895,-2203,-1030,-573,-316,72,118,-436
40380,1332,0,2023-03-01T18:58:45.037086,2114582,889,895,-2203,-1030,-573,-316,72,118,-436
40381,1333,0,2023-03-01T18:58:45.042117,2114587,890,894,-2215,-1032,-578,-326,72,118,-436
40382,1334,0,2023-03-01T18:58:45.047600,2114593,890,894,-2215,-1032,-578,-326,72,118,-436
40383,1335,0,2023-03-01T18:58:45.052675,2114597,890,894,-2215,-1032,-578,-326,72,118,-436
40384,1336,0,2023-03-01T18:58:45.059532,2114605,890,894,-2215,-1032,-578,-326,72,118,-436
40385,1337,0,2023-03-01T18:58:45.064167,2114610,894,895,-2213,-1037,-573,-323,72,118,-436
40386,1338,0,2023-03-01T18:58:45.069518,2114615,894,895,-2213,-1037,-573,-323,72,118,-436
40387,1339,0,2023-03-01T18:58:45.074281,2114620,894,895,-2213,-1037,-573,-323,72,118,-436
40388,1340,0,2023-03-01T18:58:45.080362,2114625,894,895,-2213,-1037,-573,-323,72,118,-436
40389,1341,0,2023-03-01T18:58:45.085520,2114630,891,892,-2208,-1045,-573,-326,72,118,-436
40390,1342,0,2023-03-01T18:58:45.091814,2114637,891,892,-2208,-1045,-573,-326,72,118,-436
40391,1343,0,2023-03-01T18:58:45.098272,2114643,891,892,-2208,-1045,-573,-326,72,118,-436
40392,1344,0,2023-03-01T18:58:45.103117,2114649,887,892,-2211,-1036,-572,-324,69,121,-439
40393,1345,0,2023-03-01T18:58:45.108925,2114654,887,892,-2211,-1036,-572,-324,69,121,-439
40394,1346,0,2023-03-01T18:58:45.113969,2114659,887,892,-2211,-1036,-572,-324,69,121,-439
40395,1347,0,2023-03-01T18:58:45.120890,2114666,887,892,-2211,-1036,-572,-324,69,121,-439
40396,1348,0,2023-03-01T18:58:45.125806,2114671,891,895,-2204,-1036,-572,-322,69,121,-439
40397,1349,0,2023-03-01T18:58:45.131828,2114677,891,895,-2204,-1036,-572,-322,69,121,-439
40398,1350,0,2023-03-01T18:58:45.138180,2114683,891,895,-2204,-1036,-572,-322,69,121,-439
40399,1351,0,2023-03-01T18:58:45.143118,2114689,891,889,-2205,-1031,-570,-328,69,121,-439
40400,1352,0,2023-03-01T18:58:45.148790,2114694,891,889,-2205,-1031,-570,-328,69,121,-439
40401,1353,0,2023-03-01T18:58:45.153981,2114699,891,889,-2205,-1031,-570,-328,69,121,-439
40402,1354,0,2023-03-01T18:58:45.160200,2114705,891,889,-2205,-1031,-570,-328,69,121,-439
40403,1355,0,2023-03-01T18:58:45.165827,2114710,889,891,-2205,-1030,-566,-325,69,121,-439
40404,1356,0,2023-03-01T18:58:45.171578,2114717,889,891,-2205,-1030,-566,-325,69,121,-439
40405,1357,0,2023-03-01T18:58:45.177079,2114722,889,891,-2205,-1030,-566,-325,69,121,-439
40406,1358,0,2023-03-01T18:58:45.182036,2114727,894,894,-2206,-1042,-570,-321,69,121,-439
40407,1359,0,2023-03-01T18:58:45.187875,2114734,894,894,-2206,-1042,-570,-321,69,121,-439
40408,1360,0,2023-03-01T18:58:45.193040,2114739,894,894,-2206,-1042,-570,-321,69,121,-439
40409,1361,0,2023-03-01T18:58:45.199124,2114745,894,894,-2206,-1042,-570,-321,69,121,-439
40410,1362,0,2023-03-01T18:58:45.204199,2114749,890,891,-2210,-1047,-575,-330,69,121,-439
40411,1363,0,2023-03-01T18:58:45.209668,2114755,890,891,-2210,-1047,-575,-330,69,121,-439
40412,1364,0,2023-03-01T18:58:45.214676,2114760,890,891,-2210,-1047,-575,-330,69,121,-439
40413,1365,0,2023-03-01T18:58:45.221472,2114766,890,891,-2210,-1047,-575,-330,69,121,-439
40414,1366,0,2023-03-01T18:58:45.226494,2114771,891,893,-2206,-1045,-572,-320,69,121,-439
40415,1367,0,2023-03-01T18:58:45.234587,2114780,891,893,-2206,-1045,-572,-320,69,121,-439
40416,1368,0,2023-03-01T18:58:45.242395,2114788,891,894,-2204,-1040,-571,-317,62,122,-434
40417,1369,0,2023-03-01T18:58:45.248360,2114793,891,894,-2204,-1040,-571,-317,62,122,-434
40418,1370,0,2023-03-01T18:58:45.253360,2114799,891,894,-2204,-1040,-571,-317,62,122,-434
40419,1371,0,2023-03-01T18:58:45.258978,2114804,891,894,-2204,-1040,-571,-317,62,122,-434
40420,1372,0,2023-03-01T18:58:45.264193,2114809,892,896,-2206,-1031,-574,-323,62,122,-434
40421,1373,0,2023-03-01T18:58:45.270558,2114814,892,896,-2206,-1031,-574,-323,62,122,-434
40422,1374,0,2023-03-01T18:58:45.276009,2114822,892,896,-2206,-1031,-574,-323,62,122,-434
40423,1375,0,2023-03-01T18:58:45.282848,2114828,891,896,-2206,-1035,-571,-323,62,122,-434
40424,1376,0,2023-03-01T18:58:45.288187,2114834,891,896,-2206,-1035,-571,-323,62,122,-434
40425,1377,0,2023-03-01T18:58:45.292942,2114838,891,896,-2206,-1035,-571,-323,62,122,-434
40426,1378,0,2023-03-01T18:58:45.298521,2114843,891,896,-2206,-1035,-571,-323,62,122,-434
40427,1379,0,2023-03-01T18:58:45.304226,2114848,894,892,-2208,-1038,-583,-322,62,122,-434
40428,1380,0,2023-03-01T18:58:45.310723,2114856,894,892,-2208,-1038,-583,-322,62,122,-434
40429,1381,0,2023-03-01T18:58:45.316148,2114862,894,892,-2208,-1038,-583,-322,62,122,-434
40430,1382,0,2023-03-01T18:58:45.321011,2114867,894,892,-2208,-1038,-583,-322,62,122,-434
40431,1383,0,2023-03-01T18:58:45.326045,2114872,893,891,-2208,-1038,-574,-325,62,122,-434
40432,1384,0,2023-03-01T18:58:45.331928,2114877,893,891,-2208,-1038,-574,-325,62,122,-434
40433,1385,0,2023-03-01T18:58:45.339133,2114884,893,891,-2208,-1038,-574,-325,62,122,-434
40434,1386,0,2023-03-01T18:58:45.344533,2114890,891,893,-2211,-1030,-570,-323,62,122,-434
40435,1387,0,2023-03-01T18:58:45.350245,2114895,891,893,-2211,-1030,-570,-323,62,122,-434
40436,1388,0,2023-03-01T18:58:45.355687,2114900,891,893,-2211,-1030,-570,-323,62,122,-434
40437,1389,0,2023-03-01T18:58:45.361226,2114907,891,893,-2211,-1030,-570,-323,62,122,-434
40438,1390,0,2023-03-01T18:58:45.366688,2114912,892,891,-2207,-1040,-574,-324,72,122,-442
40439,1391,0,2023-03-01T18:58:45.372533,2114918,892,891,-2207,-1040,-574,-324,72,122,-442
40440,1392,0,2023-03-01T18:58:45.377075,2114923,892,891,-2207,-1040,-574,-324,72,122,-442
40441,1393,0,2023-03-01T18:58:45.382051,2114927,890,892,-2209,-1039,-575,-320,72,122,-442
40442,1394,0,2023-03-01T18:58:45.387746,2114933,890,892,-2209,-1039,-575,-320,72,122,-442
40443,1395,0,2023-03-01T18:58:45.392541,2114938,890,892,-2209,-1039,-575,-320,72,122,-442
40444,1396,0,2023-03-01T18:58:45.398589,2114944,890,892,-2209,-1039,-575,-320,72,122,-442
40445,1397,0,2023-03-01T18:58:45.403095,2114949,892,897,-2209,-1035,-569,-323,72,122,-442
40446,1398,0,2023-03-01T18:58:45.408694,2114954,892,897,-2209,-1035,-569,-323,72,122,-442
40447,1399,0,2023-03-01T18:58:45.413576,2114959,892,897,-2209,-1035,-569,-323,72,122,-442
40448,1400,0,2023-03-01T18:58:45.419160,2114964,892,897,-2209,-1035,-569,-323,72,122,-442
40449,1401,0,2023-03-01T18:58:45.424385,2114969,890,894,-2205,-1034,-578,-317,72,122,-442
40450,1402,0,2023-03-01T18:58:45.429931,2114975,890,894,-2205,-1034,-578,-317,72,122,-442
40451,1403,0,2023-03-01T18:58:45.434555,2114980,890,894,-2205,-1034,-578,-317,72,122,-442
40452,1404,0,2023-03-01T18:58:45.440331,2114985,890,894,-2205,-1034,-578,-317,72,122,-442
40453,1405,0,2023-03-01T18:58:45.445154,2114991,891,894,-2218,-1042,-569,-320,72,122,-442
40454,1406,0,2023-03-01T18:58:45.450857,2114996,891,894,-2218,-1042,-569,-320,72,122,-442
40455,1407,0,2023-03-01T18:58:45.456986,2115002,891,894,-2218,-1042,-569,-320,72,122,-442
40456,1408,0,2023-03-01T18:58:45.462200,2115008,893,894,-2213,-1040,-574,-317,72,122,-442
40457,1409,0,2023-03-01T18:58:45.467744,2115013,893,894,-2213,-1040,-574,-317,72,122,-442
40458,1410,0,2023-03-01T18:58:45.472672,2115018,893,894,-2213,-1040,-574,-317,72,122,-442
40459,1411,0,2023-03-01T18:58:45.479387,2115024,893,894,-2213,-1040,-574,-317,72,122,-442
40460,1412,0,2023-03-01T18:58:45.484192,2115030,893,895,-2200,-1038,-572,-319,72,122,-442
40461,1413,0,2023-03-01T18:58:45.489543,2115035,893,895,-2200,-1038,-572,-319,72,122,-442
40462,1414,0,2023-03-01T18:58:45.494470,2115040,893,895,-2200,-1038,-572,-319,72,122,-442
40463,1415,0,2023-03-01T18:58:45.501270,2115047,893,895,-2200,-1038,-572,-319,72,122,-442
40464,1416,0,2023-03-01T18:58:45.506222,2115052,888,894,-2205,-1039,-573,-315,66,128,-438
40465,1417,0,2023-03-01T18:58:45.511894,2115057,888,894,-2205,-1039,-573,-315,66,128,-438
40466,1418,0,2023-03-01T18:58:45.517099,2115062,888,894,-2205,-1039,-573,-315,66,128,-438
40467,1419,0,2023-03-01T18:58:45.522371,2115067,892,893,-2208,-1038,-567,-318,66,128,-438
40468,1420,0,2023-03-01T18:58:45.527745,2115074,892,893,-2208,-1038,-567,-318,66,128,-438
40469,1421,0,2023-03-01T18:58:45.532726,2115079,892,893,-2208,-1038,-567,-318,66,128,-438
40470,1422,0,2023-03-01T18:58:45.538906,2115084,892,893,-2208,-1038,-567,-318,66,128,-438
40471,1423,0,2023-03-01T18:58:45.544501,2115090,894,896,-2203,-1035,-569,-330,66,128,-438
40472,1424,0,2023-03-01T18:58:45.550608,2115096,894,896,-2203,-1035,-569,-330,66,128,-438
40473,1425,0,2023-03-01T18:58:45.555616,2115100,894,896,-2203,-1035,-569,-330,66,128,-438
40474,1426,0,2023-03-01T18:58:45.562488,2115107,892,890,-2203,-1035,-576,-328,66,128,-438
40475,1427,0,2023-03-01T18:58:45.568397,2115113,892,890,-2203,-1035,-576,-328,66,128,-438
40476,1428,0,2023-03-01T18:58:45.573306,2115119,892,890,-2203,-1035,-576,-328,66,128,-438
40477,1429,0,2023-03-01T18:58:45.579089,2115125,892,890,-2203,-1035,-576,-328,66,128,-438
40478,1430,0,2023-03-01T18:58:45.584165,2115129,890,894,-2212,-1035,-575,-319,66,128,-438
40479,1431,0,2023-03-01T18:58:45.589873,2115135,890,894,-2212,-1035,-575,-319,66,128,-438
40480,1432,0,2023-03-01T18:58:45.594847,2115140,890,894,-2212,-1035,-575,-319,66,128,-438
40481,1433,0,2023-03-01T18:58:45.600847,2115146,890,894,-2212,-1035,-575,-319,66,128,-438
40482,1434,0,2023-03-01T18:58:45.606029,2115151,891,896,-2207,-1036,-571,-317,66,128,-438
40483,1435,0,2023-03-01T18:58:45.612144,2115158,891,896,-2207,-1036,-571,-317,66,128,-438
40484,1436,0,2023-03-01T18:58:45.617919,2115164,891,896,-2207,-1036,-571,-317,66,128,-438
40485,1437,0,2023-03-01T18:58:45.622601,2115168,893,894,-2199,-1041,-567,-324,69,121,-433
40486,1438,0,2023-03-01T18:58:45.628140,2115174,893,894,-2199,-1041,-567,-324,69,121,-433
40487,1439,0,2023-03-01T18:58:45.633056,2115178,893,894,-2199,-1041,-567,-324,69,121,-433
40488,1440,0,2023-03-01T18:58:45.639180,2115184,893,894,-2199,-1041,-567,-324,69,121,-433
40489,1441,0,2023-03-01T18:58:45.644263,2115189,892,895,-2205,-1039,-576,-326,69,121,-433
40490,1442,0,2023-03-01T18:58:45.650200,2115195,892,895,-2205,-1039,-576,-326,69,121,-433
40491,1443,0,2023-03-01T18:58:45.655421,2115201,892,895,-2205,-1039,-576,-326,69,121,-433
40492,1444,0,2023-03-01T18:58:45.661811,2115207,892,895,-2205,-1039,-576,-326,69,121,-433
40493,1445,0,2023-03-01T18:58:45.667140,2115213,890,894,-2203,-1033,-575,-315,69,121,-433
40494,1446,0,2023-03-01T18:58:45.673528,2115219,890,894,-2203,-1033,-575,-315,69,121,-433
40495,1447,0,2023-03-01T18:58:45.679183,2115224,890,894,-2203,-1033,-575,-315,69,121,-433
40496,1448,0,2023-03-01T18:58:45.684091,2115229,890,893,-2207,-1038,-576,-310,69,121,-433
40497,1449,0,2023-03-01T18:58:45.689483,2115234,890,893,-2207,-1038,-576,-310,69,121,-433
40498,1450,0,2023-03-01T18:58:45.694979,2115239,890,893,-2207,-1038,-576,-310,69,121,-433
40499,1451,0,2023-03-01T18:58:45.701328,2115247,890,893,-2207,-1038,-576,-310,69,121,-433
40500,1452,0,2023-03-01T18:58:45.706539,2115252,889,891,-2207,-1033,-570,-316,69,121,-433
40501,1453,0,2023-03-01T18:58:45.712279,2115258,889,891,-2207,-1033,-570,-316,69,121,-433
40502,1454,0,2023-03-01T18:58:45.718874,2115264,889,891,-2207,-1033,-570,-316,69,121,-433
40503,1455,0,2023-03-01T18:58:45.724372,2115269,891,892,-2209,-1039,-568,-314,69,121,-433
40504,1456,0,2023-03-01T18:58:45.730600,2115276,891,892,-2209,-1039,-568,-314,69,121,-433
40505,1457,0,2023-03-01T18:58:45.736157,2115281,891,892,-2209,-1039,-568,-314,69,121,-433
40506,1458,0,2023-03-01T18:58:45.742409,2115288,892,895,-2208,-1038,-565,-321,69,121,-433
40507,1459,0,2023-03-01T18:58:45.747730,2115293,892,895,-2208,-1038,-565,-321,68,124,-442
40508,1460,0,2023-03-01T18:58:45.753296,2115298,892,895,-2208,-1038,-565,-321,68,124,-442
40509,1461,0,2023-03-01T18:58:45.760295,2115305,892,895,-2208,-1038,-565,-321,68,124,-442
40510,1462,0,2023-03-01T18:58:45.765314,2115311,891,892,-2203,-1042,-568,-315,68,124,-442
40511,1463,0,2023-03-01T18:58:45.771045,2115316,891,892,-2203,-1042,-568,-315,68,124,-442
40512,1464,0,2023-03-01T18:58:45.776884,2115322,891,892,-2203,-1042,-568,-315,68,124,-442
40513,1465,0,2023-03-01T18:58:45.783185,2115329,891,892,-2203,-1042,-568,-315,68,124,-442
40514,1466,0,2023-03-01T18:58:45.788157,2115334,891,892,-2203,-1042,-568,-315,68,124,-442
40515,1467,0,2023-03-01T18:58:45.793189,2115339,891,892,-2203,-1042,-568,-315,68,124,-442
40516,1468,0,2023-03-01T18:58:45.799504,2115345,891,892,-2203,-1042,-568,-315,68,124,-442
40517,1469,0,2023-03-01T18:58:45.804065,2115350,892,893,-2212,-1029,-574,-319,68,124,-442
40518,1470,0,2023-03-01T18:58:45.809545,2115355,892,893,-2212,-1029,-574,-319,68,124,-442
40519,1471,0,2023-03-01T18:58:45.814751,2115360,892,893,-2212,-1029,-574,-319,68,124,-442
40520,1472,0,2023-03-01T18:58:45.820757,2115365,892,893,-2212,-1029,-574,-319,68,124,-442
40521,1473,0,2023-03-01T18:58:45.825389,2115371,890,895,-2212,-1038,-573,-326,68,124,-442
40522,1474,0,2023-03-01T18:58:45.830826,2115376,890,895,-2212,-1038,-573,-326,68,124,-442
40523,1475,0,2023-03-01T18:58:45.835851,2115381,890,895,-2212,-1038,-573,-326,68,124,-442
40524,1476,0,2023-03-01T18:58:45.840959,2115386,890,895,-2212,-1038,-573,-326,68,124,-442
40525,1477,0,2023-03-01T18:58:45.845741,2115391,893,892,-2209,-1042,-570,-321,68,124,-442
40526,1478,0,2023-03-01T18:58:45.851219,2115397,893,892,-2209,-1042,-570,-321,68,124,-442
40527,1479,0,2023-03-01T18:58:45.857258,2115402,893,892,-2209,-1042,-570,-321,68,124,-442
40528,1480,0,2023-03-01T18:58:45.862127,2115407,893,892,-2209,-1042,-570,-321,68,124,-442
40529,1481,0,2023-03-01T18:58:45.867050,2115412,890,894,-2209,-1039,-569,-323,68,124,-442
40530,1482,0,2023-03-01T18:58:45.873239,2115419,890,894,-2209,-1039,-569,-323,68,124,-442
40531,1483,0,2023-03-01T18:58:45.879189,2115425,890,894,-2209,-1039,-569,-323,68,124,-442
40532,1484,0,2023-03-01T18:58:45.884525,2115430,891,894,-2207,-1045,-573,-325,68,122,-430
40533,1485,0,2023-03-01T18:58:45.890867,2115436,891,894,-2207,-1045,-573,-325,68,122,-430
40534,1486,0,2023-03-01T18:58:45.896984,2115442,891,894,-2207,-1045,-573,-325,68,122,-430
40535,1487,0,2023-03-01T18:58:45.902532,2115448,890,894,-2208,-1040,-568,-325,68,122,-430
40536,1488,0,2023-03-01T18:58:45.908413,2115453,890,894,-2208,-1040,-568,-325,68,122,-430
40537,1489,0,2023-03-01T18:58:45.913164,2115459,890,894,-2208,-1040,-568,-325,68,122,-430
40538,1490,0,2023-03-01T18:58:45.918606,2115464,890,894,-2208,-1040,-568,-325,68,122,-430
40539,1491,0,2023-03-01T18:58:45.924019,2115469,891,894,-2207,-1036,-571,-322,68,122,-430
40540,1492,0,2023-03-01T18:58:45.929781,2115475,891,894,-2207,-1036,-571,-322,68,122,-430
40541,1493,0,2023-03-01T18:58:45.934405,2115480,891,894,-2207,-1036,-571,-322,68,122,-430
40542,1494,0,2023-03-01T18:58:45.940710,2115485,891,894,-2207,-1036,-571,-322,68,122,-430
40543,1495,0,2023-03-01T18:58:45.945878,2115491,891,893,-2205,-1042,-574,-329,68,122,-430
40544,1496,0,2023-03-01T18:58:45.951605,2115497,891,893,-2205,-1042,-574,-329,68,122,-430
40545,1497,0,2023-03-01T18:58:45.957533,2115503,891,893,-2205,-1042,-574,-329,68,122,-430
40546,1498,0,2023-03-01T18:58:45.962631,2115508,891,893,-2205,-1042,-574,-329,68,122,-430
40547,1499,0,2023-03-01T18:58:45.967406,2115513,889,896,-2205,-1043,-574,-321,68,122,-430
40548,1500,0,2023-03-01T18:58:45.973944,2115518,889,896,-2205,-1043,-574,-321,68,122,-430
40549,1501,0,2023-03-01T18:58:45.980137,2115525,889,896,-2205,-1043,-574,-321,68,122,-430
40550,1502,0,2023-03-01T18:58:45.985296,2115530,891,890,-2209,-1037,-575,-321,68,122,-430
40551,1503,0,2023-03-01T18:58:45.991085,2115536,891,890,-2209,-1037,-575,-321,68,122,-430
40552,1504,0,2023-03-01T18:58:45.997786,2115543,891,890,-2209,-1037,-575,-321,68,122,-430
40553,1505,0,2023-03-01T18:58:46.003764,2115549,892,894,-2211,-1042,-581,-323,66,126,-436
40554,1506,0,2023-03-01T18:58:46.009626,2115555,892,894,-2211,-1042,-581,-323,66,126,-436
40555,1507,0,2023-03-01T18:58:46.014441,2115560,892,894,-2211,-1042,-581,-323,66,126,-436
40556,1508,0,2023-03-01T18:58:46.020322,2115566,892,894,-2211,-1042,-581,-323,66,126,-436
40557,1509,0,2023-03-01T18:58:46.025195,2115570,890,892,-2206,-1035,-564,-317,66,126,-436
40558,1510,0,2023-03-01T18:58:46.030760,2115576,890,892,-2206,-1035,-564,-317,66,126,-436
40559,1511,0,2023-03-01T18:58:46.036611,2115581,890,892,-2206,-1035,-564,-317,66,126,-436
40560,1512,0,2023-03-01T18:58:46.042621,2115588,890,892,-2206,-1035,-564,-317,66,126,-436
40561,1513,0,2023-03-01T18:58:46.047607,2115593,890,892,-2204,-1045,-570,-320,66,126,-436
40562,1514,0,2023-03-01T18:58:46.053223,2115599,890,892,-2204,-1045,-570,-320,66,126,-436
40563,1515,0,2023-03-01T18:58:46.059443,2115605,890,892,-2204,-1045,-570,-320,66,126,-436
40564,1516,0,2023-03-01T18:58:46.064685,2115610,891,893,-2210,-1039,-571,-321,66,126,-436
40565,1517,0,2023-03-01T18:58:46.070707,2115616,891,893,-2210,-1039,-571,-321,66,126,-436
40566,1518,0,2023-03-01T18:58:46.075469,2115620,891,893,-2210,-1039,-571,-321,66,126,-436
40567,1519,0,2023-03-01T18:58:46.081404,2115627,891,893,-2210,-1039,-571,-321,66,126,-436
40568,1520,0,2023-03-01T18:58:46.086558,2115632,892,894,-2205,-1037,-563,-317,66,126,-436
40569,1521,0,2023-03-01T18:58:46.092446,2115638,892,894,-2205,-1037,-563,-317,66,126,-436
40570,1522,0,2023-03-01T18:58:46.098712,2115644,892,894,-2205,-1037,-563,-317,66,126,-436
40571,1523,0,2023-03-01T18:58:46.103875,2115649,891,890,-2207,-1035,-564,-319,66,126,-436
40572,1524,0,2023-03-01T18:58:46.109671,2115655,891,890,-2207,-1035,-564,-319,66,126,-436
40573,1525,0,2023-03-01T18:58:46.114964,2115660,891,890,-2207,-1035,-564,-319,66,126,-436
40574,1526,0,2023-03-01T18:58:46.121202,2115666,891,890,-2207,-1035,-564,-319,66,126,-436
40575,1527,0,2023-03-01T18:58:46.126067,2115672,891,893,-2204,-1043,-577,-322,66,126,-436
40576,1528,0,2023-03-01T18:58:46.131007,2115677,891,893,-2204,-1043,-577,-322,66,126,-436
40577,1529,0,2023-03-01T18:58:46.136474,2115682,891,893,-2204,-1043,-577,-322,66,126,-436
40578,1530,0,2023-03-01T18:58:46.141834,2115687,891,893,-2204,-1043,-577,-322,66,126,-436
40579,1531,0,2023-03-01T18:58:46.147070,2115692,891,893,-2204,-1043,-577,-322,69,123,-441
40580,1532,0,2023-03-01T18:58:46.152114,2115697,891,893,-2204,-1043,-577,-322,69,123,-441
40581,1533,0,2023-03-01T18:58:46.158423,2115703,891,893,-2204,-1043,-577,-322,69,123,-441
40582,1534,0,2023-03-01T18:58:46.163130,2115708,893,893,-2207,-1034,-565,-326,69,123,-441
40583,1535,0,2023-03-01T18:58:46.169020,2115714,893,893,-2207,-1034,-565,-326,69,123,-441
40584,1536,0,2023-03-01T18:58:46.174117,2115720,893,893,-2207,-1034,-565,-326,69,123,-441
40585,1537,0,2023-03-01T18:58:46.180801,2115726,893,893,-2207,-1034,-565,-326,69,123,-441
40586,1538,0,2023-03-01T18:58:46.185754,2115731,889,894,-2210,-1027,-568,-319,69,123,-441
40587,1539,0,2023-03-01T18:58:46.191314,2115737,889,894,-2210,-1027,-568,-319,69,123,-441
40588,1540,0,2023-03-01T18:58:46.196928,2115741,889,894,-2210,-1027,-568,-319,69,123,-441
40589,1541,0,2023-03-01T18:58:46.202219,2115747,889,894,-2210,-1027,-568,-319,69,123,-441
40590,1542,0,2023-03-01T18:58:46.207554,2115752,894,894,-2206,-1032,-569,-321,69,123,-441
40591,1543,0,2023-03-01T18:58:46.213291,2115759,894,894,-2206,-1032,-569,-321,69,123,-441
40592,1544,0,2023-03-01T18:58:46.220029,2115765,894,894,-2206,-1032,-569,-321,69,123,-441
40593,1545,0,2023-03-01T18:58:46.225101,2115770,894,894,-2205,-1036,-561,-319,69,123,-441
40594,1546,0,2023-03-01T18:58:46.231143,2115776,894,894,-2205,-1036,-561,-319,69,123,-441
40595,1547,0,2023-03-01T18:58:46.236715,2115782,894,894,-2205,-1036,-561,-319,69,123,-441
40596,1548,0,2023-03-01T18:58:46.243280,2115788,895,894,-2207,-1035,-565,-326,69,123,-441
40597,1549,0,2023-03-01T18:58:46.248706,2115794,895,894,-2207,-1035,-565,-326,69,123,-441
40598,1550,0,2023-03-01T18:58:46.253937,2115799,895,894,-2207,-1035,-565,-326,69,123,-441
40599,1551,0,2023-03-01T18:58:46.261412,2115807,895,894,-2207,-1035,-565,-326,69,123,-441
40600,1552,0,2023-03-01T18:58:46.266254,2115812,891,893,-2206,-1034,-571,-314,69,123,-441
40601,1553,0,2023-03-01T18:58:46.271530,2115817,891,893,-2206,-1034,-571,-314,69,123,-441
40602,1554,0,2023-03-01T18:58:46.277065,2115822,891,893,-2206,-1034,-571,-314,69,123,-441
40603,1555,0,2023-03-01T18:58:46.282059,2115827,891,893,-2206,-1034,-571,-314,69,123,-441
40604,1556,0,2023-03-01T18:58:46.287177,2115832,891,893,-2208,-1025,-573,-323,69,123,-441
40605,1557,0,2023-03-01T18:58:46.293131,2115838,891,893,-2208,-1025,-573,-323,69,123,-441
40606,1558,0,2023-03-01T18:58:46.299929,2115846,891,893,-2208,-1025,-573,-323,69,123,-441
40607,1559,0,2023-03-01T18:58:46.304727,2115850,893,890,-2212,-1038,-576,-324,69,123,-441
40608,1560,0,2023-03-01T18:58:46.310846,2115856,893,890,-2212,-1038,-576,-324,69,123,-441
40609,1561,0,2023-03-01T18:58:46.316774,2115862,893,890,-2212,-1038,-576,-324,69,123,-441
40610,1562,0,2023-03-01T18:58:46.322463,2115867,893,890,-2212,-1038,-576,-324,69,123,-441
40611,1563,0,2023-03-01T18:58:46.327750,2115873,889,893,-2205,-1041,-578,-318,69,123,-441
40612,1564,0,2023-03-01T18:58:46.333423,2115878,889,893,-2205,-1041,-578,-318,69,123,-441
40613,1565,0,2023-03-01T18:58:46.340225,2115886,889,893,-2205,-1041,-578,-318,69,123,-441
40614,1566,0,2023-03-01T18:58:46.345346,2115891,892,891,-2206,-1042,-573,-320,69,123,-441
40615,1567,0,2023-03-01T18:58:46.351077,2115897,892,891,-2206,-1042,-573,-320,69,123,-441
40616,1568,0,2023-03-01T18:58:46.356714,2115902,892,891,-2206,-1042,-573,-320,69,123,-441
40617,1569,0,2023-03-01T18:58:46.362564,2115908,892,891,-2206,-1042,-573,-320,69,123,-441
40618,1570,0,2023-03-01T18:58:46.367191,2115912,892,890,-2206,-1042,-564,-322,69,123,-441
40619,1571,0,2023-03-01T18:58:46.372946,2115918,892,890,-2206,-1042,-564,-322,69,123,-441
40620,1572,0,2023-03-01T18:58:46.378787,2115924,892,890,-2206,-1042,-564,-322,69,123,-441
40621,1573,0,2023-03-01T18:58:46.384076,2115929,892,895,-2211,-1045,-567,-314,69,123,-441
40622,1574,0,2023-03-01T18:58:46.389784,2115935,892,895,-2211,-1045,-567,-314,69,123,-441
40623,1575,0,2023-03-01T18:58:46.394879,2115940,892,895,-2211,-1045,-567,-314,69,123,-441
40624,1576,0,2023-03-01T18:58:46.400689,2115946,892,895,-2211,-1045,-567,-314,69,123,-441
40625,1577,0,2023-03-01T18:58:46.405701,2115951,890,894,-2203,-1042,-573,-320,63,119,-443
40626,1578,0,2023-03-01T18:58:46.411256,2115956,890,894,-2203,-1042,-573,-320,63,119,-443
40627,1579,0,2023-03-01T18:58:46.417064,2115962,890,894,-2203,-1042,-573,-320,63,119,-443
40628,1580,0,2023-03-01T18:58:46.422622,2115968,890,894,-2203,-1042,-573,-320,63,119,-443
40629,1581,0,2023-03-01T18:58:46.428749,2115973,890,892,-2202,-1035,-569,-324,63,119,-443
40630,1582,0,2023-03-01T18:58:46.434349,2115980,890,892,-2202,-1035,-569,-324,63,119,-443
40631,1583,0,2023-03-01T18:58:46.440418,2115986,890,892,-2202,-1035,-569,-324,63,119,-443
40632,1584,0,2023-03-01T18:58:46.445436,2115991,892,894,-2201,-1030,-571,-328,63,119,-443
40633,1585,0,2023-03-01T18:58:46.451844,2115997,892,894,-2201,-1030,-571,-328,63,119,-443
40634,1586,0,2023-03-01T18:58:46.457121,2116002,892,894,-2201,-1030,-571,-328,63,119,-443
40635,1587,0,2023-03-01T18:58:46.462715,2116008,892,894,-2201,-1030,-571,-328,63,119,-443
40636,1588,0,2023-03-01T18:58:46.467516,2116014,889,894,-2207,-1033,-575,-324,63,119,-443
40637,1589,0,2023-03-01T18:58:46.472749,2116019,889,894,-2207,-1033,-575,-324,63,119,-443
40638,1590,0,2023-03-01T18:58:46.477570,2116023,889,894,-2207,-1033,-575,-324,63,119,-443
40639,1591,0,2023-03-01T18:58:46.482876,2116028,889,894,-2207,-1033,-575,-324,63,119,-443
40640,1592,0,2023-03-01T18:58:46.487939,2116033,893,894,-2207,-1037,-569,-319,63,119,-443
40641,1593,0,2023-03-01T18:58:46.493751,2116039,893,894,-2207,-1037,-569,-319,63,119,-443
40642,1594,0,2023-03-01T18:58:46.499649,2116045,893,894,-2207,-1037,-569,-319,63,119,-443
40643,1595,0,2023-03-01T18:58:46.504607,2116050,892,892,-2203,-1038,-567,-324,63,119,-443
40644,1596,0,2023-03-01T18:58:46.510227,2116056,892,892,-2203,-1038,-567,-324,63,119,-443
40645,1597,0,2023-03-01T18:58:46.514828,2116061,892,892,-2203,-1038,-567,-324,63,119,-443
40646,1598,0,2023-03-01T18:58:46.520220,2116065,892,892,-2203,-1038,-567,-324,63,119,-443
40647,1599,0,2023-03-01T18:58:46.525190,2116071,893,896,-2199,-1037,-572,-322,61,123,-443
40648,1600,0,2023-03-01T18:58:46.530570,2116076,893,896,-2199,-1037,-572,-322,61,123,-443
40649,1601,0,2023-03-01T18:58:46.535196,2116081,893,896,-2199,-1037,-572,-322,61,123,-443
40650,1602,0,2023-03-01T18:58:46.541481,2116086,893,896,-2199,-1037,-572,-322,61,123,-443
40651,1603,0,2023-03-01T18:58:46.546474,2116092,889,894,-2206,-1041,-584,-319,61,123,-443
40652,1604,0,2023-03-01T18:58:46.552311,2116098,889,894,-2206,-1041,-584,-319,61,123,-443
40653,1605,0,2023-03-01T18:58:46.558270,2116104,889,894,-2206,-1041,-584,-319,61,123,-443
40654,1606,0,2023-03-01T18:58:46.563198,2116109,889,894,-2206,-1041,-584,-319,61,123,-443
40655,1607,0,2023-03-01T18:58:46.568121,2116114,889,894,-2207,-1031,-570,-322,61,123,-443
40656,1608,0,2023-03-01T18:58:46.574035,2116119,889,894,-2207,-1031,-570,-322,61,123,-443
40657,1609,0,2023-03-01T18:58:46.580559,2116125,889,894,-2207,-1031,-570,-322,61,123,-443
40658,1610,0,2023-03-01T18:58:46.585980,2116131,889,893,-2209,-1036,-569,-325,61,123,-443
40659,1611,0,2023-03-01T18:58:46.591704,2116137,889,893,-2209,-1036,-569,-325,61,123,-443
40660,1612,0,2023-03-01T18:58:46.596905,2116143,889,893,-2209,-1036,-569,-325,61,123,-443
40661,1613,0,2023-03-01T18:58:46.601530,2116147,889,893,-2209,-1036,-569,-325,61,123,-443
40662,1614,0,2023-03-01T18:58:46.606158,2116152,889,893,-2205,-1038,-575,-321,61,123,-443
40663,1615,0,2023-03-01T18:58:46.611656,2116157,889,893,-2205,-1038,-575,-321,61,123,-443
40664,1616,0,2023-03-01T18:58:46.616905,2116162,889,893,-2205,-1038,-575,-321,61,123,-443
40665,1617,0,2023-03-01T18:58:46.622441,2116168,889,893,-2205,-1038,-575,-321,61,123,-443
40666,1618,0,2023-03-01T18:58:46.627125,2116172,889,890,-2207,-1038,-577,-324,61,123,-443
40667,1619,0,2023-03-01T18:58:46.631856,2116177,889,890,-2207,-1038,-577,-324,61,123,-443
40668,1620,0,2023-03-01T18:58:46.638460,2116184,889,890,-2207,-1038,-577,-324,61,123,-443
40669,1621,0,2023-03-01T18:58:46.643620,2116189,889,890,-2207,-1038,-577,-324,61,123,-443
40670,1622,0,2023-03-01T18:58:46.648668,2116194,889,891,-2205,-1035,-578,-324,69,139,-431
40671,1623,0,2023-03-01T18:58:46.655102,2116200,889,891,-2205,-1035,-578,-324,69,139,-431
40672,1624,0,2023-03-01T18:58:46.661748,2116207,889,891,-2205,-1035,-578,-324,69,139,-431
40673,1625,0,2023-03-01T18:58:46.666760,2116212,891,894,-2204,-1032,-575,-316,69,139,-431
40674,1626,0,2023-03-01T18:58:46.672660,2116217,891,894,-2204,-1032,-575,-316,69,139,-431
40675,1627,0,2023-03-01T18:58:46.679082,2116225,891,894,-2204,-1032,-575,-316,69,139,-431
40676,1628,0,2023-03-01T18:58:46.684030,2116230,893,892,-2204,-1043,-573,-322,69,139,-431
40677,1629,0,2023-03-01T18:58:46.689246,2116235,893,892,-2204,-1043,-573,-322,69,139,-431
40678,1630,0,2023-03-01T18:58:46.694507,2116240,893,892,-2204,-1043,-573,-322,69,139,-431
40679,1631,0,2023-03-01T18:58:46.699287,2116245,893,892,-2204,-1043,-573,-322,69,139,-431
40680,1632,0,2023-03-01T18:58:46.704250,2116250,891,893,-2202,-1026,-578,-322,69,139,-431
40681,1633,0,2023-03-01T18:58:46.710157,2116255,891,893,-2202,-1026,-578,-322,69,139,-431
40682,1634,0,2023-03-01T18:58:46.715070,2116260,891,893,-2202,-1026,-578,-322,69,139,-431
40683,1635,0,2023-03-01T18:58:46.721548,2116267,891,893,-2202,-1026,-578,-322,69,139,-431
40684,1636,0,2023-03-01T18:58:46.726640,2116272,893,892,-2204,-1036,-575,-322,69,139,-431
40685,1637,0,2023-03-01T18:58:46.732768,2116278,893,892,-2204,-1036,-575,-322,69,139,-431
40686,1638,0,2023-03-01T18:58:46.739143,2116284,893,892,-2204,-1036,-575,-322,69,139,-431
40687,1639,0,2023-03-01T18:58:46.744228,2116289,892,892,-2210,-1042,-570,-318,69,139,-431
40688,1640,0,2023-03-01T18:58:46.750006,2116295,892,892,-2210,-1042,-570,-318,69,139,-431
40689,1641,0,2023-03-01T18:58:46.755841,2116300,892,892,-2210,-1042,-570,-318,69,139,-431
40690,1642,0,2023-03-01T18:58:46.763472,2116308,892,892,-2210,-1042,-570,-318,69,139,-431
40691,1643,0,2023-03-01T18:58:46.768473,2116314,890,893,-2207,-1037,-570,-327,69,139,-431
40692,1644,0,2023-03-01T18:58:46.774308,2116320,890,893,-2207,-1037,-570,-327,69,139,-431
40693,1645,0,2023-03-01T18:58:46.781033,2116326,890,893,-2207,-1037,-570,-327,69,139,-431
40694,1646,0,2023-03-01T18:58:46.787125,2116332,889,894,-2205,-1038,-567,-322,68,120,-426
40695,1647,0,2023-03-01T18:58:46.793005,2116338,889,894,-2205,-1038,-567,-322,68,120,-426
40696,1648,0,2023-03-01T18:58:46.798687,2116344,889,894,-2205,-1038,-567,-322,68,120,-426
40697,1649,0,2023-03-01T18:58:46.804278,2116349,890,892,-2207,-1041,-572,-324,68,120,-426
40698,1650,0,2023-03-01T18:58:46.810254,2116356,890,892,-2207,-1041,-572,-324,68,120,-426
40699,1651,0,2023-03-01T18:58:46.814988,2116361,890,892,-2207,-1041,-572,-324,68,120,-426
40700,1652,0,2023-03-01T18:58:46.820674,2116366,890,892,-2207,-1041,-572,-324,68,120,-426
40701,1653,0,2023-03-01T18:58:46.825410,2116371,889,890,-2209,-1036,-570,-321,68,120,-426
40702,1654,0,2023-03-01T18:58:46.831285,2116377,889,890,-2209,-1036,-570,-321,68,120,-426
40703,1655,0,2023-03-01T18:58:46.835974,2116381,889,890,-2209,-1036,-570,-321,68,120,-426
40704,1656,0,2023-03-01T18:58:46.841603,2116387,889,890,-2209,-1036,-570,-321,68,120,-426
40705,1657,0,2023-03-01T18:58:46.846830,2116392,889,892,-2212,-1027,-565,-320,68,120,-426
40706,1658,0,2023-03-01T18:58:46.852015,2116398,889,892,-2212,-1027,-565,-320,68,120,-426
40707,1659,0,2023-03-01T18:58:46.856837,2116402,889,892,-2212,-1027,-565,-320,68,120,-426
40708,1660,0,2023-03-01T18:58:46.861787,2116407,889,892,-2212,-1027,-565,-320,68,120,-426
40709,1661,0,2023-03-01T18:58:46.866833,2116412,892,888,-2206,-1032,-566,-324,68,120,-426
40710,1662,0,2023-03-01T18:58:46.872628,2116418,892,888,-2206,-1032,-566,-324,68,120,-426
40711,1663,0,2023-03-01T18:58:46.878845,2116424,892,888,-2206,-1032,-566,-324,68,120,-426
40712,1664,0,2023-03-01T18:58:46.883621,2116429,892,888,-2206,-1032,-566,-324,68,120,-426
40713,1665,0,2023-03-01T18:58:46.888463,2116434,890,892,-2210,-1037,-570,-320,68,120,-426
40714,1666,0,2023-03-01T18:58:46.894429,2116440,890,892,-2210,-1037,-570,-320,68,120,-426
40715,1667,0,2023-03-01T18:58:46.901312,2116447,890,892,-2210,-1037,-570,-320,68,120,-426
40716,1668,0,2023-03-01T18:58:46.906355,2116452,892,893,-2207,-1033,-571,-321,65,127,-429
40717,1669,0,2023-03-01T18:58:46.911986,2116457,892,893,-2207,-1033,-571,-321,65,127,-429
40718,1670,0,2023-03-01T18:58:46.917609,2116463,892,893,-2207,-1033,-571,-321,65,127,-429
40719,1671,0,2023-03-01T18:58:46.922550,2116468,892,893,-2207,-1033,-571,-321,65,127,-429
40720,1672,0,2023-03-01T18:58:46.927209,2116472,891,893,-2204,-1035,-567,-319,65,127,-429
40721,1673,0,2023-03-01T18:58:46.932493,2116478,891,893,-2204,-1035,-567,-319,65,127,-429
40722,1674,0,2023-03-01T18:58:46.938654,2116484,891,893,-2204,-1035,-567,-319,65,127,-429
40723,1675,0,2023-03-01T18:58:46.943559,2116489,891,893,-2204,-1035,-567,-319,65,127,-429
40724,1676,0,2023-03-01T18:58:46.948562,2116494,892,892,-2208,-1032,-568,-316,65,127,-429
40725,1677,0,2023-03-01T18:58:46.954365,2116500,892,892,-2208,-1032,-568,-316,65,127,-429
40726,1678,0,2023-03-01T18:58:46.960725,2116506,892,892,-2208,-1032,-568,-316,65,127,-429
40727,1679,0,2023-03-01T18:58:46.965508,2116511,893,894,-2209,-1039,-571,-315,65,127,-429
40728,1680,0,2023-03-01T18:58:46.970928,2116516,893,894,-2209,-1039,-571,-315,65,127,-429
40729,1681,0,2023-03-01T18:58:46.976501,2116521,893,894,-2209,-1039,-571,-315,65,127,-429
40730,1682,0,2023-03-01T18:58:46.981420,2116527,893,894,-2209,-1039,-571,-315,65,127,-429
40731,1683,0,2023-03-01T18:58:46.986579,2116532,891,892,-2207,-1035,-575,-320,65,127,-429
40732,1684,0,2023-03-01T18:58:46.992497,2116538,891,892,-2207,-1035,-575,-320,65,127,-429
40733,1685,0,2023-03-01T18:58:46.998463,2116544,891,892,-2207,-1035,-575,-320,65,127,-429
40734,1686,0,2023-03-01T18:58:47.003699,2116549,891,892,-2207,-1035,-575,-320,65,127,-429
40735,1687,0,2023-03-01T18:58:47.008562,2116554,890,894,-2211,-1037,-574,-325,65,127,-429
40736,1688,0,2023-03-01T18:58:47.014202,2116559,890,894,-2211,-1037,-574,-325,65,127,-429
40737,1689,0,2023-03-01T18:58:47.020381,2116566,890,894,-2211,-1037,-574,-325,65,127,-429
40738,1690,0,2023-03-01T18:58:47.025584,2116571,891,892,-2205,-1038,-575,-317,65,127,-429
40739,1691,0,2023-03-01T18:58:47.031085,2116577,891,892,-2205,-1038,-575,-317,65,127,-429
40740,1692,0,2023-03-01T18:58:47.036700,2116582,891,892,-2205,-1038,-575,-317,65,127,-429
40741,1693,0,2023-03-01T18:58:47.041482,2116587,891,892,-2205,-1038,-575,-317,65,127,-429
40742,1694,0,2023-03-01T18:58:47.046415,2116592,892,894,-2201,-1037,-578,-314,68,126,-430
40743,1695,0,2023-03-01T18:58:47.052087,2116597,892,894,-2201,-1037,-578,-314,68,126,-430
40744,1696,0,2023-03-01T18:58:47.057030,2116602,892,894,-2201,-1037,-578,-314,68,126,-430
40745,1697,0,2023-03-01T18:58:47.062441,2116608,892,894,-2201,-1037,-578,-314,68,126,-430
40746,1698,0,2023-03-01T18:58:47.067060,2116613,891,893,-2203,-1035,-577,-327,68,126,-430
40747,1699,0,2023-03-01T18:58:47.072854,2116619,891,893,-2203,-1035,-577,-327,68,126,-430
40748,1700,0,2023-03-01T18:58:47.078383,2116624,891,893,-2203,-1035,-577,-327,68,126,-430
40749,1701,0,2023-03-01T18:58:47.084550,2116629,891,893,-2203,-1035,-577,-327,68,126,-430
40750,1702,0,2023-03-01T18:58:47.090014,2116635,891,894,-2206,-1038,-570,-327,68,126,-430
40751,1703,0,2023-03-01T18:58:47.095682,2116641,891,894,-2206,-1038,-570,-327,68,126,-430
40752,1704,0,2023-03-01T18:58:47.102010,2116647,891,894,-2206,-1038,-570,-327,68,126,-430
40753,1705,0,2023-03-01T18:58:47.106805,2116653,887,894,-2205,-1036,-572,-326,68,126,-430
40754,1706,0,2023-03-01T18:58:47.113039,2116658,887,894,-2205,-1036,-572,-326,68,126,-430
40755,1707,0,2023-03-01T18:58:47.118701,2116664,887,894,-2205,-1036,-572,-326,68,126,-430
40756,1708,0,2023-03-01T18:58:47.123512,2116669,887,894,-2205,-1036,-572,-326,68,126,-430
40757,1709,0,2023-03-01T18:58:47.128688,2116674,888,896,-2207,-1036,-580,-319,68,126,-430
40758,1710,0,2023-03-01T18:58:47.134467,2116680,888,896,-2207,-1036,-580,-319,68,126,-430
40759,1711,0,2023-03-01T18:58:47.140495,2116686,888,896,-2207,-1036,-580,-319,68,126,-430
40760,1712,0,2023-03-01T18:58:47.145411,2116691,889,896,-2212,-1038,-578,-323,68,126,-430
40761,1713,0,2023-03-01T18:58:47.150127,2116696,889,896,-2212,-1038,-578,-323,68,126,-430
40762,1714,0,2023-03-01T18:58:47.155188,2116701,889,896,-2212,-1038,-578,-323,68,126,-430
40763,1715,0,2023-03-01T18:58:47.161380,2116707,889,896,-2212,-1038,-578,-323,68,126,-430
40764,1716,0,2023-03-01T18:58:47.166772,2116712,889,893,-2205,-1045,-568,-320,70,120,-436
40765,1717,0,2023-03-01T18:58:47.172401,2116718,889,893,-2205,-1045,-568,-320,70,120,-436
40766,1718,0,2023-03-01T18:58:47.177920,2116723,889,893,-2205,-1045,-568,-320,70,120,-436
40767,1719,0,2023-03-01T18:58:47.182705,2116728,889,893,-2205,-1045,-568,-320,70,120,-436
40768,1720,0,2023-03-01T18:58:47.187812,2116733,892,891,-2207,-1039,-573,-326,70,120,-436
40769,1721,0,2023-03-01T18:58:47.194311,2116740,892,891,-2207,-1039,-573,-326,70,120,-436
40770,1722,0,2023-03-01T18:58:47.200812,2116746,892,891,-2207,-1039,-573,-326,70,120,-436
40771,1723,0,2023-03-01T18:58:47.206250,2116752,893,895,-2208,-1039,-571,-321,70,120,-436
40772,1724,0,2023-03-01T18:58:47.211192,2116757,893,895,-2208,-1039,-571,-321,70,120,-436
40773,1725,0,2023-03-01T18:58:47.217668,2116763,893,895,-2208,-1039,-571,-321,70,120,-436
40774,1726,0,2023-03-01T18:58:47.223320,2116768,893,895,-2208,-1039,-571,-321,70,120,-436
40775,1727,0,2023-03-01T18:58:47.228016,2116773,891,893,-2210,-1039,-571,-328,70,120,-436
40776,1728,0,2023-03-01T18:58:47.233294,2116779,891,893,-2210,-1039,-571,-328,70,120,-436
40777,1729,0,2023-03-01T18:58:47.238984,2116784,891,893,-2210,-1039,-571,-328,70,120,-436
40778,1730,0,2023-03-01T18:58:47.244111,2116790,891,893,-2210,-1039,-571,-328,70,120,-436
40779,1731,0,2023-03-01T18:58:47.249346,2116794,892,892,-2207,-1039,-575,-324,70,120,-436
40780,1732,0,2023-03-01T18:58:47.255106,2116800,892,892,-2207,-1039,-575,-324,70,120,-436
40781,1733,0,2023-03-01T18:58:47.261818,2116807,892,892,-2207,-1039,-575,-324,70,120,-436
40782,1734,0,2023-03-01T18:58:47.266951,2116812,891,893,-2211,-1039,-574,-320,70,120,-436
40783,1735,0,2023-03-01T18:58:47.272847,2116818,891,893,-2211,-1039,-574,-320,70,120,-436
40784,1736,0,2023-03-01T18:58:47.278813,2116825,891,893,-2211,-1039,-574,-320,70,120,-436
40785,1737,0,2023-03-01T18:58:47.283453,2116829,891,893,-2211,-1039,-574,-320,70,120,-436
40786,1738,0,2023-03-01T18:58:47.288402,2116834,890,890,-2209,-1039,-568,-320,70,120,-436
40787,1739,0,2023-03-01T18:58:47.294881,2116840,890,890,-2209,-1039,-568,-320,70,120,-436
