,Unnamed: 0,imu,server_time,arduino_time,ax,ay,az,gx,gy,gz,mx,my,mz
43041,3993,0,2023-03-01T18:58:59.803352,2129349,428,260,-2454,-1027,-575,-318,158,208,-476
43042,3994,0,2023-03-01T18:58:59.808808,2129355,428,260,-2454,-1027,-575,-318,158,208,-476
43043,3995,0,2023-03-01T18:58:59.814052,2129359,428,260,-2454,-1027,-575,-318,158,208,-476
43044,3996,0,2023-03-01T18:58:59.819446,2129366,428,260,-2454,-1027,-575,-318,158,208,-476
43045,3997,0,2023-03-01T18:58:59.825467,2129372,427,260,-2454,-1047,-565,-320,158,208,-476
43046,3998,0,2023-03-01T18:58:59.831109,2129377,427,260,-2454,-1047,-565,-320,158,208,-476
43047,3999,0,2023-03-01T18:58:59.835761,2129382,427,260,-2454,-1047,-565,-320,158,208,-476
43048,4000,0,2023-03-01T18:58:59.841457,2129387,433,265,-2453,-1055,-566,-320,158,208,-476
43049,4001,0,2023-03-01T18:58:59.847216,2129393,433,265,-2453,-1055,-566,-320,158,208,-476
43050,4002,0,2023-03-01T18:58:59.853066,2129398,433,265,-2453,-1055,-566,-320,158,208,-476
43051,4003,0,2023-03-01T18:58:59.858747,2129404,433,265,-2453,-1055,-566,-320,158,208,-476
43052,4004,0,2023-03-01T18:58:59.864199,2129411,436,271,-2457,-1050,-563,-321,158,208,-476
43053,4005,0,2023-03-01T18:58:59.869845,2129416,436,271,-2457,-1050,-563,-321,158,208,-476
43054,4006,0,2023-03-01T18:58:59.874709,2129421,436,271,-2457,-1050,-563,-321,158,208,-476
43055,4007,0,2023-03-01T18:58:59.881083,2129426,436,273,-2452,-1042,-564,-317,158,208,-476
43056,4008,0,2023-03-01T18:58:59.888355,2129434,436,273,-2452,-1042,-564,-317,158,208,-476
43057,4009,0,2023-03-01T18:58:59.894508,2129440,436,273,-2452,-1042,-564,-317,158,208,-476
43058,4010,0,2023-03-01T18:58:59.899368,2129445,436,273,-2452,-1042,-564,-317,158,208,-476
43059,4011,0,2023-03-01T18:58:59.904972,2129452,432,269,-2448,-1029,-570,-318,153,205,-477
43060,4012,0,2023-03-01T18:58:59.911217,2129458,432,269,-2448,-1029,-570,-318,153,205,-477
43061,4013,0,2023-03-01T18:58:59.916249,2129463,432,269,-2448,-1029,-570,-318,153,205,-477
43062,4014,0,2023-03-01T18:58:59.922714,2129469,432,265,-2453,-1024,-573,-320,153,205,-477
43063,4015,0,2023-03-01T18:58:59.928497,2129474,432,265,-2453,-1024,-573,-320,153,205,-477
43064,4016,0,2023-03-01T18:58:59.934142,2129480,432,265,-2453,-1024,-573,-320,153,205,-477
43065,4017,0,2023-03-01T18:58:59.939390,2129485,432,265,-2453,-1024,-573,-320,153,205,-477
43066,4018,0,2023-03-01T18:58:59.944741,2129490,428,259,-2457,-1027,-580,-316,153,205,-477
43067,4019,0,2023-03-01T18:58:59.951076,2129498,428,259,-2457,-1027,-580,-316,153,205,-477
43068,4020,0,2023-03-01T18:58:59.955890,2129502,428,259,-2457,-1027,-580,-316,153,205,-477
43069,4021,0,2023-03-01T18:58:59.961408,2129508,433,259,-2459,-1031,-571,-310,153,205,-477
43070,4022,0,2023-03-01T18:58:59.967381,2129513,433,259,-2459,-1031,-571,-310,153,205,-477
43071,4023,0,2023-03-01T18:58:59.972854,2129519,433,259,-2459,-1031,-571,-310,153,205,-477
43072,4024,0,2023-03-01T18:58:59.978072,2129524,433,259,-2459,-1031,-571,-310,153,205,-477
43073,4025,0,2023-03-01T18:58:59.983287,2129529,431,261,-2456,-1041,-567,-319,153,205,-477
43074,4026,0,2023-03-01T18:58:59.988898,2129536,431,261,-2456,-1041,-567,-319,153,205,-477
43075,4027,0,2023-03-01T18:58:59.994015,2129540,431,261,-2456,-1041,-567,-319,153,205,-477
43076,4028,0,2023-03-01T18:58:59.999562,2129546,431,261,-2456,-1041,-567,-319,153,205,-477
43077,4029,0,2023-03-01T18:59:00.005699,2129552,435,267,-2457,-1045,-565,-327,153,205,-477
43078,4030,0,2023-03-01T18:59:00.011937,2129558,435,267,-2457,-1045,-565,-327,153,205,-477
43079,4031,0,2023-03-01T18:59:00.016879,2129563,435,267,-2457,-1045,-565,-327,153,205,-477
43080,4032,0,2023-03-01T18:59:00.022663,2129568,439,271,-2452,-1053,-569,-324,151,207,-479
43081,4033,0,2023-03-01T18:59:00.028010,2129574,439,271,-2452,-1053,-569,-324,151,207,-479
43082,4034,0,2023-03-01T18:59:00.034445,2129581,439,271,-2452,-1053,-569,-324,151,207,-479
43083,4035,0,2023-03-01T18:59:00.039422,2129586,439,271,-2452,-1053,-569,-324,151,207,-479
43084,4036,0,2023-03-01T18:59:00.043848,2129590,432,268,-2449,-1029,-577,-317,151,207,-479
43085,4037,0,2023-03-01T18:59:00.049639,2129596,432,268,-2449,-1029,-577,-317,151,207,-479
43086,4038,0,2023-03-01T18:59:00.055091,2129601,432,268,-2449,-1029,-577,-317,151,207,-479
43087,4039,0,2023-03-01T18:59:00.060841,2129607,431,267,-2458,-1024,-579,-315,151,207,-479
43088,4040,0,2023-03-01T18:59:00.066116,2129612,431,267,-2458,-1024,-579,-315,151,207,-479
43089,4041,0,2023-03-01T18:59:00.070857,2129617,431,267,-2458,-1024,-579,-315,151,207,-479
43090,4042,0,2023-03-01T18:59:00.075537,2129622,431,267,-2458,-1024,-579,-315,151,207,-479
43091,4043,0,2023-03-01T18:59:00.081075,2129628,431,263,-2449,-1023,-576,-315,151,207,-479
43092,4044,0,2023-03-01T18:59:00.087175,2129634,431,263,-2449,-1023,-576,-315,151,207,-479
43093,4045,0,2023-03-01T18:59:00.092953,2129639,431,263,-2449,-1023,-576,-315,151,207,-479
43094,4046,0,2023-03-01T18:59:00.097627,2129644,431,263,-2449,-1023,-576,-315,151,207,-479
43095,4047,0,2023-03-01T18:59:00.104326,2129650,429,263,-2459,-1041,-572,-322,151,207,-479
43096,4048,0,2023-03-01T18:59:00.110145,2129656,429,263,-2459,-1041,-572,-322,151,207,-479
43097,4049,0,2023-03-01T18:59:00.115123,2129661,429,263,-2459,-1041,-572,-322,151,207,-479
43098,4050,0,2023-03-01T18:59:00.120472,2129667,430,262,-2459,-1048,-575,-323,151,207,-479
43099,4051,0,2023-03-01T18:59:00.125884,2129672,430,262,-2459,-1048,-575,-323,151,207,-479
43100,4052,0,2023-03-01T18:59:00.130983,2129677,430,262,-2459,-1048,-575,-323,151,207,-479
43101,4053,0,2023-03-01T18:59:00.136656,2129682,430,262,-2459,-1048,-575,-323,151,207,-479
43102,4054,0,2023-03-01T18:59:00.142615,2129688,431,265,-2454,-1045,-562,-315,151,207,-479
43103,4055,0,2023-03-01T18:59:00.148602,2129694,431,265,-2454,-1045,-562,-315,151,207,-479
43104,4056,0,2023-03-01T18:59:00.154244,2129700,431,265,-2454,-1045,-562,-315,151,207,-479
43105,4057,0,2023-03-01T18:59:00.159475,2129705,431,265,-2454,-1045,-562,-315,151,207,-479
43106,4058,0,2023-03-01T18:59:00.164481,2129711,434,271,-2451,-1049,-563,-323,153,207,-471
43107,4059,0,2023-03-01T18:59:00.170438,2129717,434,271,-2451,-1049,-563,-323,153,207,-471
43108,4060,0,2023-03-01T18:59:00.175179,2129721,434,271,-2451,-1049,-563,-323,153,207,-471
43109,4061,0,2023-03-01T18:59:00.180561,2129727,432,267,-2451,-1037,-569,-311,153,207,-471
43110,4062,0,2023-03-01T18:59:00.186184,2129732,432,267,-2451,-1037,-569,-311,153,207,-471
43111,4063,0,2023-03-01T18:59:00.191220,2129737,432,267,-2451,-1037,-569,-311,153,207,-471
43112,4064,0,2023-03-01T18:59:00.195974,2129742,432,267,-2451,-1037,-569,-311,153,207,-471
43113,4065,0,2023-03-01T18:59:00.200654,2129747,433,271,-2458,-1030,-568,-316,153,207,-471
43114,4066,0,2023-03-01T18:59:00.206260,2129753,433,271,-2458,-1030,-568,-316,153,207,-471
43115,4067,0,2023-03-01T18:59:00.211444,2129758,433,271,-2458,-1030,-568,-316,153,207,-471
43116,4068,0,2023-03-01T18:59:00.216482,2129763,433,271,-2458,-1030,-568,-316,153,207,-471
43117,4069,0,2023-03-01T18:59:00.222026,2129768,429,264,-2457,-1024,-576,-321,153,207,-471
43118,4070,0,2023-03-01T18:59:00.227428,2129774,429,264,-2457,-1024,-576,-321,153,207,-471
43119,4071,0,2023-03-01T18:59:00.232588,2129778,429,264,-2457,-1024,-576,-321,153,207,-471
43120,4072,0,2023-03-01T18:59:00.237585,2129783,429,264,-2457,-1024,-576,-321,153,207,-471
43121,4073,0,2023-03-01T18:59:00.243232,2129789,432,263,-2455,-1032,-570,-312,153,207,-471
43122,4074,0,2023-03-01T18:59:00.249024,2129796,432,263,-2455,-1032,-570,-312,153,207,-471
43123,4075,0,2023-03-01T18:59:00.254321,2129801,432,263,-2455,-1032,-570,-312,153,207,-471
43124,4076,0,2023-03-01T18:59:00.259547,2129805,432,263,-2455,-1032,-570,-312,153,207,-471
43125,4077,0,2023-03-01T18:59:00.265070,2129811,430,260,-2454,-1039,-571,-320,153,207,-471
43126,4078,0,2023-03-01T18:59:00.271737,2129817,430,260,-2454,-1039,-571,-320,153,207,-471
43127,4079,0,2023-03-01T18:59:00.276807,2129823,430,260,-2454,-1039,-571,-320,153,207,-471
43128,4080,0,2023-03-01T18:59:00.282370,2129828,431,263,-2452,-1045,-564,-326,148,210,-482
43129,4081,0,2023-03-01T18:59:00.288580,2129835,431,263,-2452,-1045,-564,-326,148,210,-482
43130,4082,0,2023-03-01T18:59:00.294418,2129841,431,263,-2452,-1045,-564,-326,148,210,-482
43131,4083,0,2023-03-01T18:59:00.299584,2129846,431,263,-2452,-1045,-564,-326,148,210,-482
43132,4084,0,2023-03-01T18:59:00.306251,2129853,433,266,-2451,-1046,-553,-315,148,210,-482
43133,4085,0,2023-03-01T18:59:00.311583,2129858,433,266,-2451,-1046,-553,-315,148,210,-482
43134,4086,0,2023-03-01T18:59:00.316431,2129862,433,266,-2451,-1046,-553,-315,148,210,-482
43135,4087,0,2023-03-01T18:59:00.324461,2129870,435,269,-2456,-1043,-562,-321,148,210,-482
43136,4088,0,2023-03-01T18:59:00.330145,2129876,435,269,-2456,-1043,-562,-321,148,210,-482
43137,4089,0,2023-03-01T18:59:00.335777,2129882,435,269,-2456,-1043,-562,-321,148,210,-482
43138,4090,0,2023-03-01T18:59:00.341425,2129888,433,267,-2454,-1033,-574,-323,148,210,-482
43139,4091,0,2023-03-01T18:59:00.346748,2129893,433,267,-2454,-1033,-574,-323,148,210,-482
43140,4092,0,2023-03-01T18:59:00.352816,2129899,433,267,-2454,-1033,-574,-323,148,210,-482
43141,4093,0,2023-03-01T18:59:00.358195,2129904,433,267,-2454,-1033,-574,-323,148,210,-482
43142,4094,0,2023-03-01T18:59:00.364160,2129910,433,263,-2451,-1028,-576,-316,148,210,-482
43143,4095,0,2023-03-01T18:59:00.369509,2129915,433,263,-2451,-1028,-576,-316,148,210,-482
43144,4096,0,2023-03-01T18:59:00.374517,2129921,433,263,-2451,-1028,-576,-316,148,210,-482
43145,4097,0,2023-03-01T18:59:00.379362,2129926,433,263,-2451,-1028,-576,-316,148,210,-482
43146,4098,0,2023-03-01T18:59:00.384972,2129931,430,262,-2459,-1028,-575,-310,148,210,-482
43147,4099,0,2023-03-01T18:59:00.391195,2129937,430,262,-2459,-1028,-575,-310,148,210,-482
43148,4100,0,2023-03-01T18:59:00.396255,2129942,430,262,-2459,-1028,-575,-310,148,210,-482
43149,4101,0,2023-03-01T18:59:00.401711,2129948,430,260,-2457,-1032,-575,-319,148,210,-482
43150,4102,0,2023-03-01T18:59:00.406973,2129953,430,260,-2457,-1032,-575,-319,148,210,-482
43151,4103,0,2023-03-01T18:59:00.411810,2129958,430,260,-2457,-1032,-575,-319,148,210,-482
43152,4104,0,2023-03-01T18:59:00.416638,2129963,430,260,-2457,-1032,-575,-319,148,210,-482
43153,4105,0,2023-03-01T18:59:00.421689,2129968,432,263,-2445,-1049,-571,-317,154,208,-480
43154,4106,0,2023-03-01T18:59:00.428514,2129974,432,263,-2445,-1049,-571,-317,154,208,-480
43155,4107,0,2023-03-01T18:59:00.435050,2129981,432,263,-2445,-1049,-571,-317,154,208,-480
43156,4108,0,2023-03-01T18:59:00.440288,2129986,432,263,-2445,-1049,-571,-317,154,208,-480
43157,4109,0,2023-03-01T18:59:00.446130,2129992,433,268,-2457,-1050,-580,-321,154,208,-480
43158,4110,0,2023-03-01T18:59:00.452472,2129998,433,268,-2457,-1050,-580,-321,154,208,-480
43159,4111,0,2023-03-01T18:59:00.457559,2130003,433,268,-2457,-1050,-580,-321,154,208,-480
43160,4112,0,2023-03-01T18:59:00.463215,2130010,434,266,-2454,-1050,-574,-320,154,208,-480
43161,4113,0,2023-03-01T18:59:00.468835,2130015,434,266,-2454,-1050,-574,-320,154,208,-480
43162,4114,0,2023-03-01T18:59:00.474322,2130021,434,266,-2454,-1050,-574,-320,154,208,-480
43163,4115,0,2023-03-01T18:59:00.479127,2130025,434,266,-2454,-1050,-574,-320,154,208,-480
43164,4116,0,2023-03-01T18:59:00.484519,2130030,434,268,-2454,-1044,-571,-324,154,208,-480
43165,4117,0,2023-03-01T18:59:00.490231,2130036,434,268,-2454,-1044,-571,-324,154,208,-480
43166,4118,0,2023-03-01T18:59:00.495515,2130041,434,268,-2454,-1044,-571,-324,154,208,-480
43167,4119,0,2023-03-01T18:59:00.500766,2130048,433,266,-2454,-1030,-571,-320,154,208,-480
43168,4120,0,2023-03-01T18:59:00.506149,2130053,433,266,-2454,-1030,-571,-320,154,208,-480
43169,4121,0,2023-03-01T18:59:00.511172,2130058,433,266,-2454,-1030,-571,-320,154,208,-480
43170,4122,0,2023-03-01T18:59:00.515849,2130062,433,266,-2454,-1030,-571,-320,154,208,-480
43171,4123,0,2023-03-01T18:59:00.521379,2130068,431,263,-2454,-1031,-577,-322,154,208,-480
43172,4124,0,2023-03-01T18:59:00.527480,2130073,431,263,-2454,-1031,-577,-322,154,208,-480
43173,4125,0,2023-03-01T18:59:00.533028,2130079,431,263,-2454,-1031,-577,-322,154,208,-480
43174,4126,0,2023-03-01T18:59:00.538665,2130084,431,263,-2454,-1031,-577,-322,154,208,-480
43175,4127,0,2023-03-01T18:59:00.544649,2130091,428,263,-2459,-1032,-571,-319,150,204,-478
43176,4128,0,2023-03-01T18:59:00.551427,2130097,428,263,-2459,-1032,-571,-319,150,204,-478
43177,4129,0,2023-03-01T18:59:00.556070,2130103,428,263,-2459,-1032,-571,-319,150,204,-478
43178,4130,0,2023-03-01T18:59:00.561784,2130108,429,263,-2452,-1036,-570,-321,150,204,-478
43179,4131,0,2023-03-01T18:59:00.567316,2130113,429,263,-2452,-1036,-570,-321,150,204,-478
43180,4132,0,2023-03-01T18:59:00.573102,2130119,429,263,-2452,-1036,-570,-321,150,204,-478
43181,4133,0,2023-03-01T18:59:00.578242,2130124,429,263,-2452,-1036,-570,-321,150,204,-478
43182,4134,0,2023-03-01T18:59:00.583978,2130130,435,263,-2450,-1046,-566,-319,150,204,-478
43183,4135,0,2023-03-01T18:59:00.589442,2130136,435,263,-2450,-1046,-566,-319,150,204,-478
43184,4136,0,2023-03-01T18:59:00.594285,2130141,435,263,-2450,-1046,-566,-319,150,204,-478
43185,4137,0,2023-03-01T18:59:00.598946,2130145,435,263,-2450,-1046,-566,-319,150,204,-478
43186,4138,0,2023-03-01T18:59:00.604873,2130151,432,268,-2458,-1049,-574,-321,150,204,-478
43187,4139,0,2023-03-01T18:59:00.610817,2130157,432,268,-2458,-1049,-574,-321,150,204,-478
43188,4140,0,2023-03-01T18:59:00.616398,2130162,432,268,-2458,-1049,-574,-321,150,204,-478
43189,4141,0,2023-03-01T18:59:00.621879,2130168,434,267,-2457,-1049,-581,-324,150,204,-478
43190,4142,0,2023-03-01T18:59:00.628010,2130173,434,267,-2457,-1049,-581,-324,150,204,-478
43191,4143,0,2023-03-01T18:59:00.633765,2130180,434,267,-2457,-1049,-581,-324,150,204,-478
43192,4144,0,2023-03-01T18:59:00.638666,2130185,434,267,-2457,-1049,-581,-324,150,204,-478
43193,4145,0,2023-03-01T18:59:00.644075,2130191,434,267,-2456,-1041,-576,-324,150,204,-478
43194,4146,0,2023-03-01T18:59:00.651648,2130198,434,267,-2456,-1041,-576,-324,150,204,-478
43195,4147,0,2023-03-01T18:59:00.656716,2130203,434,267,-2456,-1041,-576,-324,150,204,-478
43196,4148,0,2023-03-01T18:59:00.663022,2130208,433,267,-2458,-1030,-568,-318,150,212,-478
43197,4149,0,2023-03-01T18:59:00.668855,2130214,433,267,-2458,-1030,-568,-318,150,212,-478
43198,4150,0,2023-03-01T18:59:00.674349,2130221,433,267,-2458,-1030,-568,-318,150,212,-478
43199,4151,0,2023-03-01T18:59:00.678975,2130226,433,267,-2458,-1030,-568,-318,150,212,-478
43200,4152,0,2023-03-01T18:59:00.684540,2130231,427,267,-2449,-1030,-576,-318,150,212,-478
43201,4153,0,2023-03-01T18:59:00.690425,2130237,427,267,-2449,-1030,-576,-318,150,212,-478
43202,4154,0,2023-03-01T18:59:00.696134,2130242,427,267,-2449,-1030,-576,-318,150,212,-478
43203,4155,0,2023-03-01T18:59:00.701928,2130248,430,267,-2455,-1037,-570,-321,150,212,-478
43204,4156,0,2023-03-01T18:59:00.707735,2130253,430,267,-2455,-1037,-570,-321,150,212,-478
43205,4157,0,2023-03-01T18:59:00.714886,2130260,430,267,-2455,-1037,-570,-321,150,212,-478
43206,4158,0,2023-03-01T18:59:00.720188,2130267,430,267,-2455,-1037,-570,-321,150,212,-478
43207,4159,0,2023-03-01T18:59:00.725964,2130272,435,266,-2459,-1035,-565,-323,150,212,-478
43208,4160,0,2023-03-01T18:59:00.731832,2130278,435,266,-2459,-1035,-565,-323,150,212,-478
43209,4161,0,2023-03-01T18:59:00.736787,2130283,435,266,-2459,-1035,-565,-323,150,212,-478
43210,4162,0,2023-03-01T18:59:00.742253,2130288,433,266,-2459,-1038,-572,-325,150,212,-478
43211,4163,0,2023-03-01T18:59:00.748034,2130294,433,266,-2459,-1038,-572,-325,150,212,-478
43212,4164,0,2023-03-01T18:59:00.754561,2130300,433,266,-2459,-1038,-572,-325,150,212,-478
43213,4165,0,2023-03-01T18:59:00.760381,2130307,433,266,-2459,-1038,-572,-325,150,212,-478
43214,4166,0,2023-03-01T18:59:00.766665,2130313,434,266,-2459,-1038,-572,-323,150,212,-478
43215,4167,0,2023-03-01T18:59:00.773986,2130319,434,266,-2459,-1038,-572,-323,150,212,-478
43216,4168,0,2023-03-01T18:59:00.779148,2130325,434,266,-2459,-1038,-572,-323,150,212,-478
43217,4169,0,2023-03-01T18:59:00.784981,2130331,432,268,-2457,-1033,-571,-324,150,212,-478
43218,4170,0,2023-03-01T18:59:00.791575,2130337,432,268,-2457,-1033,-571,-324,150,212,-478
43219,4171,0,2023-03-01T18:59:00.796457,2130342,432,268,-2457,-1033,-571,-324,150,212,-478
43220,4172,0,2023-03-01T18:59:00.802373,2130349,431,266,-2452,-1033,-577,-313,159,209,-473
43221,4173,0,2023-03-01T18:59:00.808255,2130355,431,266,-2452,-1033,-577,-313,159,209,-473
43222,4174,0,2023-03-01T18:59:00.813280,2130360,431,266,-2452,-1033,-577,-313,159,209,-473
43223,4175,0,2023-03-01T18:59:00.818595,2130364,431,266,-2452,-1033,-577,-313,159,209,-473
43224,4176,0,2023-03-01T18:59:00.823880,2130370,430,266,-2449,-1030,-580,-318,159,209,-473
43225,4177,0,2023-03-01T18:59:00.829957,2130376,430,266,-2449,-1030,-580,-318,159,209,-473
43226,4178,0,2023-03-01T18:59:00.835370,2130381,430,266,-2449,-1030,-580,-318,159,209,-473
43227,4179,0,2023-03-01T18:59:00.841383,2130387,430,266,-2449,-1030,-580,-318,159,209,-473
43228,4180,0,2023-03-01T18:59:00.846977,2130393,431,262,-2450,-1041,-581,-320,159,209,-473
43229,4181,0,2023-03-01T18:59:00.853084,2130399,431,262,-2450,-1041,-581,-320,159,209,-473
43230,4182,0,2023-03-01T18:59:00.858772,2130405,431,262,-2450,-1041,-581,-320,159,209,-473
43231,4183,0,2023-03-01T18:59:00.863938,2130410,435,263,-2459,-1034,-570,-320,159,209,-473
43232,4184,0,2023-03-01T18:59:00.872614,2130418,435,263,-2459,-1034,-570,-320,159,209,-473
43233,4185,0,2023-03-01T18:59:00.878913,2130424,435,263,-2459,-1034,-570,-320,159,209,-473
43234,4186,0,2023-03-01T18:59:00.885684,2130432,433,264,-2459,-1047,-567,-321,159,209,-473
43235,4187,0,2023-03-01T18:59:00.892987,2130439,433,264,-2459,-1047,-567,-321,159,209,-473
43236,4188,0,2023-03-01T18:59:00.897961,2130444,433,264,-2459,-1047,-567,-321,159,209,-473
43237,4189,0,2023-03-01T18:59:00.903614,2130450,437,267,-2454,-1047,-578,-322,159,209,-473
43238,4190,0,2023-03-01T18:59:00.909250,2130455,437,267,-2454,-1047,-578,-322,159,209,-473
43239,4191,0,2023-03-01T18:59:00.915387,2130461,437,267,-2454,-1047,-578,-322,159,209,-473
43240,4192,0,2023-03-01T18:59:00.920460,2130466,437,267,-2454,-1047,-578,-322,159,209,-473
43241,4193,0,2023-03-01T18:59:00.925936,2130472,434,270,-2451,-1044,-575,-321,144,210,-474
43242,4194,0,2023-03-01T18:59:00.932950,2130479,434,270,-2451,-1044,-575,-321,144,210,-474
43243,4195,0,2023-03-01T18:59:00.938031,2130484,434,270,-2451,-1044,-575,-321,144,210,-474
43244,4196,0,2023-03-01T18:59:00.943354,2130489,430,264,-2454,-1035,-577,-322,144,210,-474
43245,4197,0,2023-03-01T18:59:00.949213,2130495,430,264,-2454,-1035,-577,-322,144,210,-474
43246,4198,0,2023-03-01T18:59:00.955123,2130501,430,264,-2454,-1035,-577,-322,144,210,-474
43247,4199,0,2023-03-01T18:59:00.960224,2130506,430,264,-2454,-1035,-577,-322,144,210,-474
43248,4200,0,2023-03-01T18:59:00.965960,2130512,432,266,-2456,-1036,-571,-321,144,210,-474
43249,4201,0,2023-03-01T18:59:00.972416,2130519,432,266,-2456,-1036,-571,-321,144,210,-474
43250,4202,0,2023-03-01T18:59:00.977732,2130524,432,266,-2456,-1036,-571,-321,144,210,-474
43251,4203,0,2023-03-01T18:59:00.983318,2130530,434,264,-2454,-1041,-573,-324,144,210,-474
43252,4204,0,2023-03-01T18:59:00.989068,2130535,434,264,-2454,-1041,-573,-324,144,210,-474
43253,4205,0,2023-03-01T18:59:00.994033,2130540,434,264,-2454,-1041,-573,-324,144,210,-474
43254,4206,0,2023-03-01T18:59:00.999385,2130545,434,264,-2454,-1041,-573,-324,144,210,-474
43255,4207,0,2023-03-01T18:59:01.005253,2130551,431,265,-2453,-1038,-570,-316,144,210,-474
43256,4208,0,2023-03-01T18:59:01.011465,2130557,431,265,-2453,-1038,-570,-316,144,210,-474
43257,4209,0,2023-03-01T18:59:01.016396,2130563,431,265,-2453,-1038,-570,-316,144,210,-474
43258,4210,0,2023-03-01T18:59:01.022510,2130569,432,263,-2453,-1038,-575,-318,144,210,-474
43259,4211,0,2023-03-01T18:59:01.028516,2130575,432,263,-2453,-1038,-575,-318,144,210,-474
43260,4212,0,2023-03-01T18:59:01.034048,2130580,432,263,-2453,-1038,-575,-318,144,210,-474
43261,4213,0,2023-03-01T18:59:01.038770,2130585,432,263,-2453,-1038,-575,-318,144,210,-474
43262,4214,0,2023-03-01T18:59:01.044636,2130590,435,264,-2456,-1044,-574,-321,144,210,-474
43263,4215,0,2023-03-01T18:59:01.050175,2130596,435,264,-2456,-1044,-574,-321,144,210,-474
43264,4216,0,2023-03-01T18:59:01.055406,2130601,435,264,-2456,-1044,-574,-321,144,210,-474
43265,4217,0,2023-03-01T18:59:01.060602,2130607,435,264,-2456,-1044,-574,-321,144,210,-474
43266,4218,0,2023-03-01T18:59:01.066247,2130613,432,269,-2452,-1039,-575,-319,147,203,-477
43267,4219,0,2023-03-01T18:59:01.072198,2130618,432,269,-2452,-1039,-575,-319,147,203,-477
43268,4220,0,2023-03-01T18:59:01.077423,2130623,432,269,-2452,-1039,-575,-319,147,203,-477
43269,4221,0,2023-03-01T18:59:01.083362,2130629,434,266,-2454,-1036,-577,-319,147,203,-477
43270,4222,0,2023-03-01T18:59:01.089562,2130635,434,266,-2454,-1036,-577,-319,147,203,-477
43271,4223,0,2023-03-01T18:59:01.095243,2130641,434,266,-2454,-1036,-577,-319,147,203,-477
43272,4224,0,2023-03-01T18:59:01.100950,2130647,434,266,-2454,-1036,-577,-319,147,203,-477
43273,4225,0,2023-03-01T18:59:01.106626,2130653,431,266,-2460,-1035,-577,-320,147,203,-477
43274,4226,0,2023-03-01T18:59:01.112892,2130659,431,266,-2460,-1035,-577,-320,147,203,-477
43275,4227,0,2023-03-01T18:59:01.118145,2130665,431,266,-2460,-1035,-577,-320,147,203,-477
43276,4228,0,2023-03-01T18:59:01.122922,2130669,432,263,-2450,-1025,-578,-311,147,203,-477
43277,4229,0,2023-03-01T18:59:01.128464,2130674,432,263,-2450,-1025,-578,-311,147,203,-477
43278,4230,0,2023-03-01T18:59:01.134005,2130680,432,263,-2450,-1025,-578,-311,147,203,-477
43279,4231,0,2023-03-01T18:59:01.139687,2130685,432,263,-2450,-1025,-578,-311,147,203,-477
43280,4232,0,2023-03-01T18:59:01.145189,2130692,432,264,-2459,-1033,-572,-319,147,203,-477
43281,4233,0,2023-03-01T18:59:01.151981,2130698,432,264,-2459,-1033,-572,-319,147,203,-477
43282,4234,0,2023-03-01T18:59:01.156945,2130703,432,264,-2459,-1033,-572,-319,147,203,-477
43283,4235,0,2023-03-01T18:59:01.162211,2130709,435,262,-2454,-1030,-569,-319,147,203,-477
43284,4236,0,2023-03-01T18:59:01.168824,2130715,435,262,-2454,-1030,-569,-319,147,203,-477
43285,4237,0,2023-03-01T18:59:01.173927,2130720,435,262,-2454,-1030,-569,-319,147,203,-477
43286,4238,0,2023-03-01T18:59:01.179031,2130725,435,262,-2454,-1030,-569,-319,147,203,-477
43287,4239,0,2023-03-01T18:59:01.184870,2130731,431,267,-2450,-1041,-580,-320,158,208,-480
43288,4240,0,2023-03-01T18:59:01.190780,2130737,431,267,-2450,-1041,-580,-320,158,208,-480
43289,4241,0,2023-03-01T18:59:01.197197,2130743,431,267,-2450,-1041,-580,-320,158,208,-480
43290,4242,0,2023-03-01T18:59:01.203091,2130749,430,265,-2450,-1045,-570,-312,158,208,-480
43291,4243,0,2023-03-01T18:59:01.208408,2130755,430,265,-2450,-1045,-570,-312,158,208,-480
43292,4244,0,2023-03-01T18:59:01.213823,2130759,430,265,-2450,-1045,-570,-312,158,208,-480
43293,4245,0,2023-03-01T18:59:01.219030,2130765,430,265,-2450,-1045,-570,-312,158,208,-480
43294,4246,0,2023-03-01T18:59:01.224364,2130770,434,265,-2454,-1030,-568,-319,158,208,-480
43295,4247,0,2023-03-01T18:59:01.230209,2130777,434,265,-2454,-1030,-568,-319,158,208,-480
43296,4248,0,2023-03-01T18:59:01.235840,2130782,434,265,-2454,-1030,-568,-319,158,208,-480
43297,4249,0,2023-03-01T18:59:01.241117,2130788,434,265,-2454,-1030,-568,-319,158,208,-480
43298,4250,0,2023-03-01T18:59:01.246161,2130792,434,265,-2454,-1030,-568,-319,158,208,-480
43299,4251,0,2023-03-01T18:59:01.251179,2130797,434,265,-2454,-1030,-568,-319,158,208,-480
43300,4252,0,2023-03-01T18:59:01.255875,2130802,434,265,-2454,-1030,-568,-319,158,208,-480
43301,4253,0,2023-03-01T18:59:01.261055,2130807,434,265,-2454,-1030,-568,-319,158,208,-480
43302,4254,0,2023-03-01T18:59:01.265874,2130812,429,268,-2455,-1033,-569,-327,158,208,-480
43303,4255,0,2023-03-01T18:59:01.271329,2130818,429,268,-2455,-1033,-569,-327,158,208,-480
43304,4256,0,2023-03-01T18:59:01.276376,2130823,429,268,-2455,-1033,-569,-327,158,208,-480
43305,4257,0,2023-03-01T18:59:01.281726,2130828,429,268,-2455,-1033,-569,-327,158,208,-480
43306,4258,0,2023-03-01T18:59:01.287077,2130833,429,268,-2455,-1033,-569,-327,158,208,-480
43307,4259,0,2023-03-01T18:59:01.292410,2130839,429,268,-2455,-1033,-569,-327,158,208,-480
43308,4260,0,2023-03-01T18:59:01.297335,2130843,429,268,-2455,-1033,-569,-327,158,208,-480
43309,4261,0,2023-03-01T18:59:01.302946,2130849,430,267,-2455,-1037,-570,-316,158,208,-480
43310,4262,0,2023-03-01T18:59:01.308631,2130854,430,267,-2455,-1037,-570,-316,158,208,-480
43311,4263,0,2023-03-01T18:59:01.314847,2130861,430,267,-2455,-1037,-570,-316,158,208,-480
43312,4264,0,2023-03-01T18:59:01.320343,2130867,430,267,-2455,-1037,-570,-316,158,208,-480
43313,4265,0,2023-03-01T18:59:01.326048,2130872,431,267,-2446,-1037,-573,-318,147,207,-473
43314,4266,0,2023-03-01T18:59:01.332362,2130878,431,267,-2446,-1037,-573,-318,147,207,-473
43315,4267,0,2023-03-01T18:59:01.337792,2130883,431,267,-2446,-1037,-573,-318,147,207,-473
43316,4268,0,2023-03-01T18:59:01.344222,2130890,433,265,-2453,-1035,-576,-325,147,207,-473
43317,4269,0,2023-03-01T18:59:01.350171,2130896,433,265,-2453,-1035,-576,-325,147,207,-473
43318,4270,0,2023-03-01T18:59:01.356227,2130903,433,265,-2453,-1035,-576,-325,147,207,-473
43319,4271,0,2023-03-01T18:59:01.361653,2130908,433,265,-2453,-1035,-576,-325,147,207,-473
43320,4272,0,2023-03-01T18:59:01.366439,2130913,433,264,-2460,-1046,-575,-325,147,207,-473
43321,4273,0,2023-03-01T18:59:01.372167,2130918,433,264,-2460,-1046,-575,-325,147,207,-473
43322,4274,0,2023-03-01T18:59:01.377292,2130924,433,264,-2460,-1046,-575,-325,147,207,-473
43323,4275,0,2023-03-01T18:59:01.382681,2130929,435,267,-2450,-1028,-559,-318,147,207,-473
43324,4276,0,2023-03-01T18:59:01.387324,2130933,435,267,-2450,-1028,-559,-318,147,207,-473
43325,4277,0,2023-03-01T18:59:01.392580,2130938,435,267,-2450,-1028,-559,-318,147,207,-473
43326,4278,0,2023-03-01T18:59:01.397724,2130944,435,267,-2450,-1028,-559,-318,147,207,-473
43327,4279,0,2023-03-01T18:59:01.403860,2130950,431,266,-2457,-1036,-574,-327,147,207,-473
43328,4280,0,2023-03-01T18:59:01.409146,2130956,431,266,-2457,-1036,-574,-327,147,207,-473
43329,4281,0,2023-03-01T18:59:01.415477,2130961,431,266,-2457,-1036,-574,-327,147,207,-473
43330,4282,0,2023-03-01T18:59:01.421963,2130968,431,266,-2457,-1036,-574,-327,147,207,-473
43331,4283,0,2023-03-01T18:59:01.427925,2130974,431,266,-2458,-1034,-577,-321,147,207,-473
43332,4284,0,2023-03-01T18:59:01.434111,2130980,431,266,-2458,-1034,-577,-321,147,207,-473
43333,4285,0,2023-03-01T18:59:01.439239,2130985,431,266,-2458,-1034,-577,-321,147,207,-473
43334,4286,0,2023-03-01T18:59:01.445117,2130992,433,265,-2449,-1033,-571,-325,155,209,-469
43335,4287,0,2023-03-01T18:59:01.450633,2130997,433,265,-2449,-1033,-571,-325,155,209,-469
43336,4288,0,2023-03-01T18:59:01.455677,2131002,433,265,-2449,-1033,-571,-325,155,209,-469
43337,4289,0,2023-03-01T18:59:01.461379,2131007,433,265,-2449,-1033,-571,-325,155,209,-469
43338,4290,0,2023-03-01T18:59:01.466591,2131012,433,262,-2458,-1042,-577,-320,155,209,-469
43339,4291,0,2023-03-01T18:59:01.472357,2131018,433,262,-2458,-1042,-577,-320,155,209,-469
43340,4292,0,2023-03-01T18:59:01.477985,2131023,433,262,-2458,-1042,-577,-320,155,209,-469
43341,4293,0,2023-03-01T18:59:01.483559,2131030,431,265,-2456,-1044,-574,-314,155,209,-469
43342,4294,0,2023-03-01T18:59:01.489668,2131036,431,265,-2456,-1044,-574,-314,155,209,-469
43343,4295,0,2023-03-01T18:59:01.494709,2131041,431,265,-2456,-1044,-574,-314,155,209,-469
43344,4296,0,2023-03-01T18:59:01.499929,2131046,431,265,-2456,-1044,-574,-314,155,209,-469
43345,4297,0,2023-03-01T18:59:01.505670,2131052,430,267,-2454,-1037,-573,-322,155,209,-469
43346,4298,0,2023-03-01T18:59:01.512284,2131058,430,267,-2454,-1037,-573,-322,155,209,-469
43347,4299,0,2023-03-01T18:59:01.517038,2131063,430,267,-2454,-1037,-573,-322,155,209,-469
43348,4300,0,2023-03-01T18:59:01.523283,2131068,432,265,-2458,-1045,-570,-323,155,209,-469
43349,4301,0,2023-03-01T18:59:01.530813,2131078,432,265,-2458,-1045,-570,-323,155,209,-469
43350,4302,0,2023-03-01T18:59:01.535707,2131082,432,265,-2458,-1045,-570,-323,155,209,-469
43351,4303,0,2023-03-01T18:59:01.541224,2131088,432,265,-2458,-1045,-570,-323,155,209,-469
43352,4304,0,2023-03-01T18:59:01.546422,2131093,430,268,-2460,-1036,-564,-318,155,209,-469
43353,4305,0,2023-03-01T18:59:01.552770,2131099,430,268,-2460,-1036,-564,-318,155,209,-469
43354,4306,0,2023-03-01T18:59:01.557499,2131103,430,268,-2460,-1036,-564,-318,155,209,-469
43355,4307,0,2023-03-01T18:59:01.563091,2131109,434,269,-2452,-1030,-566,-321,154,208,-480
43356,4308,0,2023-03-01T18:59:01.568785,2131115,434,269,-2452,-1030,-566,-321,154,208,-480
43357,4309,0,2023-03-01T18:59:01.573640,2131120,434,269,-2452,-1030,-566,-321,154,208,-480
43358,4310,0,2023-03-01T18:59:01.578424,2131125,434,269,-2452,-1030,-566,-321,154,208,-480
43359,4311,0,2023-03-01T18:59:01.584187,2131130,435,264,-2451,-1039,-575,-319,154,208,-480
43360,4312,0,2023-03-01T18:59:01.589619,2131136,435,264,-2451,-1039,-575,-319,154,208,-480
43361,4313,0,2023-03-01T18:59:01.595000,2131141,435,264,-2451,-1039,-575,-319,154,208,-480
43362,4314,0,2023-03-01T18:59:01.600820,2131146,435,264,-2451,-1039,-575,-319,154,208,-480
43363,4315,0,2023-03-01T18:59:01.606341,2131152,432,264,-2453,-1035,-576,-311,154,208,-480
43364,4316,0,2023-03-01T18:59:01.611994,2131159,432,264,-2453,-1035,-576,-311,154,208,-480
43365,4317,0,2023-03-01T18:59:01.616878,2131163,432,264,-2453,-1035,-576,-311,154,208,-480
43366,4318,0,2023-03-01T18:59:01.623525,2131169,434,264,-2456,-1038,-576,-318,154,208,-480
43367,4319,0,2023-03-01T18:59:01.629537,2131176,434,264,-2456,-1038,-576,-318,154,208,-480
43368,4320,0,2023-03-01T18:59:01.634995,2131181,434,264,-2456,-1038,-576,-318,154,208,-480
43369,4321,0,2023-03-01T18:59:01.640108,2131186,434,264,-2456,-1038,-576,-318,154,208,-480
43370,4322,0,2023-03-01T18:59:01.645800,2131192,430,266,-2451,-1034,-575,-321,154,208,-480
43371,4323,0,2023-03-01T18:59:01.651025,2131197,430,266,-2451,-1034,-575,-321,154,208,-480
43372,4324,0,2023-03-01T18:59:01.656105,2131203,430,266,-2451,-1034,-575,-321,154,208,-480
43373,4325,0,2023-03-01T18:59:01.661924,2131208,430,266,-2451,-1034,-575,-321,154,208,-480
43374,4326,0,2023-03-01T18:59:01.667034,2131213,432,266,-2451,-1044,-571,-320,154,208,-480
43375,4327,0,2023-03-01T18:59:01.673008,2131219,432,266,-2451,-1044,-571,-320,154,208,-480
43376,4328,0,2023-03-01T18:59:01.677987,2131224,432,266,-2451,-1044,-571,-320,154,208,-480
43377,4329,0,2023-03-01T18:59:01.683487,2131229,433,266,-2451,-1040,-573,-327,154,208,-480
43378,4330,0,2023-03-01T18:59:01.689384,2131235,433,266,-2451,-1040,-573,-327,154,208,-480
43379,4331,0,2023-03-01T18:59:01.694269,2131240,433,266,-2451,-1040,-573,-327,154,208,-480
43380,4332,0,2023-03-01T18:59:01.699052,2131246,433,266,-2451,-1040,-573,-327,154,208,-480
43381,4333,0,2023-03-01T18:59:01.704598,2131251,435,265,-2448,-1039,-577,-323,144,216,-480
43382,4334,0,2023-03-01T18:59:01.710423,2131257,435,265,-2448,-1039,-577,-323,144,216,-480
43383,4335,0,2023-03-01T18:59:01.715297,2131262,435,265,-2448,-1039,-577,-323,144,216,-480
43384,4336,0,2023-03-01T18:59:01.720234,2131266,435,265,-2448,-1039,-577,-323,144,216,-480
43385,4337,0,2023-03-01T18:59:01.725922,2131272,427,266,-2455,-1037,-570,-322,144,216,-480
43386,4338,0,2023-03-01T18:59:01.732296,2131278,427,266,-2455,-1037,-570,-322,144,216,-480
43387,4339,0,2023-03-01T18:59:01.737230,2131283,427,266,-2455,-1037,-570,-322,144,216,-480
43388,4340,0,2023-03-01T18:59:01.742920,2131289,428,264,-2452,-1043,-572,-318,144,216,-480
43389,4341,0,2023-03-01T18:59:01.748662,2131295,428,264,-2452,-1043,-572,-318,144,216,-480
43390,4342,0,2023-03-01T18:59:01.754579,2131301,428,264,-2452,-1043,-572,-318,144,216,-480
43391,4343,0,2023-03-01T18:59:01.759644,2131306,428,264,-2452,-1043,-572,-318,144,216,-480
43392,4344,0,2023-03-01T18:59:01.765185,2131311,435,264,-2456,-1040,-573,-321,144,216,-480
43393,4345,0,2023-03-01T18:59:01.770823,2131316,435,264,-2456,-1040,-573,-321,144,216,-480
43394,4346,0,2023-03-01T18:59:01.775628,2131321,435,264,-2456,-1040,-573,-321,144,216,-480
43395,4347,0,2023-03-01T18:59:01.781415,2131328,435,264,-2456,-1040,-573,-321,144,216,-480
43396,4348,0,2023-03-01T18:59:01.786278,2131333,435,267,-2455,-1037,-574,-322,144,216,-480
43397,4349,0,2023-03-01T18:59:01.792056,2131339,435,267,-2455,-1037,-574,-322,144,216,-480
43398,4350,0,2023-03-01T18:59:01.797130,2131343,435,267,-2455,-1037,-574,-322,144,216,-480
43399,4351,0,2023-03-01T18:59:01.803046,2131350,432,269,-2456,-1047,-578,-319,144,216,-480
43400,4352,0,2023-03-01T18:59:01.808745,2131355,432,269,-2456,-1047,-578,-319,144,216,-480
43401,4353,0,2023-03-01T18:59:01.813767,2131360,432,269,-2456,-1047,-578,-319,144,216,-480
43402,4354,0,2023-03-01T18:59:01.819137,2131365,432,269,-2456,-1047,-578,-319,144,216,-480
43403,4355,0,2023-03-01T18:59:01.825096,2131372,431,268,-2453,-1041,-567,-319,150,210,-480
43404,4356,0,2023-03-01T18:59:01.830974,2131378,431,268,-2453,-1041,-567,-319,150,210,-480
43405,4357,0,2023-03-01T18:59:01.836369,2131383,431,268,-2453,-1041,-567,-319,150,210,-480
43406,4358,0,2023-03-01T18:59:01.841574,2131388,431,268,-2453,-1041,-567,-319,150,210,-480
43407,4359,0,2023-03-01T18:59:01.846719,2131393,430,266,-2450,-1041,-574,-317,150,210,-480
43408,4360,0,2023-03-01T18:59:01.853523,2131399,430,266,-2450,-1041,-574,-317,150,210,-480
43409,4361,0,2023-03-01T18:59:01.858620,2131404,430,266,-2450,-1041,-574,-317,150,210,-480
43410,4362,0,2023-03-01T18:59:01.864532,2131410,434,267,-2457,-1044,-572,-316,150,210,-480
43411,4363,0,2023-03-01T18:59:01.870303,2131417,434,267,-2457,-1044,-572,-316,150,210,-480
43412,4364,0,2023-03-01T18:59:01.876817,2131423,434,267,-2457,-1044,-572,-316,150,210,-480
43413,4365,0,2023-03-01T18:59:01.882528,2131429,434,267,-2457,-1044,-572,-316,150,210,-480
43414,4366,0,2023-03-01T18:59:01.887695,2131434,433,266,-2456,-1031,-577,-312,150,210,-480
43415,4367,0,2023-03-01T18:59:01.895060,2131441,433,266,-2456,-1031,-577,-312,150,210,-480
43416,4368,0,2023-03-01T18:59:01.899697,2131446,433,266,-2456,-1031,-577,-312,150,210,-480
43417,4369,0,2023-03-01T18:59:01.905580,2131451,430,265,-2452,-1034,-575,-319,150,210,-480
43418,4370,0,2023-03-01T18:59:01.911481,2131458,430,265,-2452,-1034,-575,-319,150,210,-480
43419,4371,0,2023-03-01T18:59:01.916184,2131463,430,265,-2452,-1034,-575,-319,150,210,-480
43420,4372,0,2023-03-01T18:59:01.922048,2131468,430,265,-2452,-1034,-575,-319,150,210,-480
43421,4373,0,2023-03-01T18:59:01.927220,2131473,431,265,-2458,-1034,-576,-317,150,210,-480
43422,4374,0,2023-03-01T18:59:01.933972,2131480,431,265,-2458,-1034,-576,-317,150,210,-480
43423,4375,0,2023-03-01T18:59:01.938933,2131485,431,265,-2458,-1034,-576,-317,150,210,-480
43424,4376,0,2023-03-01T18:59:01.944537,2131490,432,266,-2452,-1045,-571,-320,150,210,-480
43425,4377,0,2023-03-01T18:59:01.950120,2131496,432,266,-2452,-1045,-571,-320,150,210,-480
43426,4378,0,2023-03-01T18:59:01.955147,2131502,432,266,-2452,-1045,-571,-320,150,210,-480
43427,4379,0,2023-03-01T18:59:01.959949,2131506,432,266,-2452,-1045,-571,-320,150,210,-480
43428,4380,0,2023-03-01T18:59:01.966231,2131512,432,266,-2456,-1046,-576,-327,150,208,-482
43429,4381,0,2023-03-01T18:59:01.972448,2131519,432,266,-2456,-1046,-576,-327,150,208,-482
43430,4382,0,2023-03-01T18:59:01.977233,2131523,432,266,-2456,-1046,-576,-327,150,208,-482
43431,4383,0,2023-03-01T18:59:01.982658,2131529,430,269,-2459,-1037,-570,-326,150,208,-482
43432,4384,0,2023-03-01T18:59:01.987729,2131534,430,269,-2459,-1037,-570,-326,150,208,-482
43433,4385,0,2023-03-01T18:59:01.993032,2131538,430,269,-2459,-1037,-570,-326,150,208,-482
43434,4386,0,2023-03-01T18:59:01.998488,2131545,430,269,-2459,-1037,-570,-326,150,208,-482
43435,4387,0,2023-03-01T18:59:02.004064,2131551,433,264,-2462,-1037,-575,-323,150,208,-482
43436,4388,0,2023-03-01T18:59:02.009639,2131556,433,264,-2462,-1037,-575,-323,150,208,-482
43437,4389,0,2023-03-01T18:59:02.014764,2131561,433,264,-2462,-1037,-575,-323,150,208,-482
43438,4390,0,2023-03-01T18:59:02.019519,2131566,433,264,-2462,-1037,-575,-323,150,208,-482
43439,4391,0,2023-03-01T18:59:02.024770,2131571,432,267,-2454,-1047,-580,-320,150,208,-482
43440,4392,0,2023-03-01T18:59:02.030506,2131576,432,267,-2454,-1047,-580,-320,150,208,-482
43441,4393,0,2023-03-01T18:59:02.035455,2131581,432,267,-2454,-1047,-580,-320,150,208,-482
43442,4394,0,2023-03-01T18:59:02.040756,2131587,432,267,-2454,-1047,-580,-320,150,208,-482
43443,4395,0,2023-03-01T18:59:02.045874,2131592,430,270,-2455,-1045,-578,-320,150,208,-482
43444,4396,0,2023-03-01T18:59:02.051390,2131598,430,270,-2455,-1045,-578,-320,150,208,-482
43445,4397,0,2023-03-01T18:59:02.056194,2131602,430,270,-2455,-1045,-578,-320,150,208,-482
43446,4398,0,2023-03-01T18:59:02.061825,2131608,430,270,-2455,-1045,-578,-320,150,208,-482
43447,4399,0,2023-03-01T18:59:02.067083,2131613,430,269,-2456,-1038,-568,-320,150,208,-482
43448,4400,0,2023-03-01T18:59:02.072578,2131618,430,269,-2456,-1038,-568,-320,150,208,-482
43449,4401,0,2023-03-01T18:59:02.078227,2131623,430,269,-2456,-1038,-568,-320,150,208,-482
43450,4402,0,2023-03-01T18:59:02.085878,2131632,431,264,-2447,-1036,-573,-321,150,208,-472
43451,4403,0,2023-03-01T18:59:02.091984,2131638,431,264,-2447,-1036,-573,-321,150,208,-472
43452,4404,0,2023-03-01T18:59:02.097086,2131643,431,264,-2447,-1036,-573,-321,150,208,-472
43453,4405,0,2023-03-01T18:59:02.103201,2131649,428,264,-2450,-1038,-578,-320,150,208,-472
43454,4406,0,2023-03-01T18:59:02.109086,2131655,428,264,-2450,-1038,-578,-320,150,208,-472
43455,4407,0,2023-03-01T18:59:02.115096,2131661,428,264,-2450,-1038,-578,-320,150,208,-472
43456,4408,0,2023-03-01T18:59:02.120955,2131666,428,264,-2450,-1038,-578,-320,150,208,-472
43457,4409,0,2023-03-01T18:59:02.127407,2131674,433,264,-2456,-1043,-565,-319,150,208,-472
43458,4410,0,2023-03-01T18:59:02.134127,2131681,433,264,-2456,-1043,-565,-319,150,208,-472
43459,4411,0,2023-03-01T18:59:02.139260,2131685,433,264,-2456,-1043,-565,-319,150,208,-472
43460,4412,0,2023-03-01T18:59:02.145136,2131691,432,266,-2453,-1037,-568,-323,150,208,-472
43461,4413,0,2023-03-01T18:59:02.150793,2131697,432,266,-2453,-1037,-568,-323,150,208,-472
43462,4414,0,2023-03-01T18:59:02.156867,2131703,432,266,-2453,-1037,-568,-323,150,208,-472
43463,4415,0,2023-03-01T18:59:02.162432,2131708,432,266,-2453,-1037,-568,-323,150,208,-472
43464,4416,0,2023-03-01T18:59:02.167712,2131714,435,266,-2460,-1041,-584,-327,150,208,-472
43465,4417,0,2023-03-01T18:59:02.174454,2131721,435,266,-2460,-1041,-584,-327,150,208,-472
43466,4418,0,2023-03-01T18:59:02.179430,2131726,435,266,-2460,-1041,-584,-327,150,208,-472
43467,4419,0,2023-03-01T18:59:02.185725,2131732,435,266,-2455,-1046,-578,-329,150,208,-472
43468,4420,0,2023-03-01T18:59:02.192672,2131739,435,266,-2455,-1046,-578,-329,150,208,-472
43469,4421,0,2023-03-01T18:59:02.198134,2131744,435,266,-2455,-1046,-578,-329,150,208,-472
43470,4422,0,2023-03-01T18:59:02.204379,2131750,434,263,-2456,-1041,-580,-322,150,208,-472
43471,4423,0,2023-03-01T18:59:02.210242,2131757,434,263,-2456,-1041,-580,-322,150,208,-472
43472,4424,0,2023-03-01T18:59:02.215625,2131762,434,263,-2456,-1041,-580,-322,150,208,-472
43473,4425,0,2023-03-01T18:59:02.220603,2131767,434,263,-2456,-1041,-580,-322,150,208,-472
43474,4426,0,2023-03-01T18:59:02.226511,2131773,431,266,-2449,-1042,-584,-317,149,207,-481
43475,4427,0,2023-03-01T18:59:02.233402,2131779,431,266,-2449,-1042,-584,-317,149,207,-481
43476,4428,0,2023-03-01T18:59:02.238657,2131784,431,266,-2449,-1042,-584,-317,149,207,-481
43477,4429,0,2023-03-01T18:59:02.244411,2131790,435,267,-2450,-1041,-574,-319,149,207,-481
43478,4430,0,2023-03-01T18:59:02.250200,2131796,435,267,-2450,-1041,-574,-319,149,207,-481
43479,4431,0,2023-03-01T18:59:02.255465,2131802,435,267,-2450,-1041,-574,-319,149,207,-481
43480,4432,0,2023-03-01T18:59:02.261104,2131807,435,267,-2450,-1041,-574,-319,149,207,-481
43481,4433,0,2023-03-01T18:59:02.267746,2131813,432,265,-2450,-1038,-574,-319,149,207,-481
43482,4434,0,2023-03-01T18:59:02.274215,2131820,432,265,-2450,-1038,-574,-319,149,207,-481
43483,4435,0,2023-03-01T18:59:02.279179,2131825,432,265,-2450,-1038,-574,-319,149,207,-481
43484,4436,0,2023-03-01T18:59:02.285543,2131831,433,265,-2453,-1041,-574,-325,149,207,-481
43485,4437,0,2023-03-01T18:59:02.291259,2131837,433,265,-2453,-1041,-574,-325,149,207,-481
43486,4438,0,2023-03-01T18:59:02.296356,2131843,433,265,-2453,-1041,-574,-325,149,207,-481
43487,4439,0,2023-03-01T18:59:02.303553,2131850,432,268,-2461,-1048,-577,-327,149,207,-481
43488,4440,0,2023-03-01T18:59:02.309437,2131856,432,268,-2461,-1048,-577,-327,149,207,-481
43489,4441,0,2023-03-01T18:59:02.315984,2131861,432,268,-2461,-1048,-577,-327,149,207,-481
43490,4442,0,2023-03-01T18:59:02.320831,2131867,432,268,-2461,-1048,-577,-327,149,207,-481
43491,4443,0,2023-03-01T18:59:02.326904,2131873,433,263,-2452,-1039,-572,-323,149,207,-481
43492,4444,0,2023-03-01T18:59:02.332695,2131878,433,263,-2452,-1039,-572,-323,149,207,-481
43493,4445,0,2023-03-01T18:59:02.338032,2131884,433,263,-2452,-1039,-572,-323,149,207,-481
43494,4446,0,2023-03-01T18:59:02.343920,2131890,430,264,-2447,-1040,-577,-321,146,208,-478
43495,4447,0,2023-03-01T18:59:02.349867,2131896,430,264,-2447,-1040,-577,-321,146,208,-478
43496,4448,0,2023-03-01T18:59:02.355023,2131901,430,264,-2447,-1040,-577,-321,146,208,-478
43497,4449,0,2023-03-01T18:59:02.360472,2131906,430,264,-2447,-1040,-577,-321,146,208,-478
43498,4450,0,2023-03-01T18:59:02.366676,2131912,431,268,-2452,-1050,-584,-315,146,208,-478
43499,4451,0,2023-03-01T18:59:02.373317,2131919,431,268,-2452,-1050,-584,-315,146,208,-478
43500,4452,0,2023-03-01T18:59:02.378885,2131924,431,268,-2452,-1050,-584,-315,146,208,-478
43501,4453,0,2023-03-01T18:59:02.383836,2131930,433,267,-2450,-1048,-580,-316,146,208,-478
43502,4454,0,2023-03-01T18:59:02.389867,2131936,433,267,-2450,-1048,-580,-316,146,208,-478
43503,4455,0,2023-03-01T18:59:02.395458,2131942,433,267,-2450,-1048,-580,-316,146,208,-478
43504,4456,0,2023-03-01T18:59:02.400510,2131947,433,267,-2450,-1048,-580,-316,146,208,-478
43505,4457,0,2023-03-01T18:59:02.405597,2131951,430,267,-2453,-1032,-572,-315,146,208,-478
43506,4458,0,2023-03-01T18:59:02.410776,2131956,430,267,-2453,-1032,-572,-315,146,208,-478
43507,4459,0,2023-03-01T18:59:02.415927,2131962,430,267,-2453,-1032,-572,-315,146,208,-478
43508,4460,0,2023-03-01T18:59:02.422058,2131969,430,267,-2453,-1032,-572,-315,146,208,-478
43509,4461,0,2023-03-01T18:59:02.426987,2131973,432,265,-2453,-1036,-572,-325,146,208,-478
43510,4462,0,2023-03-01T18:59:02.433441,2131980,432,265,-2453,-1036,-572,-325,146,208,-478
43511,4463,0,2023-03-01T18:59:02.438635,2131985,432,265,-2453,-1036,-572,-325,146,208,-478
43512,4464,0,2023-03-01T18:59:02.444529,2131991,430,268,-2455,-1035,-575,-322,146,208,-478
43513,4465,0,2023-03-01T18:59:02.450186,2131996,430,268,-2455,-1035,-575,-322,146,208,-478
43514,4466,0,2023-03-01T18:59:02.455524,2132001,430,268,-2455,-1035,-575,-322,146,208,-478
43515,4467,0,2023-03-01T18:59:02.460828,2132006,430,268,-2455,-1035,-575,-322,146,208,-478
43516,4468,0,2023-03-01T18:59:02.466104,2132013,430,268,-2455,-1034,-571,-319,152,204,-482
43517,4469,0,2023-03-01T18:59:02.472412,2132019,430,268,-2455,-1034,-571,-319,152,204,-482
43518,4470,0,2023-03-01T18:59:02.477269,2132024,430,268,-2455,-1034,-571,-319,152,204,-482
43519,4471,0,2023-03-01T18:59:02.483230,2132029,430,268,-2455,-1034,-571,-319,152,204,-482
43520,4472,0,2023-03-01T18:59:02.488329,2132034,429,267,-2448,-1035,-574,-322,152,204,-482
43521,4473,0,2023-03-01T18:59:02.493824,2132040,429,267,-2448,-1035,-574,-322,152,204,-482
43522,4474,0,2023-03-01T18:59:02.498766,2132045,429,267,-2448,-1035,-574,-322,152,204,-482
43523,4475,0,2023-03-01T18:59:02.504904,2132050,430,264,-2454,-1043,-575,-319,152,204,-482
43524,4476,0,2023-03-01T18:59:02.510812,2132057,430,264,-2454,-1043,-575,-319,152,204,-482
43525,4477,0,2023-03-01T18:59:02.515849,2132062,430,264,-2454,-1043,-575,-319,152,204,-482
43526,4478,0,2023-03-01T18:59:02.521350,2132068,430,264,-2454,-1043,-575,-319,152,204,-482
43527,4479,0,2023-03-01T18:59:02.526480,2132073,433,264,-2462,-1042,-571,-318,152,204,-482
43528,4480,0,2023-03-01T18:59:02.532672,2132079,433,264,-2462,-1042,-571,-318,152,204,-482
43529,4481,0,2023-03-01T18:59:02.537758,2132084,433,264,-2462,-1042,-571,-318,152,204,-482
43530,4482,0,2023-03-01T18:59:02.543828,2132089,432,265,-2461,-1043,-572,-322,152,204,-482
43531,4483,0,2023-03-01T18:59:02.549594,2132096,432,265,-2461,-1043,-572,-322,152,204,-482
43532,4484,0,2023-03-01T18:59:02.554748,2132101,432,265,-2461,-1043,-572,-322,152,204,-482
43533,4485,0,2023-03-01T18:59:02.559510,2132106,432,265,-2461,-1043,-572,-322,152,204,-482
43534,4486,0,2023-03-01T18:59:02.565030,2132111,434,264,-2460,-1047,-575,-326,152,204,-482
43535,4487,0,2023-03-01T18:59:02.570470,2132117,434,264,-2460,-1047,-575,-326,152,204,-482
43536,4488,0,2023-03-01T18:59:02.575282,2132122,434,264,-2460,-1047,-575,-326,152,204,-482
43537,4489,0,2023-03-01T18:59:02.580109,2132126,434,264,-2460,-1047,-575,-326,152,204,-482
43538,4490,0,2023-03-01T18:59:02.585888,2132132,431,265,-2450,-1042,-575,-325,152,204,-482
43539,4491,0,2023-03-01T18:59:02.591589,2132137,431,265,-2450,-1042,-575,-325,152,204,-482
43540,4492,0,2023-03-01T18:59:02.596537,2132143,431,265,-2450,-1042,-575,-325,152,204,-482
43541,4493,0,2023-03-01T18:59:02.602635,2132149,431,265,-2450,-1042,-575,-325,152,204,-482
43542,4494,0,2023-03-01T18:59:02.607553,2132154,430,264,-2458,-1043,-578,-327,147,217,-481
43543,4495,0,2023-03-01T18:59:02.613779,2132160,430,264,-2458,-1043,-578,-327,147,217,-481
43544,4496,0,2023-03-01T18:59:02.618991,2132165,430,264,-2458,-1043,-578,-327,147,217,-481
43545,4497,0,2023-03-01T18:59:02.624755,2132171,432,266,-2459,-1037,-570,-326,147,217,-481
43546,4498,0,2023-03-01T18:59:02.630287,2132176,432,266,-2459,-1037,-570,-326,147,217,-481
43547,4499,0,2023-03-01T18:59:02.635895,2132182,432,266,-2459,-1037,-570,-326,147,217,-481
43548,4500,0,2023-03-01T18:59:02.640760,2132187,432,266,-2459,-1037,-570,-326,147,217,-481
43549,4501,0,2023-03-01T18:59:02.646045,2132193,436,266,-2454,-1044,-569,-323,147,217,-481
43550,4502,0,2023-03-01T18:59:02.651607,2132198,436,266,-2454,-1044,-569,-323,147,217,-481
43551,4503,0,2023-03-01T18:59:02.656404,2132203,436,266,-2454,-1044,-569,-323,147,217,-481
43552,4504,0,2023-03-01T18:59:02.661752,2132208,436,266,-2454,-1044,-569,-323,147,217,-481
43553,4505,0,2023-03-01T18:59:02.666559,2132212,433,268,-2457,-1041,-571,-319,147,217,-481
43554,4506,0,2023-03-01T18:59:02.673079,2132219,433,268,-2457,-1041,-571,-319,147,217,-481
43555,4507,0,2023-03-01T18:59:02.678053,2132225,433,268,-2457,-1041,-571,-319,147,217,-481
43556,4508,0,2023-03-01T18:59:02.683976,2132230,432,266,-2452,-1042,-570,-321,147,217,-481
43557,4509,0,2023-03-01T18:59:02.689224,2132236,432,266,-2452,-1042,-570,-321,147,217,-481
43558,4510,0,2023-03-01T18:59:02.694657,2132241,432,266,-2452,-1042,-570,-321,147,217,-481
43559,4511,0,2023-03-01T18:59:02.699782,2132246,432,266,-2452,-1042,-570,-321,147,217,-481
43560,4512,0,2023-03-01T18:59:02.705587,2132251,430,264,-2458,-1047,-569,-322,147,217,-481
43561,4513,0,2023-03-01T18:59:02.709998,2132256,430,264,-2458,-1047,-569,-322,147,217,-481
43562,4514,0,2023-03-01T18:59:02.714742,2132261,430,264,-2458,-1047,-569,-322,147,217,-481
43563,4515,0,2023-03-01T18:59:02.719614,2132265,430,264,-2458,-1047,-569,-322,147,217,-481
43564,4516,0,2023-03-01T18:59:02.725119,2132272,433,267,-2452,-1038,-572,-323,153,213,-477
43565,4517,0,2023-03-01T18:59:02.730570,2132277,433,267,-2452,-1038,-572,-323,153,213,-477
43566,4518,0,2023-03-01T18:59:02.736956,2132283,433,267,-2452,-1038,-572,-323,153,213,-477
43567,4519,0,2023-03-01T18:59:02.745058,2132291,433,267,-2447,-1040,-574,-320,153,213,-477
43568,4520,0,2023-03-01T18:59:02.751048,2132297,433,267,-2447,-1040,-574,-320,153,213,-477
43569,4521,0,2023-03-01T18:59:02.756695,2132302,433,267,-2447,-1040,-574,-320,153,213,-477
43570,4522,0,2023-03-01T18:59:02.762444,2132308,433,267,-2447,-1040,-574,-320,153,213,-477
43571,4523,0,2023-03-01T18:59:02.767620,2132314,432,266,-2451,-1047,-576,-322,153,213,-477
43572,4524,0,2023-03-01T18:59:02.774271,2132320,432,266,-2451,-1047,-576,-322,153,213,-477
43573,4525,0,2023-03-01T18:59:02.779203,2132326,432,266,-2451,-1047,-576,-322,153,213,-477
43574,4526,0,2023-03-01T18:59:02.784470,2132331,431,266,-2458,-1036,-575,-323,153,213,-477
43575,4527,0,2023-03-01T18:59:02.790243,2132336,431,266,-2458,-1036,-575,-323,153,213,-477
43576,4528,0,2023-03-01T18:59:02.795594,2132341,431,266,-2458,-1036,-575,-323,153,213,-477
43577,4529,0,2023-03-01T18:59:02.800848,2132346,431,266,-2458,-1036,-575,-323,153,213,-477
43578,4530,0,2023-03-01T18:59:02.806706,2132353,431,266,-2453,-1038,-575,-323,153,213,-477
43579,4531,0,2023-03-01T18:59:02.812560,2132359,431,266,-2453,-1038,-575,-323,153,213,-477
43580,4532,0,2023-03-01T18:59:02.817826,2132364,431,266,-2453,-1038,-575,-323,153,213,-477
43581,4533,0,2023-03-01T18:59:02.823399,2132370,431,266,-2453,-1038,-575,-323,153,213,-477
43582,4534,0,2023-03-01T18:59:02.828177,2132374,434,268,-2452,-1043,-577,-323,153,213,-477
43583,4535,0,2023-03-01T18:59:02.834215,2132380,434,268,-2452,-1043,-577,-323,153,213,-477
43584,4536,0,2023-03-01T18:59:02.840223,2132385,434,268,-2452,-1043,-577,-323,153,213,-477
43585,4537,0,2023-03-01T18:59:02.846518,2132392,435,269,-2454,-1037,-577,-324,153,213,-477
43586,4538,0,2023-03-01T18:59:02.853146,2132400,435,269,-2454,-1037,-577,-324,153,213,-477
43587,4539,0,2023-03-01T18:59:02.858694,2132405,435,269,-2454,-1037,-577,-324,153,213,-477
43588,4540,0,2023-03-01T18:59:02.864599,2132410,435,267,-2452,-1038,-575,-327,147,203,-477
43589,4541,0,2023-03-01T18:59:02.870011,2132416,435,267,-2452,-1038,-575,-327,147,203,-477
43590,4542,0,2023-03-01T18:59:02.874901,2132421,435,267,-2452,-1038,-575,-327,147,203,-477
43591,4543,0,2023-03-01T18:59:02.879935,2132426,435,267,-2452,-1038,-575,-327,147,203,-477
43592,4544,0,2023-03-01T18:59:02.885962,2132432,435,266,-2450,-1042,-565,-329,147,203,-477
43593,4545,0,2023-03-01T18:59:02.892129,2132438,435,266,-2450,-1042,-565,-329,147,203,-477
43594,4546,0,2023-03-01T18:59:02.897971,2132444,435,266,-2450,-1042,-565,-329,147,203,-477
43595,4547,0,2023-03-01T18:59:02.903838,2132450,435,266,-2450,-1042,-565,-329,147,203,-477
43596,4548,0,2023-03-01T18:59:02.908873,2132455,434,265,-2454,-1041,-572,-323,147,203,-477
43597,4549,0,2023-03-01T18:59:02.915154,2132461,434,265,-2454,-1041,-572,-323,147,203,-477
43598,4550,0,2023-03-01T18:59:02.920415,2132466,434,265,-2454,-1041,-572,-323,147,203,-477
43599,4551,0,2023-03-01T18:59:02.926851,2132473,432,267,-2454,-1040,-574,-323,147,203,-477
43600,4552,0,2023-03-01T18:59:02.933383,2132480,432,267,-2454,-1040,-574,-323,147,203,-477
43601,4553,0,2023-03-01T18:59:02.938271,2132485,432,267,-2454,-1040,-574,-323,147,203,-477
43602,4554,0,2023-03-01T18:59:02.944084,2132491,431,270,-2452,-1035,-570,-325,147,203,-477
43603,4555,0,2023-03-01T18:59:02.949542,2132496,431,270,-2452,-1035,-570,-325,147,203,-477
43604,4556,0,2023-03-01T18:59:02.955501,2132501,431,270,-2452,-1035,-570,-325,147,203,-477
43605,4557,0,2023-03-01T18:59:02.961720,2132508,431,270,-2452,-1035,-570,-325,147,203,-477
43606,4558,0,2023-03-01T18:59:02.966516,2132512,433,262,-2458,-1032,-572,-329,147,203,-477
43607,4559,0,2023-03-01T18:59:02.972028,2132518,433,262,-2458,-1032,-572,-329,147,203,-477
43608,4560,0,2023-03-01T18:59:02.977565,2132524,433,262,-2458,-1032,-572,-329,147,203,-477
43609,4561,0,2023-03-01T18:59:02.983190,2132530,433,262,-2458,-1032,-572,-329,147,203,-477
43610,4562,0,2023-03-01T18:59:02.988122,2132535,433,269,-2452,-1034,-573,-316,150,214,-480
43611,4563,0,2023-03-01T18:59:02.994184,2132541,433,269,-2452,-1034,-573,-316,150,214,-480
43612,4564,0,2023-03-01T18:59:02.999529,2132546,433,269,-2452,-1034,-573,-316,150,214,-480
43613,4565,0,2023-03-01T18:59:03.005002,2132551,433,263,-2450,-1039,-571,-317,150,214,-480
43614,4566,0,2023-03-01T18:59:03.010498,2132556,433,263,-2450,-1039,-571,-317,150,214,-480
43615,4567,0,2023-03-01T18:59:03.016166,2132562,433,263,-2450,-1039,-571,-317,150,214,-480
43616,4568,0,2023-03-01T18:59:03.022336,2132569,433,263,-2450,-1039,-571,-317,150,214,-480
43617,4569,0,2023-03-01T18:59:03.027176,2132574,432,267,-2458,-1038,-572,-322,150,214,-480
43618,4570,0,2023-03-01T18:59:03.033247,2132579,432,267,-2458,-1038,-572,-322,150,214,-480
43619,4571,0,2023-03-01T18:59:03.038361,2132585,432,267,-2458,-1038,-572,-322,150,214,-480
43620,4572,0,2023-03-01T18:59:03.044301,2132590,431,262,-2452,-1043,-581,-320,150,214,-480
43621,4573,0,2023-03-01T18:59:03.050130,2132596,431,262,-2452,-1043,-581,-320,150,214,-480
43622,4574,0,2023-03-01T18:59:03.056099,2132602,431,262,-2452,-1043,-581,-320,150,214,-480
43623,4575,0,2023-03-01T18:59:03.061652,2132608,431,262,-2452,-1043,-581,-320,150,214,-480
43624,4576,0,2023-03-01T18:59:03.066850,2132613,433,263,-2456,-1037,-578,-320,150,214,-480
43625,4577,0,2023-03-01T18:59:03.074383,2132621,433,263,-2456,-1037,-578,-320,150,214,-480
43626,4578,0,2023-03-01T18:59:03.079557,2132626,433,263,-2456,-1037,-578,-320,150,214,-480
43627,4579,0,2023-03-01T18:59:03.086072,2132631,431,264,-2452,-1039,-573,-324,150,214,-480
43628,4580,0,2023-03-01T18:59:03.091962,2132638,431,264,-2452,-1039,-573,-324,150,214,-480
43629,4581,0,2023-03-01T18:59:03.098217,2132644,431,264,-2452,-1039,-573,-324,150,214,-480
43630,4582,0,2023-03-01T18:59:03.103984,2132651,431,266,-2451,-1035,-573,-325,150,214,-480
43631,4583,0,2023-03-01T18:59:03.109407,2132656,431,266,-2451,-1035,-573,-325,150,214,-480
43632,4584,0,2023-03-01T18:59:03.115643,2132662,431,266,-2451,-1035,-573,-325,150,214,-480
43633,4585,0,2023-03-01T18:59:03.120706,2132667,431,266,-2451,-1035,-573,-325,150,214,-480
43634,4586,0,2023-03-01T18:59:03.125726,2132672,431,265,-2450,-1040,-572,-327,159,213,-487
43635,4587,0,2023-03-01T18:59:03.131069,2132677,431,265,-2450,-1040,-572,-327,159,213,-487
43636,4588,0,2023-03-01T18:59:03.136083,2132682,431,265,-2450,-1040,-572,-327,159,213,-487
43637,4589,0,2023-03-01T18:59:03.141592,2132687,431,265,-2450,-1040,-572,-327,159,213,-487
43638,4590,0,2023-03-01T18:59:03.146420,2132692,430,267,-2450,-1039,-573,-324,159,213,-487
43639,4591,0,2023-03-01T18:59:03.153139,2132699,430,267,-2450,-1039,-573,-324,159,213,-487
43640,4592,0,2023-03-01T18:59:03.158724,2132705,430,267,-2450,-1039,-573,-324,159,213,-487
43641,4593,0,2023-03-01T18:59:03.164488,2132710,433,265,-2457,-1032,-576,-322,159,213,-487
43642,4594,0,2023-03-01T18:59:03.170379,2132716,433,265,-2457,-1032,-576,-322,159,213,-487
43643,4595,0,2023-03-01T18:59:03.177599,2132723,433,265,-2457,-1032,-576,-322,159,213,-487
43644,4596,0,2023-03-01T18:59:03.183328,2132729,433,265,-2457,-1032,-576,-322,159,213,-487
43645,4597,0,2023-03-01T18:59:03.188492,2132734,437,271,-2455,-1037,-572,-322,159,213,-487
43646,4598,0,2023-03-01T18:59:03.193875,2132741,437,271,-2455,-1037,-572,-322,159,213,-487
43647,4599,0,2023-03-01T18:59:03.198565,2132745,437,271,-2455,-1037,-572,-322,159,213,-487
43648,4600,0,2023-03-01T18:59:03.204460,2132751,432,266,-2462,-1042,-574,-313,159,213,-487
43649,4601,0,2023-03-01T18:59:03.210163,2132756,432,266,-2462,-1042,-574,-313,159,213,-487
43650,4602,0,2023-03-01T18:59:03.216368,2132761,432,266,-2462,-1042,-574,-313,159,213,-487
43651,4603,0,2023-03-01T18:59:03.221194,2132767,432,266,-2462,-1042,-574,-313,159,213,-487
43652,4604,0,2023-03-01T18:59:03.227247,2132773,432,262,-2458,-1036,-573,-318,159,213,-487
43653,4605,0,2023-03-01T18:59:03.233607,2132780,432,262,-2458,-1036,-573,-318,159,213,-487
43654,4606,0,2023-03-01T18:59:03.238623,2132785,432,262,-2458,-1036,-573,-318,159,213,-487
43655,4607,0,2023-03-01T18:59:03.244117,2132791,432,262,-2458,-1036,-573,-318,159,213,-487
43656,4608,0,2023-03-01T18:59:03.248848,2132795,433,269,-2455,-1034,-565,-321,146,206,-478
43657,4609,0,2023-03-01T18:59:03.255257,2132801,433,269,-2455,-1034,-565,-321,146,206,-478
43658,4610,0,2023-03-01T18:59:03.260226,2132806,433,269,-2455,-1034,-565,-321,146,206,-478
43659,4611,0,2023-03-01T18:59:03.266214,2132812,431,267,-2451,-1030,-578,-317,146,206,-478
43660,4612,0,2023-03-01T18:59:03.271665,2132817,431,267,-2451,-1030,-578,-317,146,206,-478
43661,4613,0,2023-03-01T18:59:03.276672,2132823,431,267,-2451,-1030,-578,-317,146,206,-478
43662,4614,0,2023-03-01T18:59:03.283967,2132830,431,267,-2451,-1030,-578,-317,146,206,-478
43663,4615,0,2023-03-01T18:59:03.289434,2132836,435,268,-2452,-1035,-576,-321,146,206,-478
43664,4616,0,2023-03-01T18:59:03.296380,2132843,435,268,-2452,-1035,-576,-321,146,206,-478
43665,4617,0,2023-03-01T18:59:03.302155,2132848,435,268,-2452,-1035,-576,-321,146,206,-478
43666,4618,0,2023-03-01T18:59:03.306986,2132853,429,266,-2451,-1038,-572,-321,146,206,-478
43667,4619,0,2023-03-01T18:59:03.312313,2132858,429,266,-2451,-1038,-572,-321,146,206,-478
43668,4620,0,2023-03-01T18:59:03.317346,2132864,429,266,-2451,-1038,-572,-321,146,206,-478
43669,4621,0,2023-03-01T18:59:03.322968,2132870,429,266,-2451,-1038,-572,-321,146,206,-478
43670,4622,0,2023-03-01T18:59:03.327927,2132875,434,266,-2455,-1046,-562,-320,146,206,-478
43671,4623,0,2023-03-01T18:59:03.333972,2132880,434,266,-2455,-1046,-562,-320,146,206,-478
43672,4624,0,2023-03-01T18:59:03.339008,2132885,434,266,-2455,-1046,-562,-320,146,206,-478
43673,4625,0,2023-03-01T18:59:03.344915,2132891,435,268,-2449,-1040,-568,-319,146,206,-478
43674,4626,0,2023-03-01T18:59:03.350145,2132896,435,268,-2449,-1040,-568,-319,146,206,-478
43675,4627,0,2023-03-01T18:59:03.354956,2132901,435,268,-2449,-1040,-568,-319,146,206,-478
43676,4628,0,2023-03-01T18:59:03.360234,2132907,435,268,-2449,-1040,-568,-319,146,206,-478
43677,4629,0,2023-03-01T18:59:03.366059,2132913,430,264,-2451,-1041,-573,-323,145,207,-477
43678,4630,0,2023-03-01T18:59:03.371756,2132918,430,264,-2451,-1041,-573,-323,145,207,-477
43679,4631,0,2023-03-01T18:59:03.377670,2132924,430,264,-2451,-1041,-573,-323,145,207,-477
43680,4632,0,2023-03-01T18:59:03.383282,2132930,430,264,-2451,-1041,-573,-323,145,207,-477
43681,4633,0,2023-03-01T18:59:03.388370,2132934,432,263,-2450,-1030,-573,-326,145,207,-477
43682,4634,0,2023-03-01T18:59:03.395516,2132941,432,263,-2450,-1030,-573,-326,145,207,-477
43683,4635,0,2023-03-01T18:59:03.400762,2132947,432,263,-2450,-1030,-573,-326,145,207,-477
43684,4636,0,2023-03-01T18:59:03.406623,2132953,432,264,-2455,-1034,-576,-323,145,207,-477
43685,4637,0,2023-03-01T18:59:03.412589,2132959,432,264,-2455,-1034,-576,-323,145,207,-477
43686,4638,0,2023-03-01T18:59:03.418595,2132965,432,264,-2455,-1034,-576,-323,145,207,-477
43687,4639,0,2023-03-01T18:59:03.424433,2132971,432,264,-2455,-1034,-576,-323,145,207,-477
43688,4640,0,2023-03-01T18:59:03.429781,2132976,433,266,-2458,-1039,-576,-317,145,207,-477
43689,4641,0,2023-03-01T18:59:03.436218,2132982,433,266,-2458,-1039,-576,-317,145,207,-477
43690,4642,0,2023-03-01T18:59:03.441162,2132987,433,266,-2458,-1039,-576,-317,145,207,-477
43691,4643,0,2023-03-01T18:59:03.446471,2132993,434,265,-2459,-1039,-575,-316,145,207,-477
43692,4644,0,2023-03-01T18:59:03.452600,2132999,434,265,-2459,-1039,-575,-316,145,207,-477
43693,4645,0,2023-03-01T18:59:03.458180,2133005,434,265,-2459,-1039,-575,-316,145,207,-477
43694,4646,0,2023-03-01T18:59:03.463662,2133010,434,265,-2459,-1039,-575,-316,145,207,-477
43695,4647,0,2023-03-01T18:59:03.468395,2133015,431,266,-2453,-1033,-572,-323,145,207,-477
43696,4648,0,2023-03-01T18:59:03.473441,2133020,431,266,-2453,-1033,-572,-323,145,207,-477
43697,4649,0,2023-03-01T18:59:03.478432,2133024,431,266,-2453,-1033,-572,-323,145,207,-477
43698,4650,0,2023-03-01T18:59:03.484500,2133030,431,266,-2453,-1033,-572,-323,145,207,-477
43699,4651,0,2023-03-01T18:59:03.489615,2133036,433,264,-2460,-1047,-575,-314,145,207,-477
43700,4652,0,2023-03-01T18:59:03.496708,2133043,433,264,-2460,-1047,-575,-314,145,207,-477
43701,4653,0,2023-03-01T18:59:03.503822,2133050,433,264,-2460,-1047,-575,-314,145,207,-477
43702,4654,0,2023-03-01T18:59:03.509118,2133055,431,269,-2454,-1034,-567,-320,155,205,-477
43703,4655,0,2023-03-01T18:59:03.515789,2133062,431,269,-2454,-1034,-567,-320,155,205,-477
43704,4656,0,2023-03-01T18:59:03.520946,2133067,431,269,-2454,-1034,-567,-320,155,205,-477
43705,4657,0,2023-03-01T18:59:03.526571,2133072,434,266,-2454,-1035,-568,-319,155,205,-477
43706,4658,0,2023-03-01T18:59:03.531999,2133079,434,266,-2454,-1035,-568,-319,155,205,-477
43707,4659,0,2023-03-01T18:59:03.537165,2133084,434,266,-2454,-1035,-568,-319,155,205,-477
43708,4660,0,2023-03-01T18:59:03.543034,2133090,434,266,-2454,-1035,-568,-319,155,205,-477
43709,4661,0,2023-03-01T18:59:03.548248,2133095,432,267,-2455,-1036,-568,-320,155,205,-477
43710,4662,0,2023-03-01T18:59:03.554264,2133101,432,267,-2455,-1036,-568,-320,155,205,-477
43711,4663,0,2023-03-01T18:59:03.559527,2133105,432,267,-2455,-1036,-568,-320,155,205,-477
43712,4664,0,2023-03-01T18:59:03.565329,2133111,431,268,-2451,-1032,-570,-317,155,205,-477
43713,4665,0,2023-03-01T18:59:03.571035,2133117,431,268,-2451,-1032,-570,-317,155,205,-477
43714,4666,0,2023-03-01T18:59:03.576315,2133123,431,268,-2451,-1032,-570,-317,155,205,-477
43715,4667,0,2023-03-01T18:59:03.581604,2133128,431,268,-2451,-1032,-570,-317,155,205,-477
43716,4668,0,2023-03-01T18:59:03.587887,2133133,431,268,-2451,-1032,-570,-317,155,205,-477
43717,4669,0,2023-03-01T18:59:03.592853,2133139,431,268,-2451,-1032,-570,-317,155,205,-477
43718,4670,0,2023-03-01T18:59:03.598614,2133145,431,268,-2451,-1032,-570,-317,155,205,-477
43719,4671,0,2023-03-01T18:59:03.604096,2133150,431,268,-2451,-1032,-570,-317,155,205,-477
43720,4672,0,2023-03-01T18:59:03.608770,2133155,430,268,-2459,-1035,-564,-315,155,205,-477
43721,4673,0,2023-03-01T18:59:03.615309,2133161,430,268,-2459,-1035,-564,-315,155,205,-477
43722,4674,0,2023-03-01T18:59:03.620445,2133167,430,268,-2459,-1035,-564,-315,155,205,-477
43723,4675,0,2023-03-01T18:59:03.625741,2133172,433,267,-2454,-1041,-577,-317,161,215,-477
43724,4676,0,2023-03-01T18:59:03.631516,2133178,433,267,-2454,-1041,-577,-317,161,215,-477
43725,4677,0,2023-03-01T18:59:03.636951,2133183,433,267,-2454,-1041,-577,-317,161,215,-477
43726,4678,0,2023-03-01T18:59:03.642425,2133189,433,267,-2454,-1041,-577,-317,161,215,-477
43727,4679,0,2023-03-01T18:59:03.647251,2133193,431,267,-2451,-1041,-570,-320,161,215,-477
43728,4680,0,2023-03-01T18:59:03.653171,2133199,431,267,-2451,-1041,-570,-320,161,215,-477
43729,4681,0,2023-03-01T18:59:03.658282,2133204,431,267,-2451,-1041,-570,-320,161,215,-477
43730,4682,0,2023-03-01T18:59:03.663726,2133211,431,267,-2451,-1041,-570,-320,161,215,-477
43731,4683,0,2023-03-01T18:59:03.669082,2133215,432,265,-2455,-1037,-577,-328,161,215,-477
43732,4684,0,2023-03-01T18:59:03.674271,2133221,432,265,-2455,-1037,-577,-328,161,215,-477
43733,4685,0,2023-03-01T18:59:03.679103,2133226,432,265,-2455,-1037,-577,-328,161,215,-477
43734,4686,0,2023-03-01T18:59:03.685033,2133231,433,268,-2452,-1040,-578,-321,161,215,-477
43735,4687,0,2023-03-01T18:59:03.690830,2133237,433,268,-2452,-1040,-578,-321,161,215,-477
43736,4688,0,2023-03-01T18:59:03.695815,2133242,433,268,-2452,-1040,-578,-321,161,215,-477
43737,4689,0,2023-03-01T18:59:03.700879,2133248,433,268,-2452,-1040,-578,-321,161,215,-477
43738,4690,0,2023-03-01T18:59:03.706264,2133253,437,267,-2458,-1052,-571,-319,161,215,-477
43739,4691,0,2023-03-01T18:59:03.711998,2133259,437,267,-2458,-1052,-571,-319,161,215,-477
43740,4692,0,2023-03-01T18:59:03.717311,2133263,437,267,-2458,-1052,-571,-319,161,215,-477
43741,4693,0,2023-03-01T18:59:03.723200,2133270,437,267,-2458,-1052,-571,-319,161,215,-477
43742,4694,0,2023-03-01T18:59:03.728528,2133274,435,267,-2448,-1047,-575,-316,161,215,-477
43743,4695,0,2023-03-01T18:59:03.734659,2133281,435,267,-2448,-1047,-575,-316,161,215,-477
43744,4696,0,2023-03-01T18:59:03.739387,2133285,435,267,-2448,-1047,-575,-316,161,215,-477
43745,4697,0,2023-03-01T18:59:03.745462,2133292,430,266,-2452,-1040,-579,-313,161,215,-477
43746,4698,0,2023-03-01T18:59:03.751008,2133298,430,266,-2452,-1040,-579,-313,161,215,-477
43747,4699,0,2023-03-01T18:59:03.756631,2133303,430,266,-2452,-1040,-579,-313,161,215,-477
43748,4700,0,2023-03-01T18:59:03.761926,2133308,430,266,-2452,-1040,-579,-313,161,215,-477
43749,4701,0,2023-03-01T18:59:03.767017,2133313,434,268,-2450,-1044,-576,-314,150,206,-472
43750,4702,0,2023-03-01T18:59:03.772597,2133319,434,268,-2450,-1044,-576,-314,150,206,-472
43751,4703,0,2023-03-01T18:59:03.778877,2133325,434,268,-2450,-1044,-576,-314,150,206,-472
43752,4704,0,2023-03-01T18:59:03.784347,2133330,434,268,-2450,-1044,-576,-314,150,206,-472
43753,4705,0,2023-03-01T18:59:03.789177,2133336,434,268,-2450,-1044,-576,-314,150,206,-472
43754,4706,0,2023-03-01T18:59:03.795243,2133342,434,268,-2450,-1044,-576,-314,150,206,-472
43755,4707,0,2023-03-01T18:59:03.800872,2133347,434,268,-2450,-1044,-576,-314,150,206,-472
43756,4708,0,2023-03-01T18:59:03.806279,2133353,429,268,-2455,-1043,-570,-319,150,206,-472
43757,4709,0,2023-03-01T18:59:03.811882,2133358,429,268,-2455,-1043,-570,-319,150,206,-472
43758,4710,0,2023-03-01T18:59:03.816813,2133363,429,268,-2455,-1043,-570,-319,150,206,-472
43759,4711,0,2023-03-01T18:59:03.822486,2133368,429,268,-2455,-1043,-570,-319,150,206,-472
43760,4712,0,2023-03-01T18:59:03.827729,2133373,433,270,-2454,-1031,-577,-323,150,206,-472
43761,4713,0,2023-03-01T18:59:03.833453,2133380,433,270,-2454,-1031,-577,-323,150,206,-472
43762,4714,0,2023-03-01T18:59:03.838577,2133385,433,270,-2454,-1031,-577,-323,150,206,-472
43763,4715,0,2023-03-01T18:59:03.843754,2133390,433,270,-2454,-1031,-577,-323,150,206,-472
43764,4716,0,2023-03-01T18:59:03.848698,2133395,432,266,-2456,-1036,-576,-319,150,206,-472
43765,4717,0,2023-03-01T18:59:03.854893,2133401,432,266,-2456,-1036,-576,-319,150,206,-472
43766,4718,0,2023-03-01T18:59:03.859906,2133406,432,266,-2456,-1036,-576,-319,150,206,-472
43767,4719,0,2023-03-01T18:59:03.865459,2133412,434,266,-2453,-1037,-570,-323,150,206,-472
43768,4720,0,2023-03-01T18:59:03.870638,2133417,434,266,-2453,-1037,-570,-323,150,206,-472
43769,4721,0,2023-03-01T18:59:03.875687,2133422,434,266,-2453,-1037,-570,-323,150,206,-472
43770,4722,0,2023-03-01T18:59:03.880790,2133427,434,266,-2453,-1037,-570,-323,150,206,-472
43771,4723,0,2023-03-01T18:59:03.886758,2133433,429,268,-2443,-1038,-570,-321,147,205,-469
43772,4724,0,2023-03-01T18:59:03.892453,2133439,429,268,-2443,-1038,-570,-321,147,205,-469
43773,4725,0,2023-03-01T18:59:03.898260,2133444,429,268,-2443,-1038,-570,-321,147,205,-469
43774,4726,0,2023-03-01T18:59:03.903920,2133450,429,268,-2443,-1038,-570,-321,147,205,-469
43775,4727,0,2023-03-01T18:59:03.908770,2133455,433,264,-2456,-1035,-567,-323,147,205,-469
43776,4728,0,2023-03-01T18:59:03.915695,2133462,433,264,-2456,-1035,-567,-323,147,205,-469
43777,4729,0,2023-03-01T18:59:03.920612,2133467,433,264,-2456,-1035,-567,-323,147,205,-469
43778,4730,0,2023-03-01T18:59:03.925468,2133472,431,268,-2456,-1039,-571,-325,147,205,-469
43779,4731,0,2023-03-01T18:59:03.930861,2133477,431,268,-2456,-1039,-571,-325,147,205,-469
43780,4732,0,2023-03-01T18:59:03.935796,2133482,431,268,-2456,-1039,-571,-325,147,205,-469
43781,4733,0,2023-03-01T18:59:03.941062,2133487,431,268,-2456,-1039,-571,-325,147,205,-469
43782,4734,0,2023-03-01T18:59:03.947264,2133493,430,269,-2454,-1038,-581,-326,147,205,-469
43783,4735,0,2023-03-01T18:59:03.953822,2133499,430,269,-2454,-1038,-581,-326,147,205,-469
43784,4736,0,2023-03-01T18:59:03.960471,2133507,430,269,-2454,-1038,-581,-326,147,205,-469
43785,4737,0,2023-03-01T18:59:03.966590,2133513,434,266,-2460,-1040,-570,-322,147,205,-469
43786,4738,0,2023-03-01T18:59:03.972327,2133519,434,266,-2460,-1040,-570,-322,147,205,-469
43787,4739,0,2023-03-01T18:59:03.977792,2133524,434,266,-2460,-1040,-570,-322,147,205,-469
43788,4740,0,2023-03-01T18:59:03.983655,2133530,434,266,-2460,-1040,-570,-322,147,205,-469
43789,4741,0,2023-03-01T18:59:03.988907,2133535,432,266,-2455,-1037,-571,-320,147,205,-469
43790,4742,0,2023-03-01T18:59:03.995789,2133542,432,266,-2455,-1037,-571,-320,147,205,-469
43791,4743,0,2023-03-01T18:59:04.000898,2133548,432,266,-2455,-1037,-571,-320,147,205,-469
43792,4744,0,2023-03-01T18:59:04.007154,2133554,434,267,-2452,-1032,-564,-320,149,211,-475
43793,4745,0,2023-03-01T18:59:04.012612,2133559,434,267,-2452,-1032,-564,-320,149,211,-475
43794,4746,0,2023-03-01T18:59:04.018883,2133565,434,267,-2452,-1032,-564,-320,149,211,-475
43795,4747,0,2023-03-01T18:59:04.024694,2133571,434,267,-2452,-1032,-564,-320,149,211,-475
43796,4748,0,2023-03-01T18:59:04.029870,2133576,432,266,-2451,-1037,-569,-316,149,211,-475
43797,4749,0,2023-03-01T18:59:04.036510,2133582,432,266,-2451,-1037,-569,-316,149,211,-475
43798,4750,0,2023-03-01T18:59:04.042214,2133588,432,266,-2451,-1037,-569,-316,149,211,-475
43799,4751,0,2023-03-01T18:59:04.047595,2133594,434,265,-2455,-1030,-570,-318,149,211,-475
43800,4752,0,2023-03-01T18:59:04.054621,2133601,434,265,-2455,-1030,-570,-318,149,211,-475
43801,4753,0,2023-03-01T18:59:04.060646,2133607,434,265,-2455,-1030,-570,-318,149,211,-475
43802,4754,0,2023-03-01T18:59:04.066194,2133612,433,265,-2459,-1048,-570,-319,149,211,-475
43803,4755,0,2023-03-01T18:59:04.072163,2133618,433,265,-2459,-1048,-570,-319,149,211,-475
43804,4756,0,2023-03-01T18:59:04.077222,2133623,433,265,-2459,-1048,-570,-319,149,211,-475
43805,4757,0,2023-03-01T18:59:04.082738,2133629,433,265,-2459,-1048,-570,-319,149,211,-475
43806,4758,0,2023-03-01T18:59:04.087810,2133635,431,266,-2458,-1035,-572,-326,149,211,-475
43807,4759,0,2023-03-01T18:59:04.094539,2133641,431,266,-2458,-1035,-572,-326,149,211,-475
43808,4760,0,2023-03-01T18:59:04.099172,2133646,431,266,-2458,-1035,-572,-326,149,211,-475
43809,4761,0,2023-03-01T18:59:04.104936,2133651,431,266,-2458,-1035,-572,-326,149,211,-475
43810,4762,0,2023-03-01T18:59:04.110181,2133656,431,268,-2457,-1040,-569,-322,149,211,-475
43811,4763,0,2023-03-01T18:59:04.116624,2133662,431,268,-2457,-1040,-569,-322,149,211,-475
43812,4764,0,2023-03-01T18:59:04.122179,2133668,431,268,-2457,-1040,-569,-322,149,211,-475
43813,4765,0,2023-03-01T18:59:04.127044,2133673,433,268,-2455,-1042,-570,-319,149,211,-475
43814,4766,0,2023-03-01T18:59:04.132579,2133679,433,268,-2455,-1042,-570,-319,149,211,-475
43815,4767,0,2023-03-01T18:59:04.138248,2133685,433,268,-2455,-1042,-570,-319,149,211,-475
43816,4768,0,2023-03-01T18:59:04.144327,2133691,433,268,-2455,-1042,-570,-319,149,211,-475
43817,4769,0,2023-03-01T18:59:04.149423,2133696,432,264,-2451,-1044,-573,-319,154,208,-478
43818,4770,0,2023-03-01T18:59:04.155236,2133701,432,264,-2451,-1044,-573,-319,154,208,-478
43819,4771,0,2023-03-01T18:59:04.160318,2133706,432,264,-2451,-1044,-573,-319,154,208,-478
43820,4772,0,2023-03-01T18:59:04.166229,2133712,432,265,-2451,-1047,-569,-317,154,208,-478
43821,4773,0,2023-03-01T18:59:04.171892,2133719,432,265,-2451,-1047,-569,-317,154,208,-478
43822,4774,0,2023-03-01T18:59:04.177552,2133724,432,265,-2451,-1047,-569,-317,154,208,-478
43823,4775,0,2023-03-01T18:59:04.183235,2133730,432,265,-2451,-1047,-569,-317,154,208,-478
43824,4776,0,2023-03-01T18:59:04.188141,2133735,432,266,-2456,-1030,-568,-316,154,208,-478
43825,4777,0,2023-03-01T18:59:04.193324,2133740,432,266,-2456,-1030,-568,-316,154,208,-478
43826,4778,0,2023-03-01T18:59:04.198346,2133744,432,266,-2456,-1030,-568,-316,154,208,-478
43827,4779,0,2023-03-01T18:59:04.204154,2133750,432,266,-2456,-1030,-568,-316,154,208,-478
43828,4780,0,2023-03-01T18:59:04.209075,2133755,433,266,-2452,-1032,-576,-317,154,208,-478
43829,4781,0,2023-03-01T18:59:04.215357,2133762,433,266,-2452,-1032,-576,-317,154,208,-478
43830,4782,0,2023-03-01T18:59:04.220444,2133767,433,266,-2452,-1032,-576,-317,154,208,-478
43831,4783,0,2023-03-01T18:59:04.226316,2133773,434,263,-2461,-1038,-569,-321,154,208,-478
43832,4784,0,2023-03-01T18:59:04.232037,2133778,434,263,-2461,-1038,-569,-321,154,208,-478
43833,4785,0,2023-03-01T18:59:04.237809,2133784,434,263,-2461,-1038,-569,-321,154,208,-478
43834,4786,0,2023-03-01T18:59:04.243288,2133790,434,263,-2461,-1038,-569,-321,154,208,-478
43835,4787,0,2023-03-01T18:59:04.248623,2133794,433,266,-2458,-1039,-567,-323,154,208,-478
43836,4788,0,2023-03-01T18:59:04.254663,2133801,433,266,-2458,-1039,-567,-323,154,208,-478
43837,4789,0,2023-03-01T18:59:04.259983,2133807,433,266,-2458,-1039,-567,-323,154,208,-478
43838,4790,0,2023-03-01T18:59:04.265550,2133812,433,266,-2458,-1039,-567,-323,154,208,-478
43839,4791,0,2023-03-01T18:59:04.270708,2133817,432,262,-2458,-1039,-568,-318,154,204,-466
43840,4792,0,2023-03-01T18:59:04.276853,2133823,432,262,-2458,-1039,-568,-318,154,204,-466
43841,4793,0,2023-03-01T18:59:04.282570,2133829,432,262,-2458,-1039,-568,-318,154,204,-466
43842,4794,0,2023-03-01T18:59:04.287535,2133834,430,263,-2450,-1040,-572,-320,154,204,-466
43843,4795,0,2023-03-01T18:59:04.293582,2133839,430,263,-2450,-1040,-572,-320,154,204,-466
43844,4796,0,2023-03-01T18:59:04.299100,2133846,430,263,-2450,-1040,-572,-320,154,204,-466
43845,4797,0,2023-03-01T18:59:04.304672,2133851,430,263,-2450,-1040,-572,-320,154,204,-466
43846,4798,0,2023-03-01T18:59:04.309585,2133856,434,264,-2460,-1035,-576,-322,154,204,-466
43847,4799,0,2023-03-01T18:59:04.316018,2133862,434,264,-2460,-1035,-576,-322,154,204,-466
43848,4800,0,2023-03-01T18:59:04.321034,2133867,434,264,-2460,-1035,-576,-322,154,204,-466
43849,4801,0,2023-03-01T18:59:04.327187,2133873,431,265,-2460,-1038,-581,-315,154,204,-466
43850,4802,0,2023-03-01T18:59:04.332616,2133879,431,265,-2460,-1038,-581,-315,154,204,-466
43851,4803,0,2023-03-01T18:59:04.337612,2133884,431,265,-2460,-1038,-581,-315,154,204,-466
43852,4804,0,2023-03-01T18:59:04.343172,2133890,431,265,-2460,-1038,-581,-315,154,204,-466
43853,4805,0,2023-03-01T18:59:04.348226,2133895,433,270,-2454,-1046,-573,-323,154,204,-466
43854,4806,0,2023-03-01T18:59:04.353548,2133900,433,270,-2454,-1046,-573,-323,154,204,-466
43855,4807,0,2023-03-01T18:59:04.358435,2133905,433,270,-2454,-1046,-573,-323,154,204,-466
43856,4808,0,2023-03-01T18:59:04.363895,2133910,433,270,-2454,-1046,-573,-323,154,204,-466
43857,4809,0,2023-03-01T18:59:04.369139,2133915,435,266,-2453,-1043,-573,-323,154,204,-466
43858,4810,0,2023-03-01T18:59:04.375592,2133921,435,266,-2453,-1043,-573,-323,154,204,-466
43859,4811,0,2023-03-01T18:59:04.380696,2133927,435,266,-2453,-1043,-573,-323,154,204,-466
43860,4812,0,2023-03-01T18:59:04.386413,2133933,430,267,-2451,-1036,-572,-322,154,204,-466
43861,4813,0,2023-03-01T18:59:04.392090,2133939,430,267,-2451,-1036,-572,-322,154,204,-466
43862,4814,0,2023-03-01T18:59:04.398044,2133944,430,267,-2451,-1036,-572,-322,154,204,-466
43863,4815,0,2023-03-01T18:59:04.403934,2133950,430,267,-2451,-1036,-572,-322,154,204,-466
43864,4816,0,2023-03-01T18:59:04.408956,2133955,432,267,-2449,-1038,-571,-317,159,207,-473
43865,4817,0,2023-03-01T18:59:04.415088,2133961,432,267,-2449,-1038,-571,-317,159,207,-473
43866,4818,0,2023-03-01T18:59:04.420316,2133966,432,267,-2449,-1038,-571,-317,159,207,-473
43867,4819,0,2023-03-01T18:59:04.425868,2133971,432,267,-2449,-1038,-571,-317,159,207,-473
43868,4820,0,2023-03-01T18:59:04.430980,2133978,432,267,-2452,-1047,-578,-318,159,207,-473
43869,4821,0,2023-03-01T18:59:04.437268,2133984,432,267,-2452,-1047,-578,-318,159,207,-473
43870,4822,0,2023-03-01T18:59:04.443058,2133990,432,267,-2452,-1047,-578,-318,159,207,-473
43871,4823,0,2023-03-01T18:59:04.448802,2133994,432,268,-2457,-1043,-573,-315,159,207,-473
43872,4824,0,2023-03-01T18:59:04.455012,2134001,432,268,-2457,-1043,-573,-315,159,207,-473
43873,4825,0,2023-03-01T18:59:04.460092,2134006,432,268,-2457,-1043,-573,-315,159,207,-473
43874,4826,0,2023-03-01T18:59:04.466374,2134012,432,262,-2453,-1034,-573,-320,159,207,-473
43875,4827,0,2023-03-01T18:59:04.472423,2134019,432,262,-2453,-1034,-573,-320,159,207,-473
43876,4828,0,2023-03-01T18:59:04.477749,2134024,432,262,-2453,-1034,-573,-320,159,207,-473
43877,4829,0,2023-03-01T18:59:04.484484,2134030,432,262,-2453,-1034,-573,-320,159,207,-473
43878,4830,0,2023-03-01T18:59:04.491061,2134037,434,265,-2451,-1039,-573,-316,159,207,-473
43879,4831,0,2023-03-01T18:59:04.497667,2134044,434,265,-2451,-1039,-573,-316,159,207,-473
43880,4832,0,2023-03-01T18:59:04.503894,2134049,434,265,-2451,-1039,-573,-316,159,207,-473
43881,4833,0,2023-03-01T18:59:04.509067,2134055,431,266,-2456,-1034,-570,-318,159,207,-473
43882,4834,0,2023-03-01T18:59:04.516816,2134063,431,266,-2456,-1034,-570,-318,159,207,-473
43883,4835,0,2023-03-01T18:59:04.521800,2134069,431,266,-2456,-1034,-570,-318,159,207,-473
43884,4836,0,2023-03-01T18:59:04.527549,2134074,434,267,-2454,-1042,-566,-312,154,212,-484
43885,4837,0,2023-03-01T18:59:04.533255,2134080,434,267,-2454,-1042,-566,-312,154,212,-484
43886,4838,0,2023-03-01T18:59:04.538404,2134084,434,267,-2454,-1042,-566,-312,154,212,-484
43887,4839,0,2023-03-01T18:59:04.544615,2134090,434,267,-2454,-1042,-566,-312,154,212,-484
43888,4840,0,2023-03-01T18:59:04.550101,2134096,431,268,-2454,-1038,-576,-318,154,212,-484
43889,4841,0,2023-03-01T18:59:04.556522,2134103,431,268,-2454,-1038,-576,-318,154,212,-484
43890,4842,0,2023-03-01T18:59:04.562331,2134109,431,268,-2454,-1038,-576,-318,154,212,-484
43891,4843,0,2023-03-01T18:59:04.567196,2134114,429,269,-2450,-1033,-575,-325,154,212,-484
43892,4844,0,2023-03-01T18:59:04.573332,2134119,429,269,-2450,-1033,-575,-325,154,212,-484
43893,4845,0,2023-03-01T18:59:04.578877,2134125,429,269,-2450,-1033,-575,-325,154,212,-484
43894,4846,0,2023-03-01T18:59:04.584662,2134131,429,269,-2450,-1033,-575,-325,154,212,-484
43895,4847,0,2023-03-01T18:59:04.589821,2134136,433,268,-2453,-1039,-576,-316,154,212,-484
43896,4848,0,2023-03-01T18:59:04.596326,2134142,433,268,-2453,-1039,-576,-316,154,212,-484
43897,4849,0,2023-03-01T18:59:04.601516,2134148,433,268,-2453,-1039,-576,-316,154,212,-484
43898,4850,0,2023-03-01T18:59:04.607503,2134154,434,266,-2462,-1034,-569,-323,154,212,-484
43899,4851,0,2023-03-01T18:59:04.613398,2134160,434,266,-2462,-1034,-569,-323,154,212,-484
43900,4852,0,2023-03-01T18:59:04.618988,2134165,434,266,-2462,-1034,-569,-323,154,212,-484
43901,4853,0,2023-03-01T18:59:04.624833,2134171,434,266,-2462,-1034,-569,-323,154,212,-484
43902,4854,0,2023-03-01T18:59:04.629640,2134176,431,267,-2455,-1039,-564,-323,154,212,-484
43903,4855,0,2023-03-01T18:59:04.635737,2134182,431,267,-2455,-1039,-564,-323,154,212,-484
43904,4856,0,2023-03-01T18:59:04.640641,2134188,431,267,-2455,-1039,-564,-323,154,212,-484
43905,4857,0,2023-03-01T18:59:04.646315,2134193,435,266,-2459,-1033,-574,-328,154,212,-484
43906,4858,0,2023-03-01T18:59:04.651970,2134198,435,266,-2459,-1033,-574,-328,154,212,-484
43907,4859,0,2023-03-01T18:59:04.657612,2134204,435,266,-2459,-1033,-574,-328,154,212,-484
43908,4860,0,2023-03-01T18:59:04.663142,2134209,435,266,-2459,-1033,-574,-328,154,212,-484
43909,4861,0,2023-03-01T18:59:04.668112,2134214,431,265,-2455,-1032,-570,-321,152,206,-470
43910,4862,0,2023-03-01T18:59:04.674325,2134220,431,265,-2455,-1032,-570,-321,152,206,-470
43911,4863,0,2023-03-01T18:59:04.679061,2134225,431,265,-2455,-1032,-570,-321,152,206,-470
43912,4864,0,2023-03-01T18:59:04.684544,2134231,431,265,-2455,-1032,-570,-321,152,206,-470
43913,4865,0,2023-03-01T18:59:04.689329,2134236,431,266,-2456,-1031,-566,-315,152,206,-470
43914,4866,0,2023-03-01T18:59:04.695114,2134242,431,266,-2456,-1031,-566,-315,152,206,-470
43915,4867,0,2023-03-01T18:59:04.701630,2134248,431,266,-2456,-1031,-566,-315,152,206,-470
43916,4868,0,2023-03-01T18:59:04.707456,2134253,433,265,-2450,-1035,-576,-313,152,206,-470
43917,4869,0,2023-03-01T18:59:04.713618,2134259,433,265,-2450,-1035,-576,-313,152,206,-470
43918,4870,0,2023-03-01T18:59:04.719209,2134265,433,265,-2450,-1035,-576,-313,152,206,-470
43919,4871,0,2023-03-01T18:59:04.724741,2134272,433,265,-2450,-1035,-576,-313,152,206,-470
43920,4872,0,2023-03-01T18:59:04.729480,2134276,433,270,-2454,-1032,-567,-323,152,206,-470
43921,4873,0,2023-03-01T18:59:04.734675,2134282,433,270,-2454,-1032,-567,-323,152,206,-470
43922,4874,0,2023-03-01T18:59:04.739568,2134286,433,270,-2454,-1032,-567,-323,152,206,-470
43923,4875,0,2023-03-01T18:59:04.745524,2134292,433,270,-2454,-1032,-567,-323,152,206,-470
43924,4876,0,2023-03-01T18:59:04.750429,2134297,433,265,-2454,-1032,-572,-317,152,206,-470
43925,4877,0,2023-03-01T18:59:04.756442,2134303,433,265,-2454,-1032,-572,-317,152,206,-470
43926,4878,0,2023-03-01T18:59:04.761781,2134308,433,265,-2454,-1032,-572,-317,152,206,-470
43927,4879,0,2023-03-01T18:59:04.766739,2134313,431,266,-2454,-1040,-574,-315,152,206,-470
43928,4880,0,2023-03-01T18:59:04.772503,2134319,431,266,-2454,-1040,-574,-315,152,206,-470
43929,4881,0,2023-03-01T18:59:04.777827,2134325,431,266,-2454,-1040,-574,-315,152,206,-470
43930,4882,0,2023-03-01T18:59:04.783239,2134330,431,266,-2454,-1040,-574,-315,152,206,-470
43931,4883,0,2023-03-01T18:59:04.788125,2134334,435,265,-2453,-1040,-573,-322,154,218,-478
43932,4884,0,2023-03-01T18:59:04.794450,2134340,435,265,-2453,-1040,-573,-322,154,218,-478
43933,4885,0,2023-03-01T18:59:04.799542,2134345,435,265,-2453,-1040,-573,-322,154,218,-478
43934,4886,0,2023-03-01T18:59:04.805170,2134351,435,265,-2453,-1040,-573,-322,154,218,-478
43935,4887,0,2023-03-01T18:59:04.810226,2134356,430,264,-2456,-1040,-571,-325,154,218,-478
43936,4888,0,2023-03-01T18:59:04.817442,2134363,430,264,-2456,-1040,-571,-325,154,218,-478
43937,4889,0,2023-03-01T18:59:04.823845,2134370,430,264,-2456,-1040,-571,-325,154,218,-478
43938,4890,0,2023-03-01T18:59:04.828961,2134375,431,265,-2458,-1043,-573,-320,154,218,-478
43939,4891,0,2023-03-01T18:59:04.835249,2134382,431,265,-2458,-1043,-573,-320,154,218,-478
43940,4892,0,2023-03-01T18:59:04.840127,2134387,431,265,-2458,-1043,-573,-320,154,218,-478
43941,4893,0,2023-03-01T18:59:04.845620,2134392,431,265,-2458,-1043,-573,-320,154,218,-478
43942,4894,0,2023-03-01T18:59:04.850328,2134396,433,267,-2456,-1043,-572,-320,154,218,-478
43943,4895,0,2023-03-01T18:59:04.855611,2134403,433,267,-2456,-1043,-572,-320,154,218,-478
43944,4896,0,2023-03-01T18:59:04.860923,2134407,433,267,-2456,-1043,-572,-320,154,218,-478
43945,4897,0,2023-03-01T18:59:04.866608,2134413,436,265,-2454,-1035,-573,-319,154,218,-478
43946,4898,0,2023-03-01T18:59:04.871735,2134418,436,265,-2454,-1035,-573,-319,154,218,-478
43947,4899,0,2023-03-01T18:59:04.877370,2134424,436,265,-2454,-1035,-573,-319,154,218,-478
43948,4900,0,2023-03-01T18:59:04.882676,2134429,436,265,-2454,-1035,-573,-319,154,218,-478
43949,4901,0,2023-03-01T18:59:04.887405,2134434,435,266,-2450,-1037,-565,-323,154,218,-478
43950,4902,0,2023-03-01T18:59:04.892851,2134439,435,266,-2450,-1037,-565,-323,154,218,-478
43951,4903,0,2023-03-01T18:59:04.897584,2134444,435,266,-2450,-1037,-565,-323,154,218,-478
43952,4904,0,2023-03-01T18:59:04.902902,2134450,435,266,-2450,-1037,-565,-323,154,218,-478
43953,4905,0,2023-03-01T18:59:04.907856,2134454,436,267,-2455,-1044,-572,-327,155,209,-477
43954,4906,0,2023-03-01T18:59:04.913459,2134460,436,267,-2455,-1044,-572,-327,155,209,-477
43955,4907,0,2023-03-01T18:59:04.918567,2134465,436,267,-2455,-1044,-572,-327,155,209,-477
43956,4908,0,2023-03-01T18:59:04.924759,2134470,436,267,-2455,-1044,-572,-327,155,209,-477
43957,4909,0,2023-03-01T18:59:04.930017,2134476,432,265,-2451,-1044,-578,-320,155,209,-477
43958,4910,0,2023-03-01T18:59:04.935893,2134482,432,265,-2451,-1044,-578,-320,155,209,-477
43959,4911,0,2023-03-01T18:59:04.940966,2134488,432,265,-2451,-1044,-578,-320,155,209,-477
43960,4912,0,2023-03-01T18:59:04.946837,2134493,430,265,-2457,-1025,-574,-316,155,209,-477
43961,4913,0,2023-03-01T18:59:04.952474,2134499,430,265,-2457,-1025,-574,-316,155,209,-477
43962,4914,0,2023-03-01T18:59:04.958191,2134505,430,265,-2457,-1025,-574,-316,155,209,-477
43963,4915,0,2023-03-01T18:59:04.963506,2134510,430,265,-2457,-1025,-574,-316,155,209,-477
43964,4916,0,2023-03-01T18:59:04.968495,2134515,430,263,-2453,-1037,-575,-319,155,209,-477
43965,4917,0,2023-03-01T18:59:04.974422,2134520,430,263,-2453,-1037,-575,-319,155,209,-477
43966,4918,0,2023-03-01T18:59:04.979509,2134525,430,263,-2453,-1037,-575,-319,155,209,-477
43967,4919,0,2023-03-01T18:59:04.985039,2134532,430,263,-2453,-1037,-575,-319,155,209,-477
43968,4920,0,2023-03-01T18:59:04.990697,2134537,433,264,-2453,-1032,-579,-316,155,209,-477
43969,4921,0,2023-03-01T18:59:04.996604,2134543,433,264,-2453,-1032,-579,-316,155,209,-477
43970,4922,0,2023-03-01T18:59:05.002946,2134549,433,264,-2453,-1032,-579,-316,155,209,-477
43971,4923,0,2023-03-01T18:59:05.007784,2134554,436,267,-2450,-1037,-569,-312,155,209,-477
43972,4924,0,2023-03-01T18:59:05.013412,2134560,436,267,-2450,-1037,-569,-312,155,209,-477
43973,4925,0,2023-03-01T18:59:05.018519,2134564,436,267,-2450,-1037,-569,-312,155,209,-477
43974,4926,0,2023-03-01T18:59:05.024237,2134571,436,267,-2450,-1037,-569,-312,155,209,-477
43975,4927,0,2023-03-01T18:59:05.030266,2134576,432,266,-2456,-1037,-571,-324,155,209,-477
43976,4928,0,2023-03-01T18:59:05.036848,2134583,432,266,-2456,-1037,-571,-324,155,209,-477
43977,4929,0,2023-03-01T18:59:05.043080,2134589,432,266,-2456,-1037,-571,-324,155,209,-477
43978,4930,0,2023-03-01T18:59:05.048107,2134594,433,265,-2444,-1040,-575,-324,145,205,-477
43979,4931,0,2023-03-01T18:59:05.053876,2134600,433,265,-2444,-1040,-575,-324,145,205,-477
43980,4932,0,2023-03-01T18:59:05.059131,2134605,433,265,-2444,-1040,-575,-324,145,205,-477
43981,4933,0,2023-03-01T18:59:05.066124,2134612,433,265,-2444,-1040,-575,-324,145,205,-477
43982,4934,0,2023-03-01T18:59:05.071053,2134618,431,268,-2453,-1035,-570,-328,145,205,-477
43983,4935,0,2023-03-01T18:59:05.077156,2134624,431,268,-2453,-1035,-570,-328,145,205,-477
43984,4936,0,2023-03-01T18:59:05.083225,2134630,431,268,-2453,-1035,-570,-328,145,205,-477
43985,4937,0,2023-03-01T18:59:05.088130,2134635,432,265,-2456,-1037,-569,-324,145,205,-477
43986,4938,0,2023-03-01T18:59:05.093960,2134640,432,265,-2456,-1037,-569,-324,145,205,-477
43987,4939,0,2023-03-01T18:59:05.098903,2134645,432,265,-2456,-1037,-569,-324,145,205,-477
43988,4940,0,2023-03-01T18:59:05.104516,2134650,432,265,-2456,-1037,-569,-324,145,205,-477
43989,4941,0,2023-03-01T18:59:05.109481,2134656,433,265,-2453,-1038,-569,-325,145,205,-477
43990,4942,0,2023-03-01T18:59:05.115896,2134662,433,265,-2453,-1038,-569,-325,145,205,-477
43991,4943,0,2023-03-01T18:59:05.121150,2134668,433,265,-2453,-1038,-569,-325,145,205,-477
43992,4944,0,2023-03-01T18:59:05.126951,2134673,433,266,-2460,-1037,-576,-313,145,205,-477
43993,4945,0,2023-03-01T18:59:05.132578,2134679,433,266,-2460,-1037,-576,-313,145,205,-477
43994,4946,0,2023-03-01T18:59:05.138272,2134684,433,266,-2460,-1037,-576,-313,145,205,-477
43995,4947,0,2023-03-01T18:59:05.143957,2134690,433,266,-2460,-1037,-576,-313,145,205,-477
43996,4948,0,2023-03-01T18:59:05.149116,2134695,431,269,-2454,-1029,-579,-323,145,205,-477
43997,4949,0,2023-03-01T18:59:05.155538,2134702,431,269,-2454,-1029,-579,-323,145,205,-477
43998,4950,0,2023-03-01T18:59:05.161126,2134708,431,269,-2454,-1029,-579,-323,145,205,-477
43999,4951,0,2023-03-01T18:59:05.166712,2134713,433,265,-2455,-1036,-578,-319,145,205,-477
44000,4952,0,2023-03-01T18:59:05.172730,2134719,433,265,-2455,-1036,-578,-319,157,213,-477
44001,4953,0,2023-03-01T18:59:05.177657,2134724,433,265,-2455,-1036,-578,-319,157,213,-477
44002,4954,0,2023-03-01T18:59:05.183457,2134729,433,265,-2455,-1036,-578,-319,157,213,-477
44003,4955,0,2023-03-01T18:59:05.188259,2134734,434,269,-2450,-1037,-580,-319,157,213,-477
44004,4956,0,2023-03-01T18:59:05.194531,2134740,434,269,-2450,-1037,-580,-319,157,213,-477
44005,4957,0,2023-03-01T18:59:05.199254,2134746,434,269,-2450,-1037,-580,-319,157,213,-477
44006,4958,0,2023-03-01T18:59:05.204836,2134752,434,269,-2450,-1037,-580,-319,157,213,-477
44007,4959,0,2023-03-01T18:59:05.209620,2134756,432,263,-2458,-1045,-580,-325,157,213,-477
44008,4960,0,2023-03-01T18:59:05.215790,2134762,432,263,-2458,-1045,-580,-325,157,213,-477
44009,4961,0,2023-03-01T18:59:05.220787,2134767,432,263,-2458,-1045,-580,-325,157,213,-477
44010,4962,0,2023-03-01T18:59:05.226796,2134773,435,266,-2456,-1041,-576,-320,157,213,-477
44011,4963,0,2023-03-01T18:59:05.233112,2134779,435,266,-2456,-1041,-576,-320,157,213,-477
44012,4964,0,2023-03-01T18:59:05.238840,2134786,435,266,-2456,-1041,-576,-320,157,213,-477
44013,4965,0,2023-03-01T18:59:05.244643,2134791,435,266,-2456,-1041,-576,-320,157,213,-477
44014,4966,0,2023-03-01T18:59:05.249663,2134796,433,267,-2459,-1051,-576,-318,157,213,-477
44015,4967,0,2023-03-01T18:59:05.257428,2134804,433,267,-2459,-1051,-576,-318,157,213,-477
44016,4968,0,2023-03-01T18:59:05.263504,2134809,433,267,-2459,-1051,-576,-318,157,213,-477
44017,4969,0,2023-03-01T18:59:05.268667,2134815,429,266,-2459,-1044,-570,-317,157,213,-477
44018,4970,0,2023-03-01T18:59:05.274556,2134821,429,266,-2459,-1044,-570,-317,157,213,-477
44019,4971,0,2023-03-01T18:59:05.279843,2134825,429,266,-2459,-1044,-570,-317,157,213,-477
44020,4972,0,2023-03-01T18:59:05.286565,2134833,429,266,-2459,-1044,-570,-317,157,213,-477
44021,4973,0,2023-03-01T18:59:05.291541,2134838,432,266,-2453,-1041,-576,-317,157,213,-477
44022,4974,0,2023-03-01T18:59:05.297581,2134844,432,266,-2453,-1041,-576,-317,157,213,-477
44023,4975,0,2023-03-01T18:59:05.302789,2134849,432,266,-2453,-1041,-576,-317,157,213,-477
44024,4976,0,2023-03-01T18:59:05.307404,2134854,431,266,-2452,-1039,-569,-317,153,213,-475
44025,4977,0,2023-03-01T18:59:05.313243,2134859,431,266,-2452,-1039,-569,-317,153,213,-475
44026,4978,0,2023-03-01T18:59:05.319256,2134865,431,266,-2452,-1039,-569,-317,153,213,-475
44027,4979,0,2023-03-01T18:59:05.324766,2134872,431,266,-2452,-1039,-569,-317,153,213,-475
44028,4980,0,2023-03-01T18:59:05.329502,2134876,432,267,-2453,-1044,-573,-313,153,213,-475
44029,4981,0,2023-03-01T18:59:05.335251,2134882,432,267,-2453,-1044,-573,-313,153,213,-475
44030,4982,0,2023-03-01T18:59:05.340499,2134887,432,267,-2453,-1044,-573,-313,153,213,-475
44031,4983,0,2023-03-01T18:59:05.345855,2134892,432,267,-2453,-1044,-573,-313,153,213,-475
44032,4984,0,2023-03-01T18:59:05.351113,2134897,432,268,-2455,-1035,-566,-327,153,213,-475
44033,4985,0,2023-03-01T18:59:05.357047,2134903,432,268,-2455,-1035,-566,-327,153,213,-475
44034,4986,0,2023-03-01T18:59:05.362381,2134908,432,268,-2455,-1035,-566,-327,153,213,-475
44035,4987,0,2023-03-01T18:59:05.367498,2134914,433,265,-2450,-1029,-571,-319,153,213,-475
44036,4988,0,2023-03-01T18:59:05.373664,2134920,433,265,-2450,-1029,-571,-319,153,213,-475
44037,4989,0,2023-03-01T18:59:05.379411,2134926,433,265,-2450,-1029,-571,-319,153,213,-475
44038,4990,0,2023-03-01T18:59:05.385069,2134931,433,265,-2450,-1029,-571,-319,153,213,-475
44039,4991,0,2023-03-01T18:59:05.389997,2134936,434,265,-2458,-1030,-574,-327,153,213,-475
44040,4992,0,2023-03-01T18:59:05.395596,2134942,434,265,-2458,-1030,-574,-327,153,213,-475
44041,4993,0,2023-03-01T18:59:05.400643,2134947,434,265,-2458,-1030,-574,-327,153,213,-475
44042,4994,0,2023-03-01T18:59:05.406253,2134952,434,265,-2458,-1030,-574,-327,153,213,-475
44043,4995,0,2023-03-01T18:59:05.411461,2134958,435,267,-2457,-1043,-575,-319,153,213,-475
44044,4996,0,2023-03-01T18:59:05.417037,2134964,435,267,-2457,-1043,-575,-319,153,213,-475
44045,4997,0,2023-03-01T18:59:05.422501,2134969,435,267,-2457,-1043,-575,-319,153,213,-475
44046,4998,0,2023-03-01T18:59:05.428111,2134974,434,267,-2452,-1043,-578,-316,147,211,-469
44047,4999,0,2023-03-01T18:59:05.433634,2134980,434,267,-2452,-1043,-578,-316,147,211,-469
44048,5000,0,2023-03-01T18:59:05.439143,2134985,434,267,-2452,-1043,-578,-316,147,211,-469
44049,5001,0,2023-03-01T18:59:05.444575,2134991,434,267,-2452,-1043,-578,-316,147,211,-469
44050,5002,0,2023-03-01T18:59:05.449618,2134995,433,265,-2451,-1031,-565,-316,147,211,-469
44051,5003,0,2023-03-01T18:59:05.455752,2135003,433,265,-2451,-1031,-565,-316,147,211,-469
44052,5004,0,2023-03-01T18:59:05.460754,2135007,433,265,-2451,-1031,-565,-316,147,211,-469
44053,5005,0,2023-03-01T18:59:05.466761,2135013,433,265,-2451,-1031,-565,-316,147,211,-469
44054,5006,0,2023-03-01T18:59:05.472002,2135018,433,264,-2455,-1042,-568,-323,147,211,-469
44055,5007,0,2023-03-01T18:59:05.480080,2135026,433,264,-2455,-1042,-568,-323,147,211,-469
44056,5008,0,2023-03-01T18:59:05.486525,2135032,433,264,-2455,-1042,-568,-323,147,211,-469
44057,5009,0,2023-03-01T18:59:05.491689,2135038,432,264,-2446,-1039,-572,-323,147,211,-469
44058,5010,0,2023-03-01T18:59:05.497432,2135044,432,264,-2446,-1039,-572,-323,147,211,-469
44059,5011,0,2023-03-01T18:59:05.503942,2135050,432,264,-2446,-1039,-572,-323,147,211,-469
44060,5012,0,2023-03-01T18:59:05.510003,2135056,432,263,-2456,-1033,-569,-314,147,211,-469
44061,5013,0,2023-03-01T18:59:05.515903,2135062,432,263,-2456,-1033,-569,-314,147,211,-469
44062,5014,0,2023-03-01T18:59:05.521330,2135067,432,263,-2456,-1033,-569,-314,147,211,-469
44063,5015,0,2023-03-01T18:59:05.527140,2135073,432,265,-2455,-1037,-572,-325,147,211,-469
44064,5016,0,2023-03-01T18:59:05.533100,2135079,432,265,-2455,-1037,-572,-325,147,211,-469
44065,5017,0,2023-03-01T18:59:05.539195,2135086,432,265,-2455,-1037,-572,-325,147,211,-469
44066,5018,0,2023-03-01T18:59:05.544801,2135091,432,265,-2455,-1037,-572,-325,147,211,-469
44067,5019,0,2023-03-01T18:59:05.549619,2135096,432,265,-2457,-1034,-569,-324,147,211,-469
44068,5020,0,2023-03-01T18:59:05.555730,2135102,432,265,-2457,-1034,-569,-324,147,211,-469
44069,5021,0,2023-03-01T18:59:05.561072,2135107,432,265,-2457,-1034,-569,-324,147,211,-469
44070,5022,0,2023-03-01T18:59:05.567135,2135113,432,265,-2457,-1034,-569,-324,147,211,-469
44071,5023,0,2023-03-01T18:59:05.572220,2135118,431,267,-2456,-1047,-575,-324,155,205,-475
44072,5024,0,2023-03-01T18:59:05.578566,2135124,431,267,-2456,-1047,-575,-324,155,205,-475
44073,5025,0,2023-03-01T18:59:05.584683,2135131,431,267,-2456,-1047,-575,-324,155,205,-475
44074,5026,0,2023-03-01T18:59:05.589956,2135137,430,265,-2457,-1044,-576,-322,155,205,-475
44075,5027,0,2023-03-01T18:59:05.596234,2135143,430,265,-2457,-1044,-576,-322,155,205,-475
44076,5028,0,2023-03-01T18:59:05.601256,2135148,430,265,-2457,-1044,-576,-322,155,205,-475
44077,5029,0,2023-03-01T18:59:05.607160,2135153,430,265,-2457,-1044,-576,-322,155,205,-475
44078,5030,0,2023-03-01T18:59:05.612264,2135158,433,266,-2456,-1036,-572,-318,155,205,-475
44079,5031,0,2023-03-01T18:59:05.618701,2135165,433,266,-2456,-1036,-572,-318,155,205,-475
44080,5032,0,2023-03-01T18:59:05.624178,2135171,433,266,-2456,-1036,-572,-318,155,205,-475
44081,5033,0,2023-03-01T18:59:05.628838,2135176,433,266,-2460,-1038,-573,-325,155,205,-475
44082,5034,0,2023-03-01T18:59:05.635086,2135181,433,266,-2460,-1038,-573,-325,155,205,-475
44083,5035,0,2023-03-01T18:59:05.640247,2135187,433,266,-2460,-1038,-573,-325,155,205,-475
44084,5036,0,2023-03-01T18:59:05.646175,2135192,433,266,-2460,-1038,-573,-325,155,205,-475
44085,5037,0,2023-03-01T18:59:05.651051,2135197,430,270,-2454,-1037,-572,-315,155,205,-475
44086,5038,0,2023-03-01T18:59:05.657285,2135203,430,270,-2454,-1037,-572,-315,155,205,-475
44087,5039,0,2023-03-01T18:59:05.663021,2135209,430,270,-2454,-1037,-572,-315,155,205,-475
44088,5040,0,2023-03-01T18:59:05.668101,2135215,432,266,-2449,-1031,-569,-308,155,205,-475
44089,5041,0,2023-03-01T18:59:05.674659,2135221,432,266,-2449,-1031,-569,-308,155,205,-475
44090,5042,0,2023-03-01T18:59:05.680462,2135227,432,266,-2449,-1031,-569,-308,155,205,-475
44091,5043,0,2023-03-01T18:59:05.685945,2135232,432,266,-2449,-1031,-569,-308,155,205,-475
44092,5044,0,2023-03-01T18:59:05.690993,2135237,432,264,-2455,-1031,-576,-319,154,202,-482
44093,5045,0,2023-03-01T18:59:05.698327,2135245,432,264,-2455,-1031,-576,-319,154,202,-482
44094,5046,0,2023-03-01T18:59:05.704595,2135250,432,264,-2455,-1031,-576,-319,154,202,-482
44095,5047,0,2023-03-01T18:59:05.710263,2135257,431,266,-2454,-1042,-572,-321,154,202,-482
44096,5048,0,2023-03-01T18:59:05.716401,2135263,431,266,-2454,-1042,-572,-321,154,202,-482
44097,5049,0,2023-03-01T18:59:05.721600,2135268,431,266,-2454,-1042,-572,-321,154,202,-482
44098,5050,0,2023-03-01T18:59:05.727435,2135274,430,265,-2450,-1038,-571,-324,154,202,-482
44099,5051,0,2023-03-01T18:59:05.733573,2135280,430,265,-2450,-1038,-571,-324,154,202,-482
44100,5052,0,2023-03-01T18:59:05.739161,2135285,430,265,-2450,-1038,-571,-324,154,202,-482
44101,5053,0,2023-03-01T18:59:05.744664,2135291,430,265,-2450,-1038,-571,-324,154,202,-482
44102,5054,0,2023-03-01T18:59:05.749557,2135296,432,266,-2450,-1047,-574,-313,154,202,-482
44103,5055,0,2023-03-01T18:59:05.756414,2135303,432,266,-2450,-1047,-574,-313,154,202,-482
44104,5056,0,2023-03-01T18:59:05.761250,2135308,432,266,-2450,-1047,-574,-313,154,202,-482
44105,5057,0,2023-03-01T18:59:05.766610,2135313,432,266,-2450,-1047,-574,-313,154,202,-482
44106,5058,0,2023-03-01T18:59:05.771331,2135318,434,269,-2454,-1038,-574,-312,154,202,-482
44107,5059,0,2023-03-01T18:59:05.778121,2135324,434,269,-2454,-1038,-574,-312,154,202,-482
44108,5060,0,2023-03-01T18:59:05.784033,2135330,434,269,-2454,-1038,-574,-312,154,202,-482
44109,5061,0,2023-03-01T18:59:05.789080,2135335,430,265,-2450,-1042,-579,-316,154,202,-482
44110,5062,0,2023-03-01T18:59:05.795187,2135342,430,265,-2450,-1042,-579,-316,154,202,-482
44111,5063,0,2023-03-01T18:59:05.801597,2135347,430,265,-2450,-1042,-579,-316,154,202,-482
44112,5064,0,2023-03-01T18:59:05.809647,2135356,430,265,-2458,-1036,-572,-313,161,205,-481
44113,5065,0,2023-03-01T18:59:05.815923,2135362,430,265,-2458,-1036,-572,-313,161,205,-481
44114,5066,0,2023-03-01T18:59:05.821180,2135368,430,265,-2458,-1036,-572,-313,161,205,-481
44115,5067,0,2023-03-01T18:59:05.826960,2135373,430,265,-2458,-1036,-572,-313,161,205,-481
44116,5068,0,2023-03-01T18:59:05.832298,2135378,431,265,-2452,-1042,-582,-319,161,205,-481
44117,5069,0,2023-03-01T18:59:05.838275,2135385,431,265,-2452,-1042,-582,-319,161,205,-481
44118,5070,0,2023-03-01T18:59:05.844854,2135391,431,265,-2452,-1042,-582,-319,161,205,-481
44119,5071,0,2023-03-01T18:59:05.849812,2135397,433,266,-2455,-1039,-573,-319,161,205,-481
44120,5072,0,2023-03-01T18:59:05.855956,2135402,433,266,-2455,-1039,-573,-319,161,205,-481
44121,5073,0,2023-03-01T18:59:05.861448,2135408,433,266,-2455,-1039,-573,-319,161,205,-481
44122,5074,0,2023-03-01T18:59:05.867182,2135413,433,266,-2455,-1039,-573,-319,161,205,-481
44123,5075,0,2023-03-01T18:59:05.872018,2135418,434,266,-2458,-1045,-575,-314,161,205,-481
44124,5076,0,2023-03-01T18:59:05.878085,2135425,434,266,-2458,-1045,-575,-314,161,205,-481
44125,5077,0,2023-03-01T18:59:05.884315,2135431,434,266,-2458,-1045,-575,-314,161,205,-481
44126,5078,0,2023-03-01T18:59:05.889670,2135436,433,265,-2455,-1035,-565,-324,161,205,-481
44127,5079,0,2023-03-01T18:59:05.895775,2135442,433,265,-2455,-1035,-565,-324,161,205,-481
44128,5080,0,2023-03-01T18:59:05.901076,2135447,433,265,-2455,-1035,-565,-324,161,205,-481
44129,5081,0,2023-03-01T18:59:05.906558,2135453,433,265,-2455,-1035,-565,-324,161,205,-481
44130,5082,0,2023-03-01T18:59:05.912543,2135457,434,266,-2456,-1037,-564,-320,161,205,-481
44131,5083,0,2023-03-01T18:59:05.918826,2135465,434,266,-2456,-1037,-564,-320,161,205,-481
44132,5084,0,2023-03-01T18:59:05.925043,2135472,434,266,-2456,-1037,-564,-320,161,205,-481
44133,5085,0,2023-03-01T18:59:05.929736,2135477,434,266,-2456,-1037,-564,-320,161,205,-481
44134,5086,0,2023-03-01T18:59:05.934592,2135481,434,266,-2456,-1037,-564,-320,161,205,-481
44135,5087,0,2023-03-01T18:59:05.939564,2135486,434,266,-2456,-1037,-564,-320,161,205,-481
44136,5088,0,2023-03-01T18:59:05.945162,2135492,434,266,-2456,-1037,-564,-320,161,205,-481
44137,5089,0,2023-03-01T18:59:05.950077,2135496,432,269,-2450,-1042,-579,-323,153,207,-477
44138,5090,0,2023-03-01T18:59:05.956161,2135502,432,269,-2450,-1042,-579,-323,153,207,-477
44139,5091,0,2023-03-01T18:59:05.960989,2135507,432,269,-2450,-1042,-579,-323,153,207,-477
44140,5092,0,2023-03-01T18:59:05.966635,2135513,432,269,-2450,-1042,-579,-323,153,207,-477
44141,5093,0,2023-03-01T18:59:05.971599,2135518,432,266,-2455,-1038,-572,-317,153,207,-477
44142,5094,0,2023-03-01T18:59:05.978053,2135525,432,266,-2455,-1038,-572,-317,153,207,-477
44143,5095,0,2023-03-01T18:59:05.983625,2135530,432,266,-2455,-1038,-572,-317,153,207,-477
44144,5096,0,2023-03-01T18:59:05.988372,2135535,430,266,-2448,-1040,-571,-318,153,207,-477
44145,5097,0,2023-03-01T18:59:05.994306,2135540,430,266,-2448,-1040,-571,-318,153,207,-477
44146,5098,0,2023-03-01T18:59:05.999446,2135545,430,266,-2448,-1040,-571,-318,153,207,-477
44147,5099,0,2023-03-01T18:59:06.005398,2135552,430,266,-2448,-1040,-571,-318,153,207,-477
44148,5100,0,2023-03-01T18:59:06.010168,2135557,431,264,-2455,-1038,-574,-314,153,207,-477
44149,5101,0,2023-03-01T18:59:06.016489,2135563,431,264,-2455,-1038,-574,-314,153,207,-477
44150,5102,0,2023-03-01T18:59:06.021946,2135568,431,264,-2455,-1038,-574,-314,153,207,-477
44151,5103,0,2023-03-01T18:59:06.028008,2135574,430,266,-2453,-1041,-579,-312,153,207,-477
44152,5104,0,2023-03-01T18:59:06.034691,2135580,430,266,-2453,-1041,-579,-312,153,207,-477
44153,5105,0,2023-03-01T18:59:06.039450,2135586,430,266,-2453,-1041,-579,-312,153,207,-477
44154,5106,0,2023-03-01T18:59:06.044934,2135591,430,266,-2453,-1041,-579,-312,153,207,-477
44155,5107,0,2023-03-01T18:59:06.049926,2135597,432,265,-2457,-1039,-575,-311,153,207,-477
44156,5108,0,2023-03-01T18:59:06.057225,2135603,432,265,-2457,-1039,-575,-311,153,207,-477
44157,5109,0,2023-03-01T18:59:06.062335,2135609,432,265,-2457,-1039,-575,-311,153,207,-477
44158,5110,0,2023-03-01T18:59:06.067632,2135614,432,265,-2457,-1039,-575,-311,153,207,-477
44159,5111,0,2023-03-01T18:59:06.072480,2135619,434,268,-2452,-1031,-575,-319,147,209,-475
44160,5112,0,2023-03-01T18:59:06.080041,2135625,434,268,-2452,-1031,-575,-319,147,209,-475
44161,5113,0,2023-03-01T18:59:06.086222,2135632,434,268,-2452,-1031,-575,-319,147,209,-475
44162,5114,0,2023-03-01T18:59:06.091050,2135638,434,266,-2452,-1039,-580,-311,147,209,-475
44163,5115,0,2023-03-01T18:59:06.097420,2135644,434,266,-2452,-1039,-580,-311,147,209,-475
44164,5116,0,2023-03-01T18:59:06.102213,2135649,434,266,-2452,-1039,-580,-311,147,209,-475
44165,5117,0,2023-03-01T18:59:06.107305,2135654,434,266,-2452,-1039,-580,-311,147,209,-475
44166,5118,0,2023-03-01T18:59:06.113102,2135659,432,262,-2457,-1042,-575,-313,147,209,-475
44167,5119,0,2023-03-01T18:59:06.119495,2135666,432,262,-2457,-1042,-575,-313,147,209,-475
44168,5120,0,2023-03-01T18:59:06.125185,2135671,432,262,-2457,-1042,-575,-313,147,209,-475
44169,5121,0,2023-03-01T18:59:06.132119,2135678,433,266,-2454,-1034,-570,-311,147,209,-475
44170,5122,0,2023-03-01T18:59:06.138554,2135685,433,266,-2454,-1034,-570,-311,147,209,-475
44171,5123,0,2023-03-01T18:59:06.144195,2135691,433,266,-2454,-1034,-570,-311,147,209,-475
44172,5124,0,2023-03-01T18:59:06.149366,2135696,434,265,-2455,-1042,-568,-312,147,209,-475
44173,5125,0,2023-03-01T18:59:06.155568,2135702,434,265,-2455,-1042,-568,-312,147,209,-475
44174,5126,0,2023-03-01T18:59:06.160491,2135707,434,265,-2455,-1042,-568,-312,147,209,-475
44175,5127,0,2023-03-01T18:59:06.166036,2135712,434,265,-2455,-1042,-568,-312,147,209,-475
44176,5128,0,2023-03-01T18:59:06.171072,2135717,432,266,-2461,-1035,-572,-323,147,209,-475
44177,5129,0,2023-03-01T18:59:06.177816,2135724,432,266,-2461,-1035,-572,-323,147,209,-475
44178,5130,0,2023-03-01T18:59:06.184170,2135731,432,266,-2461,-1035,-572,-323,147,209,-475
44179,5131,0,2023-03-01T18:59:06.189622,2135736,432,268,-2455,-1037,-572,-318,147,209,-475
44180,5132,0,2023-03-01T18:59:06.195124,2135742,432,268,-2455,-1037,-572,-318,147,209,-475
44181,5133,0,2023-03-01T18:59:06.200570,2135747,432,268,-2455,-1037,-572,-318,147,209,-475
44182,5134,0,2023-03-01T18:59:06.206625,2135752,432,268,-2455,-1037,-572,-318,147,209,-475
44183,5135,0,2023-03-01T18:59:06.211509,2135758,431,265,-2452,-1033,-575,-317,152,206,-472
44184,5136,0,2023-03-01T18:59:06.217648,2135764,431,265,-2452,-1033,-575,-317,152,206,-472
44185,5137,0,2023-03-01T18:59:06.223451,2135770,431,265,-2452,-1033,-575,-317,152,206,-472
44186,5138,0,2023-03-01T18:59:06.228675,2135775,430,265,-2456,-1036,-578,-321,152,206,-472
44187,5139,0,2023-03-01T18:59:06.235206,2135781,430,265,-2456,-1036,-578,-321,152,206,-472
44188,5140,0,2023-03-01T18:59:06.241724,2135788,430,265,-2456,-1036,-578,-321,152,206,-472
44189,5141,0,2023-03-01T18:59:06.247290,2135793,430,265,-2456,-1036,-578,-321,152,206,-472
44190,5142,0,2023-03-01T18:59:06.252538,2135798,435,265,-2449,-1042,-572,-317,152,206,-472
44191,5143,0,2023-03-01T18:59:06.259256,2135805,435,265,-2449,-1042,-572,-317,152,206,-472
44192,5144,0,2023-03-01T18:59:06.264764,2135812,435,265,-2449,-1042,-572,-317,152,206,-472
44193,5145,0,2023-03-01T18:59:06.269537,2135816,429,264,-2451,-1044,-565,-313,152,206,-472
44194,5146,0,2023-03-01T18:59:06.275251,2135822,429,264,-2451,-1044,-565,-313,152,206,-472
44195,5147,0,2023-03-01T18:59:06.280471,2135827,429,264,-2451,-1044,-565,-313,152,206,-472
44196,5148,0,2023-03-01T18:59:06.286018,2135832,429,264,-2451,-1044,-565,-313,152,206,-472
44197,5149,0,2023-03-01T18:59:06.291150,2135837,432,267,-2454,-1044,-575,-317,152,206,-472
44198,5150,0,2023-03-01T18:59:06.297125,2135843,432,267,-2454,-1044,-575,-317,152,206,-472
44199,5151,0,2023-03-01T18:59:06.302209,2135848,432,267,-2454,-1044,-575,-317,152,206,-472
44200,5152,0,2023-03-01T18:59:06.307222,2135854,432,267,-2454,-1044,-575,-317,152,206,-472
44201,5153,0,2023-03-01T18:59:06.312288,2135859,430,267,-2456,-1044,-571,-315,152,206,-472
44202,5154,0,2023-03-01T18:59:06.318667,2135865,430,267,-2456,-1044,-571,-315,152,206,-472
44203,5155,0,2023-03-01T18:59:06.324839,2135871,430,267,-2456,-1044,-571,-315,152,206,-472
44204,5156,0,2023-03-01T18:59:06.329824,2135876,429,265,-2450,-1036,-573,-320,152,208,-470
44205,5157,0,2023-03-01T18:59:06.335990,2135882,429,265,-2450,-1036,-573,-320,152,208,-470
44206,5158,0,2023-03-01T18:59:06.341140,2135887,429,265,-2450,-1036,-573,-320,152,208,-470
44207,5159,0,2023-03-01T18:59:06.346991,2135894,429,265,-2450,-1036,-573,-320,152,208,-470
44208,5160,0,2023-03-01T18:59:06.352286,2135899,433,264,-2456,-1029,-574,-319,152,208,-470
44209,5161,0,2023-03-01T18:59:06.358524,2135905,433,264,-2456,-1029,-574,-319,152,208,-470
44210,5162,0,2023-03-01T18:59:06.364509,2135911,433,264,-2456,-1029,-574,-319,152,208,-470
44211,5163,0,2023-03-01T18:59:06.369781,2135916,435,269,-2455,-1032,-573,-313,152,208,-470
44212,5164,0,2023-03-01T18:59:06.375749,2135922,435,269,-2455,-1032,-573,-313,152,208,-470
44213,5165,0,2023-03-01T18:59:06.380906,2135927,435,269,-2455,-1032,-573,-313,152,208,-470
44214,5166,0,2023-03-01T18:59:06.386699,2135933,435,269,-2455,-1032,-573,-313,152,208,-470
44215,5167,0,2023-03-01T18:59:06.391926,2135939,431,264,-2457,-1036,-573,-317,152,208,-470
44216,5168,0,2023-03-01T18:59:06.398446,2135945,431,264,-2457,-1036,-573,-317,152,208,-470
44217,5169,0,2023-03-01T18:59:06.403947,2135951,431,264,-2457,-1036,-573,-317,152,208,-470
44218,5170,0,2023-03-01T18:59:06.409352,2135956,433,263,-2455,-1042,-580,-318,152,208,-470
44219,5171,0,2023-03-01T18:59:06.415251,2135961,433,263,-2455,-1042,-580,-318,152,208,-470
44220,5172,0,2023-03-01T18:59:06.421053,2135967,433,263,-2455,-1042,-580,-318,152,208,-470
44221,5173,0,2023-03-01T18:59:06.425884,2135972,433,263,-2455,-1042,-580,-318,152,208,-470
44222,5174,0,2023-03-01T18:59:06.430607,2135977,431,266,-2454,-1046,-572,-321,152,208,-470
44223,5175,0,2023-03-01T18:59:06.436931,2135984,431,266,-2454,-1046,-572,-321,152,208,-470
44224,5176,0,2023-03-01T18:59:06.442094,2135989,431,266,-2454,-1046,-572,-321,152,208,-470
44225,5177,0,2023-03-01T18:59:06.447658,2135994,431,266,-2454,-1046,-572,-321,152,208,-470
44226,5178,0,2023-03-01T18:59:06.453085,2135999,431,264,-2464,-1036,-569,-320,152,208,-470
44227,5179,0,2023-03-01T18:59:06.459960,2136006,431,264,-2464,-1036,-569,-320,152,208,-470
44228,5180,0,2023-03-01T18:59:06.468168,2136012,431,264,-2464,-1036,-569,-320,152,208,-470
44229,5181,0,2023-03-01T18:59:06.473509,2136019,436,262,-2449,-1037,-565,-317,151,213,-475
44230,5182,0,2023-03-01T18:59:06.480350,2136027,436,262,-2449,-1037,-565,-317,151,213,-475
44231,5183,0,2023-03-01T18:59:06.486088,2136033,436,262,-2449,-1037,-565,-317,151,213,-475
44232,5184,0,2023-03-01T18:59:06.491517,2136038,432,267,-2453,-1034,-577,-318,151,213,-475
44233,5185,0,2023-03-01T18:59:06.497744,2136044,432,267,-2453,-1034,-577,-318,151,213,-475
44234,5186,0,2023-03-01T18:59:06.503266,2136050,432,267,-2453,-1034,-577,-318,151,213,-475
44235,5187,0,2023-03-01T18:59:06.507948,2136054,432,267,-2453,-1034,-577,-318,151,213,-475
44236,5188,0,2023-03-01T18:59:06.512650,2136059,433,266,-2457,-1042,-574,-325,151,213,-475
44237,5189,0,2023-03-01T18:59:06.519634,2136066,433,266,-2457,-1042,-574,-325,151,213,-475
44238,5190,0,2023-03-01T18:59:06.525229,2136072,433,266,-2457,-1042,-574,-325,151,213,-475
44239,5191,0,2023-03-01T18:59:06.530182,2136077,432,266,-2455,-1044,-573,-328,151,213,-475
44240,5192,0,2023-03-01T18:59:06.536588,2136083,432,266,-2455,-1044,-573,-328,151,213,-475
44241,5193,0,2023-03-01T18:59:06.541694,2136088,432,266,-2455,-1044,-573,-328,151,213,-475
44242,5194,0,2023-03-01T18:59:06.548060,2136094,432,266,-2455,-1044,-573,-328,151,213,-475
44243,5195,0,2023-03-01T18:59:06.553522,2136099,433,265,-2455,-1033,-572,-323,151,213,-475
44244,5196,0,2023-03-01T18:59:06.561408,2136108,433,265,-2455,-1033,-572,-323,151,213,-475
44245,5197,0,2023-03-01T18:59:06.567542,2136114,433,265,-2455,-1033,-572,-323,151,213,-475
44246,5198,0,2023-03-01T18:59:06.572584,2136119,432,264,-2454,-1036,-574,-324,151,213,-475
44247,5199,0,2023-03-01T18:59:06.578515,2136125,432,264,-2454,-1036,-574,-324,151,213,-475
44248,5200,0,2023-03-01T18:59:06.584344,2136131,432,264,-2454,-1036,-574,-324,151,213,-475
44249,5201,0,2023-03-01T18:59:06.589244,2136136,431,266,-2450,-1033,-571,-327,144,208,-472
44250,5202,0,2023-03-01T18:59:06.594731,2136141,431,266,-2450,-1033,-571,-327,144,208,-472
44251,5203,0,2023-03-01T18:59:06.599633,2136146,431,266,-2450,-1033,-571,-327,144,208,-472
44252,5204,0,2023-03-01T18:59:06.605421,2136152,431,266,-2450,-1033,-571,-327,144,208,-472
44253,5205,0,2023-03-01T18:59:06.610559,2136157,432,266,-2448,-1043,-575,-312,144,208,-472
44254,5206,0,2023-03-01T18:59:06.617161,2136164,432,266,-2448,-1043,-575,-312,144,208,-472
44255,5207,0,2023-03-01T18:59:06.622908,2136169,432,266,-2448,-1043,-575,-312,144,208,-472
44256,5208,0,2023-03-01T18:59:06.627831,2136174,432,266,-2448,-1043,-575,-312,144,208,-472
44257,5209,0,2023-03-01T18:59:06.632652,2136179,433,267,-2458,-1041,-580,-320,144,208,-472
44258,5210,0,2023-03-01T18:59:06.638718,2136185,433,267,-2458,-1041,-580,-320,144,208,-472
44259,5211,0,2023-03-01T18:59:06.644525,2136190,433,267,-2458,-1041,-580,-320,144,208,-472
44260,5212,0,2023-03-01T18:59:06.649721,2136196,430,267,-2450,-1034,-575,-324,144,208,-472
44261,5213,0,2023-03-01T18:59:06.655054,2136202,430,267,-2450,-1034,-575,-324,144,208,-472
44262,5214,0,2023-03-01T18:59:06.660317,2136207,430,267,-2450,-1034,-575,-324,144,208,-472
44263,5215,0,2023-03-01T18:59:06.665694,2136212,430,267,-2450,-1034,-575,-324,144,208,-472
44264,5216,0,2023-03-01T18:59:06.670652,2136217,431,266,-2458,-1039,-570,-319,144,208,-472
44265,5217,0,2023-03-01T18:59:06.678805,2136225,431,266,-2458,-1039,-570,-319,144,208,-472
44266,5218,0,2023-03-01T18:59:06.684262,2136230,431,266,-2458,-1039,-570,-319,144,208,-472
44267,5219,0,2023-03-01T18:59:06.689143,2136236,433,268,-2458,-1039,-566,-318,144,208,-472
44268,5220,0,2023-03-01T18:59:06.694643,2136241,433,268,-2458,-1039,-566,-318,144,208,-472
44269,5221,0,2023-03-01T18:59:06.699781,2136246,433,268,-2458,-1039,-566,-318,144,208,-472
44270,5222,0,2023-03-01T18:59:06.705608,2136252,433,268,-2458,-1039,-566,-318,144,208,-472
44271,5223,0,2023-03-01T18:59:06.710255,2136257,430,266,-2448,-1038,-565,-320,154,206,-480
44272,5224,0,2023-03-01T18:59:06.716481,2136263,430,266,-2448,-1038,-565,-320,154,206,-480
44273,5225,0,2023-03-01T18:59:06.721844,2136268,430,266,-2448,-1038,-565,-320,154,206,-480
44274,5226,0,2023-03-01T18:59:06.727631,2136274,430,266,-2448,-1038,-565,-320,154,206,-480
44275,5227,0,2023-03-01T18:59:06.732552,2136279,430,268,-2452,-1036,-564,-316,154,206,-480
44276,5228,0,2023-03-01T18:59:06.738608,2136285,430,268,-2452,-1036,-564,-316,154,206,-480
44277,5229,0,2023-03-01T18:59:06.744221,2136291,430,268,-2452,-1036,-564,-316,154,206,-480
44278,5230,0,2023-03-01T18:59:06.750118,2136296,433,266,-2457,-1031,-566,-319,154,206,-480
44279,5231,0,2023-03-01T18:59:06.755510,2136302,433,266,-2457,-1031,-566,-319,154,206,-480
44280,5232,0,2023-03-01T18:59:06.761100,2136307,433,266,-2457,-1031,-566,-319,154,206,-480
44281,5233,0,2023-03-01T18:59:06.766653,2136313,433,266,-2457,-1031,-566,-319,154,206,-480
44282,5234,0,2023-03-01T18:59:06.771674,2136318,432,267,-2457,-1038,-569,-312,154,206,-480
44283,5235,0,2023-03-01T18:59:06.777688,2136325,432,267,-2457,-1038,-569,-312,154,206,-480
44284,5236,0,2023-03-01T18:59:06.783697,2136330,432,267,-2457,-1038,-569,-312,154,206,-480
44285,5237,0,2023-03-01T18:59:06.788927,2136336,429,265,-2457,-1036,-577,-320,154,206,-480
44286,5238,0,2023-03-01T18:59:06.794675,2136341,429,265,-2457,-1036,-577,-320,154,206,-480
44287,5239,0,2023-03-01T18:59:06.799671,2136346,429,265,-2457,-1036,-577,-320,154,206,-480
44288,5240,0,2023-03-01T18:59:06.806118,2136351,429,265,-2457,-1036,-577,-320,154,206,-480
44289,5241,0,2023-03-01T18:59:06.811013,2136357,431,264,-2458,-1041,-575,-322,154,206,-480
44290,5242,0,2023-03-01T18:59:06.817364,2136364,431,264,-2458,-1041,-575,-322,154,206,-480
44291,5243,0,2023-03-01T18:59:06.822999,2136370,431,264,-2458,-1041,-575,-322,154,206,-480
44292,5244,0,2023-03-01T18:59:06.828340,2136375,431,264,-2458,-1041,-575,-322,154,206,-480
44293,5245,0,2023-03-01T18:59:06.833548,2136380,432,265,-2455,-1038,-579,-318,154,206,-480
44294,5246,0,2023-03-01T18:59:06.838767,2136385,432,265,-2455,-1038,-579,-318,154,206,-480
44295,5247,0,2023-03-01T18:59:06.844212,2136390,432,265,-2455,-1038,-579,-318,154,206,-480
44296,5248,0,2023-03-01T18:59:06.849168,2136395,432,265,-2453,-1033,-569,-321,152,208,-478
44297,5249,0,2023-03-01T18:59:06.854759,2136401,432,265,-2453,-1033,-569,-321,152,208,-478
44298,5250,0,2023-03-01T18:59:06.860471,2136407,432,265,-2453,-1033,-569,-321,152,208,-478
44299,5251,0,2023-03-01T18:59:06.867930,2136415,432,265,-2453,-1033,-569,-321,152,208,-478
44300,5252,0,2023-03-01T18:59:06.873083,2136420,430,264,-2455,-1024,-578,-310,152,208,-478
44301,5253,0,2023-03-01T18:59:06.879149,2136426,430,264,-2455,-1024,-578,-310,152,208,-478
44302,5254,0,2023-03-01T18:59:06.884941,2136431,430,264,-2455,-1024,-578,-310,152,208,-478
44303,5255,0,2023-03-01T18:59:06.889993,2136436,430,266,-2452,-1043,-573,-317,152,208,-478
44304,5256,0,2023-03-01T18:59:06.895695,2136441,430,266,-2452,-1043,-573,-317,152,208,-478
44305,5257,0,2023-03-01T18:59:06.900712,2136448,430,266,-2452,-1043,-573,-317,152,208,-478
44306,5258,0,2023-03-01T18:59:06.906573,2136454,430,266,-2452,-1043,-573,-317,152,208,-478
44307,5259,0,2023-03-01T18:59:06.911426,2136458,433,266,-2454,-1034,-575,-316,152,208,-478
44308,5260,0,2023-03-01T18:59:06.917522,2136464,433,266,-2454,-1034,-575,-316,152,208,-478
44309,5261,0,2023-03-01T18:59:06.924045,2136470,433,266,-2454,-1034,-575,-316,152,208,-478
44310,5262,0,2023-03-01T18:59:06.929503,2136476,431,264,-2457,-1039,-574,-321,152,208,-478
44311,5263,0,2023-03-01T18:59:06.934910,2136481,431,264,-2457,-1039,-574,-321,152,208,-478
44312,5264,0,2023-03-01T18:59:06.939756,2136486,431,264,-2457,-1039,-574,-321,152,208,-478
44313,5265,0,2023-03-01T18:59:06.945428,2136492,431,264,-2457,-1039,-574,-321,152,208,-478
44314,5266,0,2023-03-01T18:59:06.950519,2136497,433,267,-2449,-1039,-571,-315,152,208,-478
44315,5267,0,2023-03-01T18:59:06.955960,2136503,433,267,-2449,-1039,-571,-315,152,208,-478
44316,5268,0,2023-03-01T18:59:06.960757,2136507,433,267,-2449,-1039,-571,-315,152,208,-478
44317,5269,0,2023-03-01T18:59:06.966208,2136513,433,267,-2449,-1039,-571,-315,152,208,-478
44318,5270,0,2023-03-01T18:59:06.971407,2136518,429,265,-2452,-1037,-573,-319,153,211,-483
44319,5271,0,2023-03-01T18:59:06.977427,2136524,429,265,-2452,-1037,-573,-319,153,211,-483
44320,5272,0,2023-03-01T18:59:06.983212,2136529,429,265,-2452,-1037,-573,-319,153,211,-483
44321,5273,0,2023-03-01T18:59:06.987958,2136535,429,265,-2452,-1037,-573,-319,153,211,-483
44322,5274,0,2023-03-01T18:59:06.992743,2136540,430,264,-2449,-1038,-568,-315,153,211,-483
44323,5275,0,2023-03-01T18:59:06.998568,2136545,430,264,-2449,-1038,-568,-315,153,211,-483
44324,5276,0,2023-03-01T18:59:07.004216,2136551,430,264,-2449,-1038,-568,-315,153,211,-483
44325,5277,0,2023-03-01T18:59:07.009287,2136556,432,270,-2451,-1035,-573,-315,153,211,-483
44326,5278,0,2023-03-01T18:59:07.015210,2136562,432,270,-2451,-1035,-573,-315,153,211,-483
44327,5279,0,2023-03-01T18:59:07.020121,2136566,432,270,-2451,-1035,-573,-315,153,211,-483
44328,5280,0,2023-03-01T18:59:07.025580,2136572,432,270,-2451,-1035,-573,-315,153,211,-483
44329,5281,0,2023-03-01T18:59:07.030764,2136578,433,265,-2452,-1039,-571,-314,153,211,-483
44330,5282,0,2023-03-01T18:59:07.037219,2136584,433,265,-2452,-1039,-571,-314,153,211,-483
44331,5283,0,2023-03-01T18:59:07.042744,2136590,433,265,-2452,-1039,-571,-314,153,211,-483
44332,5284,0,2023-03-01T18:59:07.047718,2136594,433,265,-2452,-1039,-571,-314,153,211,-483
44333,5285,0,2023-03-01T18:59:07.052666,2136599,433,266,-2457,-1037,-571,-318,153,211,-483
44334,5286,0,2023-03-01T18:59:07.058848,2136605,433,266,-2457,-1037,-571,-318,153,211,-483
44335,5287,0,2023-03-01T18:59:07.064231,2136610,433,266,-2457,-1037,-571,-318,153,211,-483
44336,5288,0,2023-03-01T18:59:07.069288,2136615,432,265,-2458,-1035,-570,-316,153,211,-483
44337,5289,0,2023-03-01T18:59:07.074695,2136622,432,265,-2458,-1035,-570,-316,153,211,-483
44338,5290,0,2023-03-01T18:59:07.079581,2136626,432,265,-2458,-1035,-570,-316,153,211,-483
44339,5291,0,2023-03-01T18:59:07.085544,2136632,432,265,-2458,-1035,-570,-316,153,211,-483
44340,5292,0,2023-03-01T18:59:07.090488,2136637,434,265,-2455,-1031,-572,-315,153,211,-483
44341,5293,0,2023-03-01T18:59:07.096365,2136643,434,265,-2455,-1031,-572,-315,153,211,-483
44342,5294,0,2023-03-01T18:59:07.101488,2136648,434,265,-2455,-1031,-572,-315,153,211,-483
44343,5295,0,2023-03-01T18:59:07.106344,2136652,434,265,-2455,-1031,-572,-315,153,211,-483
44344,5296,0,2023-03-01T18:59:07.111231,2136657,430,270,-2452,-1030,-574,-315,154,210,-474
44345,5297,0,2023-03-01T18:59:07.117733,2136664,430,270,-2452,-1030,-574,-315,154,210,-474
44346,5298,0,2023-03-01T18:59:07.123721,2136670,430,270,-2452,-1030,-574,-315,154,210,-474
44347,5299,0,2023-03-01T18:59:07.128588,2136675,430,270,-2452,-1030,-574,-315,154,210,-474
44348,5300,0,2023-03-01T18:59:07.133430,2136680,433,266,-2451,-1038,-575,-315,154,210,-474
44349,5301,0,2023-03-01T18:59:07.139123,2136685,433,266,-2451,-1038,-575,-315,154,210,-474
44350,5302,0,2023-03-01T18:59:07.144671,2136691,433,266,-2451,-1038,-575,-315,154,210,-474
44351,5303,0,2023-03-01T18:59:07.149800,2136696,432,263,-2453,-1041,-576,-323,154,210,-474
44352,5304,0,2023-03-01T18:59:07.155576,2136702,432,263,-2453,-1041,-576,-323,154,210,-474
44353,5305,0,2023-03-01T18:59:07.160568,2136707,432,263,-2453,-1041,-576,-323,154,210,-474
44354,5306,0,2023-03-01T18:59:07.166177,2136713,432,263,-2453,-1041,-576,-323,154,210,-474
44355,5307,0,2023-03-01T18:59:07.171227,2136718,434,268,-2453,-1036,-570,-317,154,210,-474
44356,5308,0,2023-03-01T18:59:07.177542,2136724,434,268,-2453,-1036,-570,-317,154,210,-474
44357,5309,0,2023-03-01T18:59:07.183047,2136729,434,268,-2453,-1036,-570,-317,154,210,-474
