,Unnamed: 0,imu,server_time,arduino_time,ax,ay,az,gx,gy,gz,mx,my,mz
46630,7582,0,2023-03-01T18:59:19.800229,2149348,1229,1793,-1120,-1030,-574,-320,-11,127,-371
46631,7583,0,2023-03-01T18:59:19.805496,2149353,1229,1796,-1118,-1031,-572,-318,-11,127,-371
46632,7584,0,2023-03-01T18:59:19.811254,2149358,1229,1796,-1118,-1031,-572,-318,-11,127,-371
46633,7585,0,2023-03-01T18:59:19.816820,2149364,1229,1796,-1118,-1031,-572,-318,-11,127,-371
46634,7586,0,2023-03-01T18:59:19.821540,2149368,1229,1796,-1118,-1031,-572,-318,-11,127,-371
46635,7587,0,2023-03-01T18:59:19.828217,2149376,1231,1791,-1123,-1031,-570,-317,-11,127,-371
46636,7588,0,2023-03-01T18:59:19.833964,2149382,1231,1791,-1123,-1031,-570,-317,-11,127,-371
46637,7589,0,2023-03-01T18:59:19.838963,2149386,1231,1791,-1123,-1031,-570,-317,-11,127,-371
46638,7590,0,2023-03-01T18:59:19.844867,2149391,1231,1791,-1123,-1031,-570,-317,-11,127,-371
46639,7591,0,2023-03-01T18:59:19.852359,2149399,1230,1795,-1116,-1036,-575,-323,-15,119,-369
46640,7592,0,2023-03-01T18:59:19.857772,2149405,1230,1795,-1116,-1036,-575,-323,-15,119,-369
46641,7593,0,2023-03-01T18:59:19.862854,2149410,1230,1795,-1116,-1036,-575,-323,-15,119,-369
46642,7594,0,2023-03-01T18:59:19.868777,2149416,1231,1797,-1120,-1033,-572,-322,-15,119,-369
46643,7595,0,2023-03-01T18:59:19.874697,2149422,1231,1797,-1120,-1033,-572,-322,-15,119,-369
46644,7596,0,2023-03-01T18:59:19.879852,2149427,1231,1797,-1120,-1033,-572,-322,-15,119,-369
46645,7597,0,2023-03-01T18:59:19.884983,2149432,1231,1797,-1120,-1033,-572,-322,-15,119,-369
46646,7598,0,2023-03-01T18:59:19.891120,2149438,1231,1793,-1116,-1043,-576,-326,-15,119,-369
46647,7599,0,2023-03-01T18:59:19.897245,2149444,1231,1793,-1116,-1043,-576,-326,-15,119,-369
46648,7600,0,2023-03-01T18:59:19.902341,2149449,1231,1793,-1116,-1043,-576,-326,-15,119,-369
46649,7601,0,2023-03-01T18:59:19.908285,2149455,1231,1795,-1123,-1031,-576,-316,-15,119,-369
46650,7602,0,2023-03-01T18:59:19.913756,2149460,1231,1795,-1123,-1031,-576,-316,-15,119,-369
46651,7603,0,2023-03-01T18:59:19.918539,2149466,1231,1795,-1123,-1031,-576,-316,-15,119,-369
46652,7604,0,2023-03-01T18:59:19.923442,2149471,1231,1795,-1123,-1031,-576,-316,-15,119,-369
46653,7605,0,2023-03-01T18:59:19.930060,2149477,1229,1796,-1123,-1031,-573,-314,-15,119,-369
46654,7606,0,2023-03-01T18:59:19.935836,2149483,1229,1796,-1123,-1031,-573,-314,-15,119,-369
46655,7607,0,2023-03-01T18:59:19.940962,2149488,1229,1796,-1123,-1031,-573,-314,-15,119,-369
46656,7608,0,2023-03-01T18:59:19.945784,2149493,1232,1792,-1126,-1037,-575,-321,-15,119,-369
46657,7609,0,2023-03-01T18:59:19.951941,2149499,1232,1792,-1126,-1037,-575,-321,-15,119,-369
46658,7610,0,2023-03-01T18:59:19.957958,2149505,1232,1792,-1126,-1037,-575,-321,-15,119,-369
46659,7611,0,2023-03-01T18:59:19.963993,2149511,1232,1792,-1126,-1037,-575,-321,-15,119,-369
46660,7612,0,2023-03-01T18:59:19.970064,2149518,1228,1794,-1118,-1041,-570,-319,-11,135,-371
46661,7613,0,2023-03-01T18:59:19.975697,2149523,1228,1794,-1118,-1041,-570,-319,-11,135,-371
46662,7614,0,2023-03-01T18:59:19.980603,2149528,1228,1794,-1118,-1041,-570,-319,-11,135,-371
46663,7615,0,2023-03-01T18:59:19.985090,2149532,1228,1794,-1118,-1041,-570,-319,-11,135,-371
46664,7616,0,2023-03-01T18:59:19.991480,2149538,1229,1793,-1119,-1038,-572,-323,-11,135,-371
46665,7617,0,2023-03-01T18:59:19.997143,2149544,1229,1793,-1119,-1038,-572,-323,-11,135,-371
46666,7618,0,2023-03-01T18:59:20.001981,2149550,1229,1793,-1119,-1038,-572,-323,-11,135,-371
46667,7619,0,2023-03-01T18:59:20.007975,2149555,1229,1795,-1119,-1032,-576,-326,-11,135,-371
46668,7620,0,2023-03-01T18:59:20.013206,2149561,1229,1795,-1119,-1032,-576,-326,-11,135,-371
46669,7621,0,2023-03-01T18:59:20.018331,2149566,1229,1795,-1119,-1032,-576,-326,-11,135,-371
46670,7622,0,2023-03-01T18:59:20.023240,2149570,1229,1795,-1119,-1032,-576,-326,-11,135,-371
46671,7623,0,2023-03-01T18:59:20.028651,2149576,1231,1797,-1125,-1042,-570,-329,-11,135,-371
46672,7624,0,2023-03-01T18:59:20.034166,2149581,1231,1797,-1125,-1042,-570,-329,-11,135,-371
46673,7625,0,2023-03-01T18:59:20.039062,2149586,1231,1797,-1125,-1042,-570,-329,-11,135,-371
46674,7626,0,2023-03-01T18:59:20.043963,2149592,1231,1797,-1125,-1042,-570,-329,-11,135,-371
46675,7627,0,2023-03-01T18:59:20.050338,2149598,1230,1793,-1121,-1032,-572,-322,-11,135,-371
46676,7628,0,2023-03-01T18:59:20.055977,2149603,1230,1793,-1121,-1032,-572,-322,-11,135,-371
46677,7629,0,2023-03-01T18:59:20.060987,2149608,1230,1793,-1121,-1032,-572,-322,-11,135,-371
46678,7630,0,2023-03-01T18:59:20.066449,2149613,1231,1795,-1122,-1039,-569,-322,-11,135,-371
46679,7631,0,2023-03-01T18:59:20.074653,2149621,1231,1795,-1122,-1039,-569,-322,-11,135,-371
46680,7632,0,2023-03-01T18:59:20.079837,2149627,1231,1795,-1122,-1039,-569,-322,-11,135,-371
46681,7633,0,2023-03-01T18:59:20.084454,2149632,1231,1795,-1122,-1039,-569,-322,-11,135,-371
46682,7634,0,2023-03-01T18:59:20.090222,2149638,1231,1795,-1118,-1033,-576,-313,-11,135,-371
46683,7635,0,2023-03-01T18:59:20.095697,2149643,1231,1795,-1118,-1033,-576,-313,-11,135,-371
46684,7636,0,2023-03-01T18:59:20.100822,2149648,1231,1795,-1118,-1033,-576,-313,-11,135,-371
46685,7637,0,2023-03-01T18:59:20.105990,2149653,1230,1793,-1116,-1037,-581,-313,-19,125,-383
46686,7638,0,2023-03-01T18:59:20.113795,2149661,1230,1793,-1116,-1037,-581,-313,-19,125,-383
46687,7639,0,2023-03-01T18:59:20.119105,2149666,1230,1793,-1116,-1037,-581,-313,-19,125,-383
46688,7640,0,2023-03-01T18:59:20.124444,2149671,1230,1793,-1116,-1037,-581,-313,-19,125,-383
46689,7641,0,2023-03-01T18:59:20.131244,2149679,1230,1793,-1119,-1031,-570,-321,-19,125,-383
46690,7642,0,2023-03-01T18:59:20.136774,2149684,1230,1793,-1119,-1031,-570,-321,-19,125,-383
46691,7643,0,2023-03-01T18:59:20.141696,2149689,1230,1793,-1119,-1031,-570,-321,-19,125,-383
46692,7644,0,2023-03-01T18:59:20.147454,2149695,1231,1795,-1122,-1038,-571,-326,-19,125,-383
46693,7645,0,2023-03-01T18:59:20.154329,2149701,1231,1795,-1122,-1038,-571,-326,-19,125,-383
46694,7646,0,2023-03-01T18:59:20.159769,2149706,1231,1795,-1122,-1038,-571,-326,-19,125,-383
46695,7647,0,2023-03-01T18:59:20.165186,2149712,1231,1795,-1122,-1038,-571,-326,-19,125,-383
46696,7648,0,2023-03-01T18:59:20.170890,2149719,1229,1796,-1124,-1041,-573,-317,-19,125,-383
46697,7649,0,2023-03-01T18:59:20.177266,2149724,1229,1796,-1124,-1041,-573,-317,-19,125,-383
46698,7650,0,2023-03-01T18:59:20.183390,2149730,1229,1796,-1124,-1041,-573,-317,-19,125,-383
46699,7651,0,2023-03-01T18:59:20.189779,2149737,1227,1795,-1121,-1036,-578,-321,-19,125,-383
46700,7652,0,2023-03-01T18:59:20.195452,2149743,1227,1795,-1121,-1036,-578,-321,-19,125,-383
46701,7653,0,2023-03-01T18:59:20.200136,2149747,1227,1795,-1121,-1036,-578,-321,-19,125,-383
46702,7654,0,2023-03-01T18:59:20.205188,2149752,1227,1795,-1121,-1036,-578,-321,-19,125,-383
46703,7655,0,2023-03-01T18:59:20.210528,2149757,1229,1796,-1125,-1038,-578,-322,-19,125,-383
46704,7656,0,2023-03-01T18:59:20.216426,2149764,1229,1796,-1125,-1038,-578,-322,-19,125,-383
46705,7657,0,2023-03-01T18:59:20.221543,2149769,1229,1796,-1125,-1038,-578,-322,-19,125,-383
46706,7658,0,2023-03-01T18:59:20.228292,2149776,1228,1793,-1117,-1039,-571,-329,-19,125,-377
46707,7659,0,2023-03-01T18:59:20.234575,2149782,1228,1793,-1117,-1039,-571,-329,-19,125,-377
46708,7660,0,2023-03-01T18:59:20.239914,2149787,1228,1793,-1117,-1039,-571,-329,-19,125,-377
46709,7661,0,2023-03-01T18:59:20.244716,2149792,1228,1793,-1117,-1039,-571,-329,-19,125,-377
46710,7662,0,2023-03-01T18:59:20.251230,2149798,1230,1798,-1121,-1027,-570,-329,-19,125,-377
46711,7663,0,2023-03-01T18:59:20.257319,2149805,1230,1798,-1121,-1027,-570,-329,-19,125,-377
46712,7664,0,2023-03-01T18:59:20.262115,2149810,1230,1798,-1121,-1027,-570,-329,-19,125,-377
46713,7665,0,2023-03-01T18:59:20.268224,2149816,1229,1795,-1120,-1030,-571,-321,-19,125,-377
46714,7666,0,2023-03-01T18:59:20.274216,2149821,1229,1795,-1120,-1030,-571,-321,-19,125,-377
46715,7667,0,2023-03-01T18:59:20.279617,2149827,1229,1795,-1120,-1030,-571,-321,-19,125,-377
46716,7668,0,2023-03-01T18:59:20.284888,2149831,1229,1795,-1120,-1030,-571,-321,-19,125,-377
46717,7669,0,2023-03-01T18:59:20.292092,2149839,1228,1794,-1116,-1037,-572,-328,-19,125,-377
46718,7670,0,2023-03-01T18:59:20.298737,2149846,1228,1794,-1116,-1037,-572,-328,-19,125,-377
46719,7671,0,2023-03-01T18:59:20.303658,2149851,1228,1794,-1116,-1037,-572,-328,-19,125,-377
46720,7672,0,2023-03-01T18:59:20.309628,2149857,1229,1794,-1128,-1037,-575,-324,-19,125,-377
46721,7673,0,2023-03-01T18:59:20.315349,2149863,1229,1794,-1128,-1037,-575,-324,-19,125,-377
46722,7674,0,2023-03-01T18:59:20.320781,2149867,1229,1794,-1128,-1037,-575,-324,-19,125,-377
46723,7675,0,2023-03-01T18:59:20.325884,2149873,1229,1795,-1122,-1041,-579,-323,-19,125,-377
46724,7676,0,2023-03-01T18:59:20.332444,2149879,1229,1795,-1122,-1041,-579,-323,-19,125,-377
46725,7677,0,2023-03-01T18:59:20.337382,2149884,1229,1795,-1122,-1041,-579,-323,-19,125,-377
46726,7678,0,2023-03-01T18:59:20.342158,2149890,1229,1795,-1122,-1041,-579,-323,-19,125,-377
46727,7679,0,2023-03-01T18:59:20.347930,2149895,1229,1795,-1117,-1034,-564,-320,-11,127,-359
46728,7680,0,2023-03-01T18:59:20.353127,2149901,1229,1795,-1117,-1034,-564,-320,-11,127,-359
46729,7681,0,2023-03-01T18:59:20.358384,2149906,1229,1795,-1117,-1034,-564,-320,-11,127,-359
46730,7682,0,2023-03-01T18:59:20.363179,2149910,1229,1795,-1117,-1034,-564,-320,-11,127,-359
46731,7683,0,2023-03-01T18:59:20.368631,2149916,1229,1797,-1113,-1032,-568,-313,-11,127,-359
46732,7684,0,2023-03-01T18:59:20.373729,2149921,1229,1797,-1113,-1032,-568,-313,-11,127,-359
46733,7685,0,2023-03-01T18:59:20.379028,2149925,1229,1797,-1113,-1032,-568,-313,-11,127,-359
46734,7686,0,2023-03-01T18:59:20.384447,2149932,1229,1797,-1113,-1032,-568,-313,-11,127,-359
46735,7687,0,2023-03-01T18:59:20.390367,2149938,1232,1796,-1118,-1039,-570,-314,-11,127,-359
46736,7688,0,2023-03-01T18:59:20.396327,2149944,1232,1796,-1118,-1039,-570,-314,-11,127,-359
46737,7689,0,2023-03-01T18:59:20.401256,2149948,1232,1796,-1118,-1039,-570,-314,-11,127,-359
46738,7690,0,2023-03-01T18:59:20.406301,2149953,1227,1795,-1126,-1035,-567,-316,-11,127,-359
46739,7691,0,2023-03-01T18:59:20.412727,2149960,1227,1795,-1126,-1035,-567,-316,-11,127,-359
46740,7692,0,2023-03-01T18:59:20.417628,2149965,1227,1795,-1126,-1035,-567,-316,-11,127,-359
46741,7693,0,2023-03-01T18:59:20.422431,2149969,1227,1795,-1126,-1035,-567,-316,-11,127,-359
46742,7694,0,2023-03-01T18:59:20.428013,2149976,1229,1794,-1119,-1035,-575,-323,-11,127,-359
46743,7695,0,2023-03-01T18:59:20.433820,2149981,1229,1794,-1119,-1035,-575,-323,-11,127,-359
46744,7696,0,2023-03-01T18:59:20.438628,2149986,1229,1794,-1119,-1035,-575,-323,-11,127,-359
46745,7697,0,2023-03-01T18:59:20.444389,2149992,1229,1794,-1119,-1035,-575,-323,-11,127,-359
46746,7698,0,2023-03-01T18:59:20.450337,2149998,1228,1796,-1122,-1028,-575,-323,-11,127,-359
46747,7699,0,2023-03-01T18:59:20.455567,2150003,1228,1796,-1122,-1028,-575,-323,-11,127,-359
46748,7700,0,2023-03-01T18:59:20.460612,2150007,1228,1796,-1122,-1028,-575,-323,-11,127,-359
46749,7701,0,2023-03-01T18:59:20.465406,2150012,1228,1796,-1122,-1028,-575,-323,-11,127,-359
46750,7702,0,2023-03-01T18:59:20.470819,2150018,1228,1798,-1120,-1032,-567,-318,-11,127,-359
46751,7703,0,2023-03-01T18:59:20.476011,2150024,1228,1798,-1120,-1032,-567,-318,-11,127,-359
46752,7704,0,2023-03-01T18:59:20.480903,2150028,1228,1798,-1120,-1032,-567,-318,-11,127,-359
46753,7705,0,2023-03-01T18:59:20.485834,2150033,1230,1796,-1117,-1034,-573,-319,-11,127,-359
46754,7706,0,2023-03-01T18:59:20.492684,2150040,1230,1796,-1117,-1034,-573,-319,-15,125,-371
46755,7707,0,2023-03-01T18:59:20.497905,2150045,1230,1796,-1117,-1034,-573,-319,-15,125,-371
46756,7708,0,2023-03-01T18:59:20.502780,2150050,1230,1796,-1117,-1034,-573,-319,-15,125,-371
46757,7709,0,2023-03-01T18:59:20.510761,2150057,1230,1795,-1126,-1037,-575,-325,-15,125,-371
46758,7710,0,2023-03-01T18:59:20.516714,2150064,1230,1795,-1126,-1037,-575,-325,-15,125,-371
46759,7711,0,2023-03-01T18:59:20.522087,2150070,1230,1795,-1126,-1037,-575,-325,-15,125,-371
46760,7712,0,2023-03-01T18:59:20.527983,2150075,1229,1795,-1120,-1029,-580,-320,-15,125,-371
46761,7713,0,2023-03-01T18:59:20.533425,2150081,1229,1795,-1120,-1029,-580,-320,-15,125,-371
46762,7714,0,2023-03-01T18:59:20.538553,2150086,1229,1795,-1120,-1029,-580,-320,-15,125,-371
46763,7715,0,2023-03-01T18:59:20.543531,2150090,1229,1795,-1120,-1029,-580,-320,-15,125,-371
46764,7716,0,2023-03-01T18:59:20.548885,2150096,1231,1797,-1117,-1035,-570,-320,-15,125,-371
46765,7717,0,2023-03-01T18:59:20.554196,2150102,1231,1797,-1117,-1035,-570,-320,-15,125,-371
46766,7718,0,2023-03-01T18:59:20.559247,2150107,1231,1797,-1117,-1035,-570,-320,-15,125,-371
46767,7719,0,2023-03-01T18:59:20.564059,2150112,1231,1797,-1117,-1035,-570,-320,-15,125,-371
46768,7720,0,2023-03-01T18:59:20.569354,2150117,1228,1800,-1122,-1038,-570,-325,-15,125,-371
46769,7721,0,2023-03-01T18:59:20.575319,2150123,1228,1800,-1122,-1038,-570,-325,-15,125,-371
46770,7722,0,2023-03-01T18:59:20.579902,2150127,1228,1800,-1122,-1038,-570,-325,-15,125,-371
46771,7723,0,2023-03-01T18:59:20.584900,2150132,1228,1800,-1122,-1038,-570,-325,-15,125,-371
46772,7724,0,2023-03-01T18:59:20.591332,2150138,1228,1796,-1118,-1040,-574,-321,-15,125,-371
46773,7725,0,2023-03-01T18:59:20.597080,2150145,1228,1796,-1118,-1040,-574,-321,-15,125,-371
46774,7726,0,2023-03-01T18:59:20.601927,2150150,1228,1796,-1118,-1040,-574,-321,-15,125,-371
46775,7727,0,2023-03-01T18:59:20.607149,2150155,1232,1797,-1114,-1034,-576,-317,-5,133,-365
46776,7728,0,2023-03-01T18:59:20.613877,2150161,1232,1797,-1114,-1034,-576,-317,-5,133,-365
46777,7729,0,2023-03-01T18:59:20.619740,2150167,1232,1797,-1114,-1034,-576,-317,-5,133,-365
46778,7730,0,2023-03-01T18:59:20.624609,2150172,1232,1797,-1114,-1034,-576,-317,-5,133,-365
46779,7731,0,2023-03-01T18:59:20.630111,2150177,1230,1795,-1118,-1039,-579,-315,-5,133,-365
46780,7732,0,2023-03-01T18:59:20.635403,2150182,1230,1795,-1118,-1039,-579,-315,-5,133,-365
46781,7733,0,2023-03-01T18:59:20.640422,2150188,1230,1795,-1118,-1039,-579,-315,-5,133,-365
46782,7734,0,2023-03-01T18:59:20.645122,2150193,1230,1795,-1118,-1039,-579,-315,-5,133,-365
46783,7735,0,2023-03-01T18:59:20.650819,2150198,1229,1793,-1120,-1035,-574,-320,-5,133,-365
46784,7736,0,2023-03-01T18:59:20.656576,2150204,1229,1793,-1120,-1035,-574,-320,-5,133,-365
46785,7737,0,2023-03-01T18:59:20.661656,2150209,1229,1793,-1120,-1035,-574,-320,-5,133,-365
46786,7738,0,2023-03-01T18:59:20.667461,2150214,1229,1793,-1122,-1039,-574,-323,-5,133,-365
46787,7739,0,2023-03-01T18:59:20.673906,2150221,1229,1793,-1122,-1039,-574,-323,-5,133,-365
46788,7740,0,2023-03-01T18:59:20.679222,2150226,1229,1793,-1122,-1039,-574,-323,-5,133,-365
46789,7741,0,2023-03-01T18:59:20.683973,2150232,1229,1793,-1122,-1039,-574,-323,-5,133,-365
46790,7742,0,2023-03-01T18:59:20.690532,2150238,1231,1795,-1121,-1030,-575,-326,-5,133,-365
46791,7743,0,2023-03-01T18:59:20.696115,2150244,1231,1795,-1121,-1030,-575,-326,-5,133,-365
46792,7744,0,2023-03-01T18:59:20.701180,2150249,1231,1795,-1121,-1030,-575,-326,-5,133,-365
46793,7745,0,2023-03-01T18:59:20.706651,2150253,1230,1796,-1130,-1039,-575,-327,-5,133,-365
46794,7746,0,2023-03-01T18:59:20.713540,2150261,1230,1796,-1130,-1039,-575,-327,-5,133,-365
46795,7747,0,2023-03-01T18:59:20.718925,2150266,1230,1796,-1130,-1039,-575,-327,-5,133,-365
46796,7748,0,2023-03-01T18:59:20.724677,2150272,1230,1796,-1130,-1039,-575,-327,-5,133,-365
46797,7749,0,2023-03-01T18:59:20.731505,2150279,1229,1797,-1119,-1031,-561,-322,-5,133,-365
46798,7750,0,2023-03-01T18:59:20.737783,2150285,1229,1797,-1119,-1031,-561,-322,-5,133,-365
46799,7751,0,2023-03-01T18:59:20.742775,2150290,1229,1797,-1119,-1031,-561,-322,-5,133,-365
46800,7752,0,2023-03-01T18:59:20.747653,2150295,1229,1795,-1116,-1034,-574,-320,-15,117,-361
46801,7753,0,2023-03-01T18:59:20.753074,2150300,1229,1795,-1116,-1034,-574,-320,-15,117,-361
46802,7754,0,2023-03-01T18:59:20.758534,2150305,1229,1795,-1116,-1034,-574,-320,-15,117,-361
46803,7755,0,2023-03-01T18:59:20.763807,2150310,1229,1795,-1116,-1034,-574,-320,-15,117,-361
46804,7756,0,2023-03-01T18:59:20.769627,2150317,1229,1798,-1118,-1039,-577,-317,-15,117,-361
46805,7757,0,2023-03-01T18:59:20.775054,2150323,1229,1798,-1118,-1039,-577,-317,-15,117,-361
46806,7758,0,2023-03-01T18:59:20.780084,2150328,1229,1798,-1118,-1039,-577,-317,-15,117,-361
46807,7759,0,2023-03-01T18:59:20.785456,2150332,1229,1798,-1118,-1039,-577,-317,-15,117,-361
46808,7760,0,2023-03-01T18:59:20.791618,2150339,1230,1797,-1120,-1035,-581,-323,-15,117,-361
46809,7761,0,2023-03-01T18:59:20.797025,2150344,1230,1797,-1120,-1035,-581,-323,-15,117,-361
46810,7762,0,2023-03-01T18:59:20.801964,2150349,1230,1797,-1120,-1035,-581,-323,-15,117,-361
46811,7763,0,2023-03-01T18:59:20.807184,2150354,1227,1798,-1126,-1030,-572,-323,-15,117,-361
46812,7764,0,2023-03-01T18:59:20.813079,2150361,1227,1798,-1126,-1030,-572,-323,-15,117,-361
46813,7765,0,2023-03-01T18:59:20.818869,2150366,1227,1798,-1126,-1030,-572,-323,-15,117,-361
46814,7766,0,2023-03-01T18:59:20.823701,2150371,1227,1798,-1126,-1030,-572,-323,-15,117,-361
46815,7767,0,2023-03-01T18:59:20.830484,2150377,1228,1796,-1131,-1032,-568,-318,-15,117,-361
46816,7768,0,2023-03-01T18:59:20.836496,2150383,1228,1796,-1131,-1032,-568,-318,-15,117,-361
46817,7769,0,2023-03-01T18:59:20.841558,2150389,1228,1796,-1131,-1032,-568,-318,-15,117,-361
46818,7770,0,2023-03-01T18:59:20.847102,2150394,1227,1796,-1122,-1037,-564,-322,-15,117,-361
46819,7771,0,2023-03-01T18:59:20.853201,2150401,1227,1796,-1122,-1037,-564,-322,-15,117,-361
46820,7772,0,2023-03-01T18:59:20.858142,2150406,1227,1796,-1122,-1037,-564,-322,-15,117,-361
46821,7773,0,2023-03-01T18:59:20.862977,2150411,1227,1796,-1122,-1037,-564,-322,-15,117,-361
46822,7774,0,2023-03-01T18:59:20.869115,2150416,1229,1796,-1122,-1034,-567,-319,-13,127,-363
46823,7775,0,2023-03-01T18:59:20.874654,2150422,1229,1796,-1122,-1034,-567,-319,-13,127,-363
46824,7776,0,2023-03-01T18:59:20.880032,2150427,1229,1796,-1122,-1034,-567,-319,-13,127,-363
46825,7777,0,2023-03-01T18:59:20.884748,2150432,1229,1796,-1122,-1034,-567,-319,-13,127,-363
46826,7778,0,2023-03-01T18:59:20.891406,2150437,1228,1795,-1119,-1027,-567,-314,-13,127,-363
46827,7779,0,2023-03-01T18:59:20.897467,2150445,1228,1795,-1119,-1027,-567,-314,-13,127,-363
46828,7780,0,2023-03-01T18:59:20.902363,2150450,1228,1795,-1119,-1027,-567,-314,-13,127,-363
46829,7781,0,2023-03-01T18:59:20.907720,2150455,1228,1794,-1119,-1029,-573,-321,-13,127,-363
46830,7782,0,2023-03-01T18:59:20.913610,2150461,1228,1794,-1119,-1029,-573,-321,-13,127,-363
46831,7783,0,2023-03-01T18:59:20.918857,2150466,1228,1794,-1119,-1029,-573,-321,-13,127,-363
46832,7784,0,2023-03-01T18:59:20.923851,2150471,1228,1794,-1119,-1029,-573,-321,-13,127,-363
46833,7785,0,2023-03-01T18:59:20.929928,2150477,1232,1796,-1124,-1034,-575,-319,-13,127,-363
46834,7786,0,2023-03-01T18:59:20.935524,2150483,1232,1796,-1124,-1034,-575,-319,-13,127,-363
46835,7787,0,2023-03-01T18:59:20.941141,2150488,1232,1796,-1124,-1034,-575,-319,-13,127,-363
46836,7788,0,2023-03-01T18:59:20.946908,2150494,1230,1796,-1122,-1032,-574,-319,-13,127,-363
46837,7789,0,2023-03-01T18:59:20.954178,2150501,1230,1796,-1122,-1032,-574,-319,-13,127,-363
46838,7790,0,2023-03-01T18:59:20.959318,2150507,1230,1796,-1122,-1032,-574,-319,-13,127,-363
46839,7791,0,2023-03-01T18:59:20.964219,2150512,1230,1796,-1122,-1032,-574,-319,-13,127,-363
46840,7792,0,2023-03-01T18:59:20.970284,2150517,1228,1793,-1119,-1033,-572,-316,-13,127,-363
46841,7793,0,2023-03-01T18:59:20.975532,2150523,1228,1793,-1119,-1033,-572,-316,-13,127,-363
46842,7794,0,2023-03-01T18:59:20.980428,2150528,1228,1793,-1119,-1033,-572,-316,-13,127,-363
46843,7795,0,2023-03-01T18:59:20.985184,2150533,1228,1793,-1119,-1033,-572,-316,-13,127,-363
46844,7796,0,2023-03-01T18:59:20.991290,2150539,1231,1792,-1121,-1031,-567,-327,-13,127,-363
46845,7797,0,2023-03-01T18:59:20.996550,2150544,1231,1792,-1121,-1031,-567,-327,-13,127,-363
46846,7798,0,2023-03-01T18:59:21.001197,2150549,1231,1792,-1121,-1031,-567,-327,-13,127,-363
46847,7799,0,2023-03-01T18:59:21.006151,2150553,1231,1792,-1121,-1031,-567,-327,-13,127,-363
46848,7800,0,2023-03-01T18:59:21.012252,2150560,1231,1797,-1119,-1039,-568,-320,-15,121,-375
46849,7801,0,2023-03-01T18:59:21.018049,2150565,1231,1797,-1119,-1039,-568,-320,-15,121,-375
46850,7802,0,2023-03-01T18:59:21.023245,2150571,1231,1797,-1119,-1039,-568,-320,-15,121,-375
46851,7803,0,2023-03-01T18:59:21.029658,2150577,1231,1796,-1123,-1035,-568,-320,-15,121,-375
46852,7804,0,2023-03-01T18:59:21.035185,2150583,1231,1796,-1123,-1035,-568,-320,-15,121,-375
46853,7805,0,2023-03-01T18:59:21.040018,2150587,1231,1796,-1123,-1035,-568,-320,-15,121,-375
46854,7806,0,2023-03-01T18:59:21.045014,2150592,1231,1796,-1123,-1035,-568,-320,-15,121,-375
46855,7807,0,2023-03-01T18:59:21.051454,2150598,1233,1797,-1116,-1038,-568,-316,-15,121,-375
46856,7808,0,2023-03-01T18:59:21.057897,2150604,1233,1797,-1116,-1038,-568,-316,-15,121,-375
46857,7809,0,2023-03-01T18:59:21.062666,2150610,1233,1797,-1116,-1038,-568,-316,-15,121,-375
46858,7810,0,2023-03-01T18:59:21.069278,2150617,1231,1794,-1121,-1043,-564,-317,-15,121,-375
46859,7811,0,2023-03-01T18:59:21.074529,2150622,1231,1794,-1121,-1043,-564,-317,-15,121,-375
46860,7812,0,2023-03-01T18:59:21.079148,2150627,1231,1794,-1121,-1043,-564,-317,-15,121,-375
46861,7813,0,2023-03-01T18:59:21.084224,2150631,1231,1794,-1121,-1043,-564,-317,-15,121,-375
46862,7814,0,2023-03-01T18:59:21.090866,2150638,1228,1794,-1126,-1040,-578,-316,-15,121,-375
46863,7815,0,2023-03-01T18:59:21.096596,2150643,1228,1794,-1126,-1040,-578,-316,-15,121,-375
46864,7816,0,2023-03-01T18:59:21.101468,2150648,1228,1794,-1126,-1040,-578,-316,-15,121,-375
46865,7817,0,2023-03-01T18:59:21.107151,2150654,1231,1797,-1123,-1031,-576,-323,-15,121,-375
46866,7818,0,2023-03-01T18:59:21.113215,2150661,1231,1797,-1123,-1031,-576,-323,-15,121,-375
46867,7819,0,2023-03-01T18:59:21.118903,2150666,1231,1797,-1123,-1031,-576,-323,-15,121,-375
46868,7820,0,2023-03-01T18:59:21.123873,2150671,1231,1797,-1123,-1031,-576,-323,-15,121,-375
46869,7821,0,2023-03-01T18:59:21.130021,2150677,1230,1798,-1120,-1042,-573,-325,-15,127,-359
46870,7822,0,2023-03-01T18:59:21.135136,2150682,1230,1798,-1120,-1042,-573,-325,-15,127,-359
46871,7823,0,2023-03-01T18:59:21.140264,2150687,1230,1798,-1120,-1042,-573,-325,-15,127,-359
46872,7824,0,2023-03-01T18:59:21.145093,2150692,1230,1798,-1120,-1042,-573,-325,-15,127,-359
46873,7825,0,2023-03-01T18:59:21.150670,2150699,1230,1796,-1118,-1040,-573,-323,-15,127,-359
46874,7826,0,2023-03-01T18:59:21.156082,2150704,1230,1796,-1118,-1040,-573,-323,-15,127,-359
46875,7827,0,2023-03-01T18:59:21.160982,2150709,1230,1796,-1118,-1040,-573,-323,-15,127,-359
46876,7828,0,2023-03-01T18:59:21.167279,2150715,1227,1793,-1120,-1029,-565,-319,-15,127,-359
46877,7829,0,2023-03-01T18:59:21.174316,2150721,1227,1793,-1120,-1029,-565,-319,-15,127,-359
46878,7830,0,2023-03-01T18:59:21.179405,2150726,1227,1793,-1120,-1029,-565,-319,-15,127,-359
46879,7831,0,2023-03-01T18:59:21.184362,2150731,1227,1793,-1120,-1029,-565,-319,-15,127,-359
46880,7832,0,2023-03-01T18:59:21.190540,2150737,1232,1794,-1120,-1031,-571,-322,-15,127,-359
46881,7833,0,2023-03-01T18:59:21.196044,2150744,1232,1794,-1120,-1031,-571,-322,-15,127,-359
46882,7834,0,2023-03-01T18:59:21.201306,2150749,1232,1794,-1120,-1031,-571,-322,-15,127,-359
46883,7835,0,2023-03-01T18:59:21.206182,2150754,1232,1794,-1120,-1031,-571,-322,-15,127,-359
46884,7836,0,2023-03-01T18:59:21.212561,2150760,1232,1797,-1124,-1035,-573,-322,-15,127,-359
46885,7837,0,2023-03-01T18:59:21.218622,2150766,1232,1797,-1124,-1035,-573,-322,-15,127,-359
46886,7838,0,2023-03-01T18:59:21.224122,2150771,1232,1797,-1124,-1035,-573,-322,-15,127,-359
46887,7839,0,2023-03-01T18:59:21.230910,2150777,1228,1796,-1122,-1035,-568,-317,-15,127,-359
46888,7840,0,2023-03-01T18:59:21.236682,2150785,1228,1796,-1122,-1035,-568,-317,-15,127,-359
46889,7841,0,2023-03-01T18:59:21.241817,2150789,1228,1796,-1122,-1035,-568,-317,-15,127,-359
46890,7842,0,2023-03-01T18:59:21.247647,2150795,1229,1797,-1120,-1030,-571,-316,-16,120,-366
46891,7843,0,2023-03-01T18:59:21.255932,2150802,1229,1797,-1120,-1030,-571,-316,-16,120,-366
46892,7844,0,2023-03-01T18:59:21.261032,2150808,1229,1797,-1120,-1030,-571,-316,-16,120,-366
46893,7845,0,2023-03-01T18:59:21.266100,2150813,1229,1797,-1120,-1030,-571,-316,-16,120,-366
46894,7846,0,2023-03-01T18:59:21.271789,2150818,1232,1798,-1122,-1034,-576,-321,-16,120,-366
46895,7847,0,2023-03-01T18:59:21.279160,2150827,1232,1798,-1122,-1034,-576,-321,-16,120,-366
46896,7848,0,2023-03-01T18:59:21.284289,2150832,1232,1798,-1122,-1034,-576,-321,-16,120,-366
46897,7849,0,2023-03-01T18:59:21.291140,2150839,1228,1796,-1123,-1032,-571,-316,-16,120,-366
46898,7850,0,2023-03-01T18:59:21.296511,2150844,1228,1796,-1123,-1032,-571,-316,-16,120,-366
46899,7851,0,2023-03-01T18:59:21.301529,2150849,1228,1796,-1123,-1032,-571,-316,-16,120,-366
46900,7852,0,2023-03-01T18:59:21.306470,2150854,1228,1796,-1123,-1032,-571,-316,-16,120,-366
46901,7853,0,2023-03-01T18:59:21.312420,2150859,1228,1794,-1116,-1032,-577,-322,-16,120,-366
46902,7854,0,2023-03-01T18:59:21.318355,2150865,1228,1794,-1116,-1032,-577,-322,-16,120,-366
46903,7855,0,2023-03-01T18:59:21.323072,2150871,1228,1794,-1116,-1032,-577,-322,-16,120,-366
46904,7856,0,2023-03-01T18:59:21.328802,2150876,1230,1794,-1123,-1033,-572,-320,-16,120,-366
46905,7857,0,2023-03-01T18:59:21.334457,2150882,1230,1794,-1123,-1033,-572,-320,-16,120,-366
46906,7858,0,2023-03-01T18:59:21.339291,2150887,1230,1794,-1123,-1033,-572,-320,-16,120,-366
46907,7859,0,2023-03-01T18:59:21.344435,2150891,1230,1794,-1123,-1033,-572,-320,-16,120,-366
46908,7860,0,2023-03-01T18:59:21.349401,2150897,1229,1795,-1121,-1036,-578,-314,-16,120,-366
46909,7861,0,2023-03-01T18:59:21.354829,2150902,1229,1795,-1121,-1036,-578,-314,-16,120,-366
46910,7862,0,2023-03-01T18:59:21.359558,2150906,1229,1795,-1121,-1036,-578,-314,-16,120,-366
46911,7863,0,2023-03-01T18:59:21.364368,2150912,1229,1795,-1121,-1036,-578,-314,-16,120,-366
46912,7864,0,2023-03-01T18:59:21.370226,2150918,1229,1794,-1122,-1028,-574,-317,-16,120,-366
46913,7865,0,2023-03-01T18:59:21.376215,2150923,1229,1794,-1122,-1028,-574,-317,-16,120,-366
46914,7866,0,2023-03-01T18:59:21.382017,2150929,1229,1794,-1122,-1028,-574,-317,-16,120,-366
46915,7867,0,2023-03-01T18:59:21.388333,2150935,1229,1794,-1117,-1028,-577,-315,-6,130,-370
46916,7868,0,2023-03-01T18:59:21.394658,2150942,1229,1794,-1117,-1028,-577,-315,-6,130,-370
46917,7869,0,2023-03-01T18:59:21.399586,2150946,1229,1794,-1117,-1028,-577,-315,-6,130,-370
46918,7870,0,2023-03-01T18:59:21.404609,2150951,1229,1794,-1117,-1028,-577,-315,-6,130,-370
46919,7871,0,2023-03-01T18:59:21.410553,2150958,1228,1793,-1125,-1026,-565,-323,-6,130,-370
46920,7872,0,2023-03-01T18:59:21.415767,2150964,1228,1793,-1125,-1026,-565,-323,-6,130,-370
46921,7873,0,2023-03-01T18:59:21.420975,2150968,1228,1793,-1125,-1026,-565,-323,-6,130,-370
46922,7874,0,2023-03-01T18:59:21.426044,2150973,1228,1793,-1125,-1026,-565,-323,-6,130,-370
46923,7875,0,2023-03-01T18:59:21.430958,2150978,1229,1792,-1124,-1031,-577,-323,-6,130,-370
46924,7876,0,2023-03-01T18:59:21.436807,2150984,1229,1792,-1124,-1031,-577,-323,-6,130,-370
46925,7877,0,2023-03-01T18:59:21.441819,2150989,1229,1792,-1124,-1031,-577,-323,-6,130,-370
46926,7878,0,2023-03-01T18:59:21.447460,2150994,1229,1793,-1126,-1035,-572,-325,-6,130,-370
46927,7879,0,2023-03-01T18:59:21.453572,2151001,1229,1793,-1126,-1035,-572,-325,-6,130,-370
46928,7880,0,2023-03-01T18:59:21.458657,2151006,1229,1793,-1126,-1035,-572,-325,-6,130,-370
46929,7881,0,2023-03-01T18:59:21.463559,2151011,1229,1793,-1126,-1035,-572,-325,-6,130,-370
46930,7882,0,2023-03-01T18:59:21.469494,2151017,1231,1797,-1121,-1029,-570,-311,-6,130,-370
46931,7883,0,2023-03-01T18:59:21.474838,2151022,1231,1797,-1121,-1029,-570,-311,-6,130,-370
46932,7884,0,2023-03-01T18:59:21.479590,2151027,1231,1797,-1121,-1029,-570,-311,-6,130,-370
46933,7885,0,2023-03-01T18:59:21.484509,2151031,1231,1797,-1121,-1029,-570,-311,-6,130,-370
46934,7886,0,2023-03-01T18:59:21.491479,2151038,1231,1796,-1117,-1044,-577,-314,-6,130,-370
46935,7887,0,2023-03-01T18:59:21.496985,2151045,1231,1796,-1117,-1044,-577,-314,-6,130,-370
46936,7888,0,2023-03-01T18:59:21.501840,2151049,1231,1796,-1117,-1044,-577,-314,-6,130,-370
46937,7889,0,2023-03-01T18:59:21.507261,2151055,1232,1796,-1118,-1038,-569,-312,-6,130,-370
46938,7890,0,2023-03-01T18:59:21.512711,2151060,1232,1796,-1118,-1038,-569,-312,-5,131,-367
46939,7891,0,2023-03-01T18:59:21.517718,2151065,1232,1796,-1118,-1038,-569,-312,-5,131,-367
46940,7892,0,2023-03-01T18:59:21.522535,2151070,1232,1796,-1118,-1038,-569,-312,-5,131,-367
46941,7893,0,2023-03-01T18:59:21.528120,2151075,1230,1796,-1120,-1033,-570,-315,-5,131,-367
46942,7894,0,2023-03-01T18:59:21.534594,2151081,1230,1796,-1120,-1033,-570,-315,-5,131,-367
46943,7895,0,2023-03-01T18:59:21.539333,2151087,1230,1796,-1120,-1033,-570,-315,-5,131,-367
46944,7896,0,2023-03-01T18:59:21.544016,2151092,1230,1796,-1120,-1033,-570,-315,-5,131,-367
46945,7897,0,2023-03-01T18:59:21.548915,2151096,1228,1794,-1116,-1034,-571,-324,-5,131,-367
46946,7898,0,2023-03-01T18:59:21.554121,2151102,1228,1794,-1116,-1034,-571,-324,-5,131,-367
46947,7899,0,2023-03-01T18:59:21.558846,2151106,1228,1794,-1116,-1034,-571,-324,-5,131,-367
46948,7900,0,2023-03-01T18:59:21.563611,2151111,1228,1794,-1116,-1034,-571,-324,-5,131,-367
46949,7901,0,2023-03-01T18:59:21.569741,2151117,1230,1798,-1120,-1032,-569,-325,-5,131,-367
46950,7902,0,2023-03-01T18:59:21.575395,2151122,1230,1798,-1120,-1032,-569,-325,-5,131,-367
46951,7903,0,2023-03-01T18:59:21.580132,2151128,1230,1798,-1120,-1032,-569,-325,-5,131,-367
46952,7904,0,2023-03-01T18:59:21.584842,2151133,1230,1798,-1120,-1032,-569,-325,-5,131,-367
46953,7905,0,2023-03-01T18:59:21.592113,2151139,1227,1795,-1124,-1034,-574,-315,-5,131,-367
46954,7906,0,2023-03-01T18:59:21.597498,2151145,1227,1795,-1124,-1034,-574,-315,-5,131,-367
46955,7907,0,2023-03-01T18:59:21.602631,2151150,1227,1795,-1124,-1034,-574,-315,-5,131,-367
46956,7908,0,2023-03-01T18:59:21.608046,2151155,1229,1793,-1120,-1033,-573,-309,-5,131,-367
46957,7909,0,2023-03-01T18:59:21.614131,2151161,1229,1793,-1120,-1033,-573,-309,-5,131,-367
46958,7910,0,2023-03-01T18:59:21.618838,2151166,1229,1793,-1120,-1033,-573,-309,-5,131,-367
46959,7911,0,2023-03-01T18:59:21.624025,2151172,1229,1793,-1120,-1033,-573,-309,-5,131,-367
46960,7912,0,2023-03-01T18:59:21.629951,2151178,1229,1795,-1118,-1035,-573,-324,-5,131,-367
46961,7913,0,2023-03-01T18:59:21.635014,2151183,1229,1795,-1118,-1035,-573,-324,-5,131,-367
46962,7914,0,2023-03-01T18:59:21.639675,2151187,1229,1795,-1118,-1035,-573,-324,-5,131,-367
46963,7915,0,2023-03-01T18:59:21.644648,2151192,1229,1795,-1118,-1035,-573,-324,-5,131,-367
46964,7916,0,2023-03-01T18:59:21.650966,2151198,1227,1796,-1119,-1038,-567,-318,-12,126,-368
46965,7917,0,2023-03-01T18:59:21.656889,2151204,1227,1796,-1119,-1038,-567,-318,-12,126,-368
46966,7918,0,2023-03-01T18:59:21.662057,2151209,1227,1796,-1119,-1038,-567,-318,-12,126,-368
46967,7919,0,2023-03-01T18:59:21.667702,2151215,1231,1794,-1122,-1037,-571,-323,-12,126,-368
46968,7920,0,2023-03-01T18:59:21.673783,2151221,1231,1794,-1122,-1037,-571,-323,-12,126,-368
46969,7921,0,2023-03-01T18:59:21.679162,2151226,1231,1794,-1122,-1037,-571,-323,-12,126,-368
46970,7922,0,2023-03-01T18:59:21.684930,2151232,1231,1794,-1122,-1037,-571,-323,-12,126,-368
46971,7923,0,2023-03-01T18:59:21.691507,2151238,1228,1795,-1125,-1038,-573,-321,-12,126,-368
46972,7924,0,2023-03-01T18:59:21.697769,2151244,1228,1795,-1125,-1038,-573,-321,-12,126,-368
46973,7925,0,2023-03-01T18:59:21.703563,2151250,1228,1795,-1125,-1038,-573,-321,-12,126,-368
46974,7926,0,2023-03-01T18:59:21.710007,2151257,1228,1796,-1122,-1039,-567,-336,-12,126,-368
46975,7927,0,2023-03-01T18:59:21.716728,2151264,1228,1796,-1122,-1039,-567,-336,-12,126,-368
46976,7928,0,2023-03-01T18:59:21.722104,2151269,1228,1796,-1122,-1039,-567,-336,-12,126,-368
46977,7929,0,2023-03-01T18:59:21.727756,2151275,1229,1791,-1124,-1041,-571,-325,-12,126,-368
46978,7930,0,2023-03-01T18:59:21.734980,2151282,1229,1791,-1124,-1041,-571,-325,-12,126,-368
46979,7931,0,2023-03-01T18:59:21.740486,2151287,1229,1791,-1124,-1041,-571,-325,-12,126,-368
46980,7932,0,2023-03-01T18:59:21.745553,2151292,1229,1791,-1124,-1041,-571,-325,-12,126,-368
46981,7933,0,2023-03-01T18:59:21.751302,2151299,1233,1791,-1127,-1041,-579,-323,-12,126,-368
46982,7934,0,2023-03-01T18:59:21.756918,2151304,1233,1791,-1127,-1041,-579,-323,-12,126,-368
46983,7935,0,2023-03-01T18:59:21.761840,2151309,1233,1791,-1127,-1041,-579,-323,-12,126,-368
46984,7936,0,2023-03-01T18:59:21.768314,2151315,1233,1791,-1127,-1041,-579,-323,-12,126,-368
46985,7937,0,2023-03-01T18:59:21.773955,2151321,1229,1798,-1117,-1036,-575,-324,-15,129,-361
46986,7938,0,2023-03-01T18:59:21.779665,2151327,1229,1798,-1117,-1036,-575,-324,-15,129,-361
46987,7939,0,2023-03-01T18:59:21.784906,2151332,1229,1798,-1117,-1036,-575,-324,-15,129,-361
46988,7940,0,2023-03-01T18:59:21.792485,2151340,1230,1793,-1118,-1034,-572,-322,-15,129,-361
46989,7941,0,2023-03-01T18:59:21.798157,2151346,1230,1793,-1118,-1034,-572,-322,-15,129,-361
46990,7942,0,2023-03-01T18:59:21.803217,2151351,1230,1793,-1118,-1034,-572,-322,-15,129,-361
46991,7943,0,2023-03-01T18:59:21.809107,2151356,1229,1797,-1119,-1030,-572,-322,-15,129,-361
46992,7944,0,2023-03-01T18:59:21.816422,2151363,1229,1797,-1119,-1030,-572,-322,-15,129,-361
46993,7945,0,2023-03-01T18:59:21.821806,2151369,1229,1797,-1119,-1030,-572,-322,-15,129,-361
46994,7946,0,2023-03-01T18:59:21.826884,2151374,1229,1797,-1119,-1030,-572,-322,-15,129,-361
46995,7947,0,2023-03-01T18:59:21.832516,2151380,1230,1794,-1129,-1037,-573,-328,-15,129,-361
46996,7948,0,2023-03-01T18:59:21.838327,2151386,1230,1794,-1129,-1037,-573,-328,-15,129,-361
46997,7949,0,2023-03-01T18:59:21.844087,2151392,1230,1794,-1129,-1037,-573,-328,-15,129,-361
46998,7950,0,2023-03-01T18:59:21.851406,2151398,1233,1795,-1123,-1037,-573,-321,-15,129,-361
46999,7951,0,2023-03-01T18:59:21.856886,2151404,1233,1795,-1123,-1037,-573,-321,-15,129,-361
47000,7952,0,2023-03-01T18:59:21.861923,2151409,1233,1795,-1123,-1037,-573,-321,-15,129,-361
47001,7953,0,2023-03-01T18:59:21.867431,2151415,1233,1795,-1123,-1037,-573,-321,-15,129,-361
47002,7954,0,2023-03-01T18:59:21.873397,2151420,1227,1793,-1125,-1035,-575,-324,-15,129,-361
47003,7955,0,2023-03-01T18:59:21.879197,2151427,1227,1793,-1125,-1035,-575,-324,-15,129,-361
47004,7956,0,2023-03-01T18:59:21.884588,2151432,1227,1793,-1125,-1035,-575,-324,-15,129,-361
47005,7957,0,2023-03-01T18:59:21.890556,2151438,1227,1794,-1116,-1033,-572,-324,-15,129,-361
47006,7958,0,2023-03-01T18:59:21.896643,2151444,1227,1794,-1116,-1033,-572,-324,-15,129,-361
47007,7959,0,2023-03-01T18:59:21.902155,2151449,1227,1794,-1116,-1033,-572,-324,-15,129,-361
47008,7960,0,2023-03-01T18:59:21.908194,2151455,1231,1795,-1121,-1037,-572,-324,-6,124,-366
47009,7961,0,2023-03-01T18:59:21.914702,2151461,1231,1795,-1121,-1037,-572,-324,-6,124,-366
47010,7962,0,2023-03-01T18:59:21.919806,2151467,1231,1795,-1121,-1037,-572,-324,-6,124,-366
47011,7963,0,2023-03-01T18:59:21.924596,2151472,1231,1795,-1121,-1037,-572,-324,-6,124,-366
47012,7964,0,2023-03-01T18:59:21.931464,2151478,1229,1794,-1120,-1037,-575,-326,-6,124,-366
47013,7965,0,2023-03-01T18:59:21.938226,2151486,1229,1794,-1120,-1037,-575,-326,-6,124,-366
47014,7966,0,2023-03-01T18:59:21.943361,2151490,1229,1794,-1120,-1037,-575,-326,-6,124,-366
47015,7967,0,2023-03-01T18:59:21.948896,2151496,1230,1795,-1119,-1035,-575,-310,-6,124,-366
47016,7968,0,2023-03-01T18:59:21.955816,2151503,1230,1795,-1119,-1035,-575,-310,-6,124,-366
47017,7969,0,2023-03-01T18:59:21.960687,2151507,1230,1795,-1119,-1035,-575,-310,-6,124,-366
47018,7970,0,2023-03-01T18:59:21.965555,2151513,1230,1795,-1119,-1035,-575,-310,-6,124,-366
47019,7971,0,2023-03-01T18:59:21.971760,2151519,1229,1795,-1116,-1036,-571,-323,-6,124,-366
47020,7972,0,2023-03-01T18:59:21.977684,2151525,1229,1795,-1116,-1036,-571,-323,-6,124,-366
47021,7973,0,2023-03-01T18:59:21.982473,2151530,1229,1795,-1116,-1036,-571,-323,-6,124,-366
47022,7974,0,2023-03-01T18:59:21.988402,2151535,1231,1796,-1123,-1028,-573,-323,-6,124,-366
47023,7975,0,2023-03-01T18:59:21.995399,2151542,1231,1796,-1123,-1028,-573,-323,-6,124,-366
47024,7976,0,2023-03-01T18:59:22.000673,2151547,1231,1796,-1123,-1028,-573,-323,-6,124,-366
47025,7977,0,2023-03-01T18:59:22.005917,2151554,1231,1796,-1123,-1028,-573,-323,-6,124,-366
47026,7978,0,2023-03-01T18:59:22.012626,2151560,1231,1793,-1121,-1035,-564,-322,-6,124,-366
47027,7979,0,2023-03-01T18:59:22.018704,2151566,1231,1793,-1121,-1035,-564,-322,-6,124,-366
47028,7980,0,2023-03-01T18:59:22.024314,2151572,1231,1793,-1121,-1035,-564,-322,-6,124,-366
47029,7981,0,2023-03-01T18:59:22.030681,2151578,1231,1795,-1119,-1037,-569,-324,-17,133,-367
47030,7982,0,2023-03-01T18:59:22.036230,2151583,1231,1795,-1119,-1037,-569,-324,-17,133,-367
47031,7983,0,2023-03-01T18:59:22.041726,2151588,1231,1795,-1119,-1037,-569,-324,-17,133,-367
47032,7984,0,2023-03-01T18:59:22.047818,2151595,1231,1795,-1119,-1037,-569,-324,-17,133,-367
47033,7985,0,2023-03-01T18:59:22.053297,2151601,1227,1794,-1126,-1031,-570,-320,-17,133,-367
47034,7986,0,2023-03-01T18:59:22.058989,2151607,1227,1794,-1126,-1031,-570,-320,-17,133,-367
47035,7987,0,2023-03-01T18:59:22.064080,2151611,1227,1794,-1126,-1031,-570,-320,-17,133,-367
47036,7988,0,2023-03-01T18:59:22.070346,2151618,1231,1793,-1121,-1033,-576,-321,-17,133,-367
47037,7989,0,2023-03-01T18:59:22.076150,2151623,1231,1793,-1121,-1033,-576,-321,-17,133,-367
47038,7990,0,2023-03-01T18:59:22.081243,2151628,1231,1793,-1121,-1033,-576,-321,-17,133,-367
47039,7991,0,2023-03-01T18:59:22.086524,2151633,1231,1793,-1121,-1033,-576,-321,-17,133,-367
47040,7992,0,2023-03-01T18:59:22.092566,2151640,1230,1793,-1121,-1037,-576,-324,-17,133,-367
47041,7993,0,2023-03-01T18:59:22.098042,2151646,1230,1793,-1121,-1037,-576,-324,-17,133,-367
47042,7994,0,2023-03-01T18:59:22.103236,2151651,1230,1793,-1121,-1037,-576,-324,-17,133,-367
47043,7995,0,2023-03-01T18:59:22.108425,2151656,1230,1796,-1124,-1039,-572,-330,-17,133,-367
47044,7996,0,2023-03-01T18:59:22.114547,2151662,1230,1796,-1124,-1039,-572,-330,-17,133,-367
47045,7997,0,2023-03-01T18:59:22.119902,2151666,1230,1796,-1124,-1039,-572,-330,-17,133,-367
47046,7998,0,2023-03-01T18:59:22.124928,2151672,1230,1796,-1124,-1039,-572,-330,-17,133,-367
47047,7999,0,2023-03-01T18:59:22.131502,2151678,1230,1798,-1124,-1032,-571,-323,-17,133,-367
47048,8000,0,2023-03-01T18:59:22.137223,2151685,1230,1798,-1124,-1032,-571,-323,-17,133,-367
47049,8001,0,2023-03-01T18:59:22.142498,2151690,1230,1798,-1124,-1032,-571,-323,-17,133,-367
47050,8002,0,2023-03-01T18:59:22.148398,2151696,1231,1795,-1124,-1031,-566,-317,-15,127,-363
47051,8003,0,2023-03-01T18:59:22.154530,2151701,1231,1795,-1124,-1031,-566,-317,-15,127,-363
47052,8004,0,2023-03-01T18:59:22.159957,2151707,1231,1795,-1124,-1031,-566,-317,-15,127,-363
47053,8005,0,2023-03-01T18:59:22.165185,2151712,1231,1795,-1124,-1031,-566,-317,-15,127,-363
47054,8006,0,2023-03-01T18:59:22.171529,2151718,1228,1795,-1122,-1033,-563,-323,-15,127,-363
47055,8007,0,2023-03-01T18:59:22.177164,2151725,1228,1795,-1122,-1033,-563,-323,-15,127,-363
47056,8008,0,2023-03-01T18:59:22.181886,2151730,1228,1795,-1122,-1033,-563,-323,-15,127,-363
47057,8009,0,2023-03-01T18:59:22.187381,2151734,1228,1795,-1122,-1033,-563,-323,-15,127,-363
47058,8010,0,2023-03-01T18:59:22.193379,2151741,1231,1794,-1125,-1030,-567,-324,-15,127,-363
47059,8011,0,2023-03-01T18:59:22.199101,2151746,1231,1794,-1125,-1030,-567,-324,-15,127,-363
47060,8012,0,2023-03-01T18:59:22.204484,2151751,1231,1794,-1125,-1030,-567,-324,-15,127,-363
47061,8013,0,2023-03-01T18:59:22.210568,2151758,1227,1797,-1123,-1037,-572,-323,-15,127,-363
47062,8014,0,2023-03-01T18:59:22.216387,2151763,1227,1797,-1123,-1037,-572,-323,-15,127,-363
47063,8015,0,2023-03-01T18:59:22.221488,2151769,1227,1797,-1123,-1037,-572,-323,-15,127,-363
47064,8016,0,2023-03-01T18:59:22.226591,2151774,1227,1797,-1123,-1037,-572,-323,-15,127,-363
47065,8017,0,2023-03-01T18:59:22.232861,2151780,1226,1798,-1125,-1041,-570,-325,-15,127,-363
47066,8018,0,2023-03-01T18:59:22.239165,2151786,1226,1798,-1125,-1041,-570,-325,-15,127,-363
47067,8019,0,2023-03-01T18:59:22.244139,2151791,1226,1798,-1125,-1041,-570,-325,-15,127,-363
47068,8020,0,2023-03-01T18:59:22.250373,2151797,1231,1798,-1119,-1044,-571,-320,-15,127,-363
47069,8021,0,2023-03-01T18:59:22.255961,2151803,1231,1798,-1119,-1044,-571,-320,-15,127,-363
47070,8022,0,2023-03-01T18:59:22.261106,2151809,1231,1798,-1119,-1044,-571,-320,-15,127,-363
47071,8023,0,2023-03-01T18:59:22.268722,2151816,1233,1794,-1123,-1040,-571,-324,-15,127,-363
47072,8024,0,2023-03-01T18:59:22.275829,2151823,1233,1794,-1123,-1040,-571,-324,-15,127,-363
47073,8025,0,2023-03-01T18:59:22.280769,2151828,1233,1794,-1123,-1040,-571,-324,-15,127,-363
47074,8026,0,2023-03-01T18:59:22.286467,2151833,1233,1794,-1123,-1040,-571,-324,-15,127,-363
47075,8027,0,2023-03-01T18:59:22.293436,2151840,1234,1795,-1125,-1031,-569,-320,-3,129,-361
47076,8028,0,2023-03-01T18:59:22.299489,2151846,1234,1795,-1125,-1031,-569,-320,-3,129,-361
47077,8029,0,2023-03-01T18:59:22.304722,2151852,1234,1795,-1125,-1031,-569,-320,-3,129,-361
47078,8030,0,2023-03-01T18:59:22.310363,2151858,1228,1792,-1122,-1031,-570,-319,-3,129,-361
47079,8031,0,2023-03-01T18:59:22.315473,2151863,1228,1792,-1122,-1031,-570,-319,-3,129,-361
47080,8032,0,2023-03-01T18:59:22.321197,2151868,1228,1792,-1122,-1031,-570,-319,-3,129,-361
47081,8033,0,2023-03-01T18:59:22.326243,2151873,1228,1792,-1122,-1031,-570,-319,-3,129,-361
47082,8034,0,2023-03-01T18:59:22.332954,2151880,1230,1796,-1123,-1038,-576,-321,-3,129,-361
47083,8035,0,2023-03-01T18:59:22.338583,2151886,1230,1796,-1123,-1038,-576,-321,-3,129,-361
47084,8036,0,2023-03-01T18:59:22.344779,2151892,1230,1796,-1123,-1038,-576,-321,-3,129,-361
47085,8037,0,2023-03-01T18:59:22.350617,2151899,1232,1794,-1124,-1033,-574,-324,-3,129,-361
47086,8038,0,2023-03-01T18:59:22.356600,2151904,1232,1794,-1124,-1033,-574,-324,-3,129,-361
47087,8039,0,2023-03-01T18:59:22.361768,2151909,1232,1794,-1124,-1033,-574,-324,-3,129,-361
47088,8040,0,2023-03-01T18:59:22.366789,2151914,1232,1794,-1124,-1033,-574,-324,-3,129,-361
47089,8041,0,2023-03-01T18:59:22.372461,2151920,1230,1795,-1124,-1037,-570,-324,-3,129,-361
47090,8042,0,2023-03-01T18:59:22.379579,2151926,1230,1795,-1124,-1037,-570,-324,-3,129,-361
47091,8043,0,2023-03-01T18:59:22.385026,2151932,1230,1795,-1124,-1037,-570,-324,-3,129,-361
47092,8044,0,2023-03-01T18:59:22.391272,2151939,1231,1792,-1121,-1035,-577,-319,-3,129,-361
47093,8045,0,2023-03-01T18:59:22.396609,2151944,1231,1792,-1121,-1035,-577,-319,-3,129,-361
47094,8046,0,2023-03-01T18:59:22.401388,2151949,1231,1792,-1121,-1035,-577,-319,-3,129,-361
47095,8047,0,2023-03-01T18:59:22.406569,2151954,1231,1792,-1121,-1035,-577,-319,-3,129,-361
47096,8048,0,2023-03-01T18:59:22.412104,2151960,1229,1793,-1117,-1035,-578,-325,-3,133,-365
47097,8049,0,2023-03-01T18:59:22.417679,2151965,1229,1793,-1117,-1035,-578,-325,-3,133,-365
47098,8050,0,2023-03-01T18:59:22.422832,2151970,1229,1793,-1117,-1035,-578,-325,-3,133,-365
47099,8051,0,2023-03-01T18:59:22.428323,2151975,1232,1795,-1120,-1033,-569,-321,-3,133,-365
47100,8052,0,2023-03-01T18:59:22.434468,2151982,1232,1795,-1120,-1033,-569,-321,-3,133,-365
47101,8053,0,2023-03-01T18:59:22.439759,2151987,1232,1795,-1120,-1033,-569,-321,-3,133,-365
47102,8054,0,2023-03-01T18:59:22.444827,2151993,1232,1795,-1120,-1033,-569,-321,-3,133,-365
47103,8055,0,2023-03-01T18:59:22.449481,2151997,1230,1795,-1119,-1031,-564,-316,-3,133,-365
47104,8056,0,2023-03-01T18:59:22.455031,2152002,1230,1795,-1119,-1031,-564,-316,-3,133,-365
47105,8057,0,2023-03-01T18:59:22.460479,2152008,1230,1795,-1119,-1031,-564,-316,-3,133,-365
47106,8058,0,2023-03-01T18:59:22.465833,2152012,1230,1795,-1119,-1031,-564,-316,-3,133,-365
47107,8059,0,2023-03-01T18:59:22.472298,2152019,1232,1796,-1119,-1034,-573,-321,-3,133,-365
47108,8060,0,2023-03-01T18:59:22.478026,2152026,1232,1796,-1119,-1034,-573,-321,-3,133,-365
47109,8061,0,2023-03-01T18:59:22.482577,2152030,1232,1796,-1119,-1034,-573,-321,-3,133,-365
47110,8062,0,2023-03-01T18:59:22.488659,2152036,1232,1796,-1119,-1034,-573,-321,-3,133,-365
47111,8063,0,2023-03-01T18:59:22.494348,2152042,1228,1794,-1122,-1036,-572,-322,-3,133,-365
47112,8064,0,2023-03-01T18:59:22.500043,2152048,1228,1794,-1122,-1036,-572,-322,-3,133,-365
47113,8065,0,2023-03-01T18:59:22.505204,2152052,1228,1794,-1122,-1036,-572,-322,-3,133,-365
47114,8066,0,2023-03-01T18:59:22.511148,2152058,1227,1794,-1121,-1033,-573,-322,-3,133,-365
47115,8067,0,2023-03-01T18:59:22.516806,2152065,1227,1794,-1121,-1033,-573,-322,-3,133,-365
47116,8068,0,2023-03-01T18:59:22.522209,2152070,1227,1794,-1121,-1033,-573,-322,-3,133,-365
47117,8069,0,2023-03-01T18:59:22.527276,2152075,1227,1794,-1121,-1033,-573,-322,-3,133,-365
47118,8070,0,2023-03-01T18:59:22.533215,2152081,1229,1793,-1123,-1032,-580,-319,-3,133,-365
47119,8071,0,2023-03-01T18:59:22.538461,2152086,1229,1793,-1123,-1032,-580,-319,-3,133,-365
47120,8072,0,2023-03-01T18:59:22.543569,2152091,1229,1793,-1123,-1032,-580,-319,-3,133,-365
47121,8073,0,2023-03-01T18:59:22.549263,2152096,1231,1794,-1114,-1040,-577,-319,-7,127,-367
47122,8074,0,2023-03-01T18:59:22.555603,2152102,1231,1794,-1114,-1040,-577,-319,-7,127,-367
47123,8075,0,2023-03-01T18:59:22.560314,2152108,1231,1794,-1114,-1040,-577,-319,-7,127,-367
47124,8076,0,2023-03-01T18:59:22.566021,2152113,1231,1794,-1114,-1040,-577,-319,-7,127,-367
47125,8077,0,2023-03-01T18:59:22.570979,2152118,1231,1795,-1119,-1037,-570,-321,-7,127,-367
47126,8078,0,2023-03-01T18:59:22.576884,2152124,1231,1795,-1119,-1037,-570,-321,-7,127,-367
47127,8079,0,2023-03-01T18:59:22.581955,2152129,1231,1795,-1119,-1037,-570,-321,-7,127,-367
47128,8080,0,2023-03-01T18:59:22.587225,2152135,1231,1795,-1119,-1037,-570,-321,-7,127,-367
47129,8081,0,2023-03-01T18:59:22.592213,2152139,1229,1795,-1120,-1032,-566,-322,-7,127,-367
47130,8082,0,2023-03-01T18:59:22.599663,2152146,1229,1795,-1120,-1032,-566,-322,-7,127,-367
47131,8083,0,2023-03-01T18:59:22.604828,2152153,1229,1795,-1120,-1032,-566,-322,-7,127,-367
47132,8084,0,2023-03-01T18:59:22.610943,2152158,1233,1798,-1121,-1026,-565,-319,-7,127,-367
47133,8085,0,2023-03-01T18:59:22.616471,2152164,1233,1798,-1121,-1026,-565,-319,-7,127,-367
47134,8086,0,2023-03-01T18:59:22.621746,2152169,1233,1798,-1121,-1026,-565,-319,-7,127,-367
47135,8087,0,2023-03-01T18:59:22.626659,2152174,1233,1798,-1121,-1026,-565,-319,-7,127,-367
47136,8088,0,2023-03-01T18:59:22.632662,2152180,1228,1795,-1116,-1025,-571,-313,-7,127,-367
47137,8089,0,2023-03-01T18:59:22.638006,2152185,1228,1795,-1116,-1025,-571,-313,-7,127,-367
47138,8090,0,2023-03-01T18:59:22.643153,2152190,1228,1795,-1116,-1025,-571,-313,-7,127,-367
47139,8091,0,2023-03-01T18:59:22.648418,2152196,1228,1795,-1116,-1025,-571,-313,-7,127,-367
47140,8092,0,2023-03-01T18:59:22.653907,2152201,1229,1793,-1124,-1034,-569,-323,-7,127,-367
47141,8093,0,2023-03-01T18:59:22.659127,2152207,1229,1793,-1124,-1034,-569,-323,-7,127,-367
47142,8094,0,2023-03-01T18:59:22.664152,2152212,1229,1793,-1124,-1034,-569,-323,-7,127,-367
47143,8095,0,2023-03-01T18:59:22.670174,2152218,1231,1794,-1118,-1038,-573,-326,-14,126,-376
47144,8096,0,2023-03-01T18:59:22.675283,2152223,1231,1794,-1118,-1038,-573,-326,-14,126,-376
47145,8097,0,2023-03-01T18:59:22.679880,2152227,1231,1794,-1118,-1038,-573,-326,-14,126,-376
47146,8098,0,2023-03-01T18:59:22.684728,2152231,1231,1794,-1118,-1038,-573,-326,-14,126,-376
47147,8099,0,2023-03-01T18:59:22.690967,2152239,1232,1794,-1120,-1035,-574,-329,-14,126,-376
47148,8100,0,2023-03-01T18:59:22.696273,2152244,1232,1794,-1120,-1035,-574,-329,-14,126,-376
47149,8101,0,2023-03-01T18:59:22.701023,2152249,1232,1794,-1120,-1035,-574,-329,-14,126,-376
47150,8102,0,2023-03-01T18:59:22.706031,2152253,1232,1794,-1120,-1035,-574,-329,-14,126,-376
47151,8103,0,2023-03-01T18:59:22.713905,2152261,1228,1792,-1120,-1028,-570,-314,-14,126,-376
47152,8104,0,2023-03-01T18:59:22.719841,2152267,1228,1792,-1120,-1028,-570,-314,-14,126,-376
47153,8105,0,2023-03-01T18:59:22.724892,2152272,1228,1792,-1120,-1028,-570,-314,-14,126,-376
47154,8106,0,2023-03-01T18:59:22.730765,2152279,1232,1792,-1126,-1036,-579,-326,-14,126,-376
47155,8107,0,2023-03-01T18:59:22.735627,2152283,1232,1792,-1126,-1036,-579,-326,-14,126,-376
47156,8108,0,2023-03-01T18:59:22.741190,2152289,1232,1792,-1126,-1036,-579,-326,-14,126,-376
47157,8109,0,2023-03-01T18:59:22.746407,2152294,1232,1792,-1126,-1036,-579,-326,-14,126,-376
47158,8110,0,2023-03-01T18:59:22.752424,2152300,1231,1795,-1123,-1036,-580,-325,-14,126,-376
47159,8111,0,2023-03-01T18:59:22.758213,2152305,1231,1795,-1123,-1036,-580,-325,-14,126,-376
47160,8112,0,2023-03-01T18:59:22.763090,2152310,1231,1795,-1123,-1036,-580,-325,-14,126,-376
47161,8113,0,2023-03-01T18:59:22.768857,2152315,1231,1795,-1123,-1036,-580,-325,-14,126,-376
47162,8114,0,2023-03-01T18:59:22.774597,2152322,1230,1794,-1119,-1032,-573,-324,-14,126,-376
47163,8115,0,2023-03-01T18:59:22.779981,2152328,1230,1794,-1119,-1032,-573,-324,-14,126,-376
47164,8116,0,2023-03-01T18:59:22.785387,2152333,1230,1794,-1119,-1032,-573,-324,-14,126,-376
47165,8117,0,2023-03-01T18:59:22.791931,2152339,1232,1797,-1128,-1028,-574,-321,-14,126,-376
47166,8118,0,2023-03-01T18:59:22.797316,2152345,1232,1797,-1128,-1028,-574,-321,-14,126,-376
47167,8119,0,2023-03-01T18:59:22.802843,2152350,1232,1797,-1128,-1028,-574,-321,-14,126,-376
47168,8120,0,2023-03-01T18:59:22.809070,2152356,1232,1797,-1128,-1028,-574,-321,-14,126,-376
47169,8121,0,2023-03-01T18:59:22.813916,2152361,1229,1794,-1118,-1031,-575,-320,-14,126,-376
47170,8122,0,2023-03-01T18:59:22.819792,2152367,1229,1794,-1118,-1031,-575,-320,-14,126,-376
47171,8123,0,2023-03-01T18:59:22.824790,2152373,1229,1794,-1118,-1031,-575,-320,-14,126,-376
47172,8124,0,2023-03-01T18:59:22.831885,2152379,1228,1794,-1114,-1026,-573,-316,-14,126,-376
47173,8125,0,2023-03-01T18:59:22.837475,2152385,1228,1794,-1114,-1026,-573,-316,-14,126,-376
47174,8126,0,2023-03-01T18:59:22.842195,2152390,1228,1794,-1114,-1026,-573,-316,-14,126,-376
47175,8127,0,2023-03-01T18:59:22.847735,2152395,1228,1794,-1114,-1026,-573,-316,-14,126,-376
47176,8128,0,2023-03-01T18:59:22.853043,2152400,1229,1794,-1122,-1024,-576,-321,-14,126,-376
47177,8129,0,2023-03-01T18:59:22.858593,2152406,1229,1794,-1122,-1024,-576,-321,-14,126,-376
47178,8130,0,2023-03-01T18:59:22.864009,2152411,1229,1794,-1122,-1024,-576,-321,-14,126,-376
47179,8131,0,2023-03-01T18:59:22.869539,2152417,1232,1794,-1121,-1037,-573,-320,-14,126,-376
47180,8132,0,2023-03-01T18:59:22.875191,2152423,1232,1794,-1121,-1037,-573,-320,-14,126,-376
47181,8133,0,2023-03-01T18:59:22.880292,2152427,1232,1794,-1121,-1037,-573,-320,-14,126,-376
47182,8134,0,2023-03-01T18:59:22.885358,2152432,1232,1794,-1121,-1037,-573,-320,-14,126,-376
47183,8135,0,2023-03-01T18:59:22.891823,2152439,1229,1798,-1120,-1035,-571,-318,-14,126,-376
47184,8136,0,2023-03-01T18:59:22.897263,2152444,1229,1798,-1120,-1035,-571,-318,-14,126,-376
47185,8137,0,2023-03-01T18:59:22.902427,2152450,1229,1798,-1120,-1035,-571,-318,-14,126,-376
47186,8138,0,2023-03-01T18:59:22.908313,2152456,1229,1798,-1120,-1035,-571,-318,-14,126,-376
47187,8139,0,2023-03-01T18:59:22.913517,2152461,1229,1797,-1117,-1033,-571,-320,-14,126,-376
47188,8140,0,2023-03-01T18:59:22.919618,2152467,1229,1797,-1117,-1033,-571,-320,-14,126,-376
47189,8141,0,2023-03-01T18:59:22.924783,2152472,1229,1797,-1117,-1033,-571,-320,-14,126,-376
47190,8142,0,2023-03-01T18:59:22.931233,2152478,1225,1796,-1120,-1028,-573,-326,-13,123,-371
47191,8143,0,2023-03-01T18:59:22.937230,2152484,1225,1796,-1120,-1028,-573,-326,-13,123,-371
47192,8144,0,2023-03-01T18:59:22.942480,2152489,1225,1796,-1120,-1028,-573,-326,-13,123,-371
47193,8145,0,2023-03-01T18:59:22.948218,2152496,1225,1796,-1120,-1028,-573,-326,-13,123,-371
47194,8146,0,2023-03-01T18:59:22.954414,2152502,1225,1795,-1115,-1030,-571,-334,-13,123,-371
47195,8147,0,2023-03-01T18:59:22.960131,2152508,1225,1795,-1115,-1030,-571,-334,-13,123,-371
47196,8148,0,2023-03-01T18:59:22.965180,2152513,1225,1795,-1115,-1030,-571,-334,-13,123,-371
47197,8149,0,2023-03-01T18:59:22.970852,2152518,1226,1796,-1117,-1040,-573,-330,-13,123,-371
47198,8150,0,2023-03-01T18:59:22.976786,2152524,1226,1796,-1117,-1040,-573,-330,-13,123,-371
47199,8151,0,2023-03-01T18:59:22.982502,2152529,1226,1796,-1117,-1040,-573,-330,-13,123,-371
47200,8152,0,2023-03-01T18:59:22.987943,2152535,1226,1796,-1117,-1040,-573,-330,-13,123,-371
47201,8153,0,2023-03-01T18:59:22.994929,2152543,1229,1796,-1119,-1031,-569,-324,-13,123,-371
47202,8154,0,2023-03-01T18:59:23.000395,2152548,1229,1796,-1119,-1031,-569,-324,-13,123,-371
47203,8155,0,2023-03-01T18:59:23.005447,2152553,1229,1796,-1119,-1031,-569,-324,-13,123,-371
47204,8156,0,2023-03-01T18:59:23.011791,2152559,1230,1796,-1119,-1023,-562,-316,-13,123,-371
47205,8157,0,2023-03-01T18:59:23.017737,2152565,1230,1796,-1119,-1023,-562,-316,-13,123,-371
47206,8158,0,2023-03-01T18:59:23.022800,2152570,1230,1796,-1119,-1023,-562,-316,-13,123,-371
47207,8159,0,2023-03-01T18:59:23.028679,2152576,1230,1796,-1119,-1023,-562,-316,-13,123,-371
47208,8160,0,2023-03-01T18:59:23.035174,2152582,1229,1796,-1121,-1029,-561,-322,-13,123,-371
47209,8161,0,2023-03-01T18:59:23.041523,2152589,1229,1796,-1121,-1029,-561,-322,-13,123,-371
47210,8162,0,2023-03-01T18:59:23.046636,2152594,1229,1796,-1121,-1029,-561,-322,-13,123,-371
47211,8163,0,2023-03-01T18:59:23.051682,2152599,1230,1798,-1120,-1041,-574,-318,-2,128,-360
47212,8164,0,2023-03-01T18:59:23.057596,2152605,1230,1798,-1120,-1041,-574,-318,-2,128,-360
47213,8165,0,2023-03-01T18:59:23.062729,2152610,1230,1798,-1120,-1041,-574,-318,-2,128,-360
47214,8166,0,2023-03-01T18:59:23.068433,2152615,1230,1798,-1120,-1041,-574,-318,-2,128,-360
47215,8167,0,2023-03-01T18:59:23.073697,2152622,1229,1796,-1121,-1032,-570,-318,-2,128,-360
47216,8168,0,2023-03-01T18:59:23.079315,2152627,1229,1796,-1121,-1032,-570,-318,-2,128,-360
47217,8169,0,2023-03-01T18:59:23.084567,2152632,1229,1796,-1121,-1032,-570,-318,-2,128,-360
47218,8170,0,2023-03-01T18:59:23.090140,2152638,1229,1793,-1124,-1031,-575,-322,-2,128,-360
47219,8171,0,2023-03-01T18:59:23.095829,2152643,1229,1793,-1124,-1031,-575,-322,-2,128,-360
47220,8172,0,2023-03-01T18:59:23.100897,2152648,1229,1793,-1124,-1031,-575,-322,-2,128,-360
47221,8173,0,2023-03-01T18:59:23.105765,2152653,1229,1793,-1124,-1031,-575,-322,-2,128,-360
47222,8174,0,2023-03-01T18:59:23.112044,2152659,1230,1797,-1117,-1026,-565,-320,-2,128,-360
47223,8175,0,2023-03-01T18:59:23.117691,2152665,1230,1797,-1117,-1026,-565,-320,-2,128,-360
47224,8176,0,2023-03-01T18:59:23.122718,2152670,1230,1797,-1117,-1026,-565,-320,-2,128,-360
47225,8177,0,2023-03-01T18:59:23.128242,2152676,1230,1797,-1117,-1026,-565,-320,-2,128,-360
47226,8178,0,2023-03-01T18:59:23.134212,2152682,1231,1796,-1124,-1034,-570,-317,-2,128,-360
47227,8179,0,2023-03-01T18:59:23.140016,2152687,1231,1796,-1124,-1034,-570,-317,-2,128,-360
47228,8180,0,2023-03-01T18:59:23.146495,2152692,1231,1796,-1124,-1034,-570,-317,-2,128,-360
47229,8181,0,2023-03-01T18:59:23.152015,2152699,1229,1792,-1125,-1037,-575,-316,-2,128,-360
47230,8182,0,2023-03-01T18:59:23.157910,2152706,1229,1792,-1125,-1037,-575,-316,-2,128,-360
47231,8183,0,2023-03-01T18:59:23.162729,2152711,1229,1792,-1125,-1037,-575,-316,-2,128,-360
47232,8184,0,2023-03-01T18:59:23.168903,2152716,1229,1792,-1125,-1037,-575,-316,-2,128,-360
47233,8185,0,2023-03-01T18:59:23.175548,2152723,1228,1794,-1123,-1034,-579,-315,-2,128,-360
47234,8186,0,2023-03-01T18:59:23.180646,2152728,1228,1794,-1123,-1034,-579,-315,-2,128,-360
47235,8187,0,2023-03-01T18:59:23.185798,2152733,1228,1794,-1123,-1034,-579,-315,-2,128,-360
47236,8188,0,2023-03-01T18:59:23.191777,2152739,1229,1796,-1112,-1035,-578,-317,-15,123,-365
47237,8189,0,2023-03-01T18:59:23.197629,2152744,1229,1796,-1112,-1035,-578,-317,-15,123,-365
47238,8190,0,2023-03-01T18:59:23.202645,2152750,1229,1796,-1112,-1035,-578,-317,-15,123,-365
47239,8191,0,2023-03-01T18:59:23.208372,2152756,1229,1796,-1112,-1035,-578,-317,-15,123,-365
47240,8192,0,2023-03-01T18:59:23.214155,2152762,1226,1792,-1122,-1029,-571,-314,-15,123,-365
47241,8193,0,2023-03-01T18:59:23.220100,2152767,1226,1792,-1122,-1029,-571,-314,-15,123,-365
47242,8194,0,2023-03-01T18:59:23.225848,2152773,1226,1792,-1122,-1029,-571,-314,-15,123,-365
47243,8195,0,2023-03-01T18:59:23.233051,2152780,1228,1793,-1123,-1040,-572,-324,-15,123,-365
47244,8196,0,2023-03-01T18:59:23.239046,2152786,1228,1793,-1123,-1040,-572,-324,-15,123,-365
47245,8197,0,2023-03-01T18:59:23.243896,2152792,1228,1793,-1123,-1040,-572,-324,-15,123,-365
47246,8198,0,2023-03-01T18:59:23.249519,2152797,1228,1793,-1123,-1040,-572,-324,-15,123,-365
47247,8199,0,2023-03-01T18:59:23.254977,2152802,1230,1794,-1121,-1036,-581,-327,-15,123,-365
47248,8200,0,2023-03-01T18:59:23.264420,2152812,1230,1794,-1121,-1036,-581,-327,-15,123,-365
47249,8201,0,2023-03-01T18:59:23.270104,2152817,1227,1796,-1123,-1037,-575,-321,-15,123,-365
47250,8202,0,2023-03-01T18:59:23.276521,2152824,1227,1796,-1123,-1037,-575,-321,-15,123,-365
47251,8203,0,2023-03-01T18:59:23.282009,2152829,1227,1796,-1123,-1037,-575,-321,-15,123,-365
47252,8204,0,2023-03-01T18:59:23.288317,2152835,1227,1796,-1123,-1037,-575,-321,-15,123,-365
47253,8205,0,2023-03-01T18:59:23.293395,2152841,1231,1796,-1123,-1040,-576,-319,-15,123,-365
47254,8206,0,2023-03-01T18:59:23.299286,2152847,1231,1796,-1123,-1040,-576,-319,-15,123,-365
47255,8207,0,2023-03-01T18:59:23.304494,2152852,1231,1796,-1123,-1040,-576,-319,-15,123,-365
47256,8208,0,2023-03-01T18:59:23.310880,2152858,1228,1797,-1117,-1031,-572,-317,-11,129,-369
47257,8209,0,2023-03-01T18:59:23.317324,2152864,1228,1797,-1117,-1031,-572,-317,-11,129,-369
47258,8210,0,2023-03-01T18:59:23.322336,2152869,1228,1797,-1117,-1031,-572,-317,-11,129,-369
47259,8211,0,2023-03-01T18:59:23.327931,2152876,1228,1797,-1117,-1031,-572,-317,-11,129,-369
47260,8212,0,2023-03-01T18:59:23.332908,2152881,1228,1798,-1121,-1030,-575,-325,-11,129,-369
47261,8213,0,2023-03-01T18:59:23.338749,2152886,1228,1798,-1121,-1030,-575,-325,-11,129,-369
47262,8214,0,2023-03-01T18:59:23.343752,2152891,1228,1798,-1121,-1030,-575,-325,-11,129,-369
47263,8215,0,2023-03-01T18:59:23.349901,2152897,1229,1796,-1125,-1027,-578,-314,-11,129,-369
47264,8216,0,2023-03-01T18:59:23.355785,2152903,1229,1796,-1125,-1027,-578,-314,-11,129,-369
47265,8217,0,2023-03-01T18:59:23.360685,2152908,1229,1796,-1125,-1027,-578,-314,-11,129,-369
47266,8218,0,2023-03-01T18:59:23.365411,2152912,1229,1796,-1125,-1027,-578,-314,-11,129,-369
47267,8219,0,2023-03-01T18:59:23.371888,2152919,1229,1795,-1121,-1034,-577,-318,-11,129,-369
47268,8220,0,2023-03-01T18:59:23.378013,2152926,1229,1795,-1121,-1034,-577,-318,-11,129,-369
47269,8221,0,2023-03-01T18:59:23.382570,2152930,1229,1795,-1121,-1034,-577,-318,-11,129,-369
47270,8222,0,2023-03-01T18:59:23.387627,2152935,1229,1795,-1121,-1034,-577,-318,-11,129,-369
47271,8223,0,2023-03-01T18:59:23.392290,2152940,1231,1794,-1119,-1036,-579,-316,-11,129,-369
47272,8224,0,2023-03-01T18:59:23.397719,2152945,1231,1794,-1119,-1036,-579,-316,-11,129,-369
47273,8225,0,2023-03-01T18:59:23.402478,2152950,1231,1794,-1119,-1036,-579,-316,-11,129,-369
47274,8226,0,2023-03-01T18:59:23.408038,2152955,1231,1794,-1119,-1036,-579,-316,-11,129,-369
47275,8227,0,2023-03-01T18:59:23.413828,2152962,1230,1794,-1117,-1032,-568,-327,-11,129,-369
47276,8228,0,2023-03-01T18:59:23.419457,2152967,1230,1794,-1117,-1032,-568,-327,-11,129,-369
47277,8229,0,2023-03-01T18:59:23.423948,2152972,1230,1794,-1117,-1032,-568,-327,-11,129,-369
47278,8230,0,2023-03-01T18:59:23.429614,2152977,1230,1794,-1117,-1032,-568,-327,-11,129,-369
47279,8231,0,2023-03-01T18:59:23.435320,2152983,1230,1796,-1124,-1032,-572,-319,-11,129,-369
47280,8232,0,2023-03-01T18:59:23.440489,2152988,1230,1796,-1124,-1032,-572,-319,-11,129,-369
47281,8233,0,2023-03-01T18:59:23.445525,2152993,1230,1796,-1124,-1032,-572,-319,-11,129,-369
47282,8234,0,2023-03-01T18:59:23.451002,2152998,1229,1795,-1118,-1034,-565,-314,-8,128,-362
47283,8235,0,2023-03-01T18:59:23.458024,2153005,1229,1795,-1118,-1034,-565,-314,-8,128,-362
47284,8236,0,2023-03-01T18:59:23.463142,2153011,1229,1795,-1118,-1034,-565,-314,-8,128,-362
47285,8237,0,2023-03-01T18:59:23.468407,2153016,1229,1795,-1118,-1034,-565,-314,-8,128,-362
47286,8238,0,2023-03-01T18:59:23.473388,2153021,1231,1795,-1121,-1031,-572,-323,-8,128,-362
47287,8239,0,2023-03-01T18:59:23.480213,2153028,1231,1795,-1121,-1031,-572,-323,-8,128,-362
47288,8240,0,2023-03-01T18:59:23.485113,2153032,1231,1795,-1121,-1031,-572,-323,-8,128,-362
47289,8241,0,2023-03-01T18:59:23.490826,2153038,1228,1795,-1123,-1038,-576,-321,-8,128,-362
47290,8242,0,2023-03-01T18:59:23.496356,2153043,1228,1795,-1123,-1038,-576,-321,-8,128,-362
47291,8243,0,2023-03-01T18:59:23.500690,2153049,1228,1795,-1123,-1038,-576,-321,-8,128,-362
47292,8244,0,2023-03-01T18:59:23.505644,2153053,1228,1795,-1123,-1038,-576,-321,-8,128,-362
47293,8245,0,2023-03-01T18:59:23.511004,2153059,1230,1799,-1124,-1031,-571,-321,-8,128,-362
47294,8246,0,2023-03-01T18:59:23.516390,2153064,1230,1799,-1124,-1031,-571,-321,-8,128,-362
47295,8247,0,2023-03-01T18:59:23.521160,2153068,1230,1799,-1124,-1031,-571,-321,-8,128,-362
47296,8248,0,2023-03-01T18:59:23.525990,2153073,1230,1799,-1124,-1031,-571,-321,-8,128,-362
47297,8249,0,2023-03-01T18:59:23.531830,2153079,1229,1794,-1121,-1034,-567,-319,-8,128,-362
47298,8250,0,2023-03-01T18:59:23.537390,2153084,1229,1794,-1121,-1034,-567,-319,-8,128,-362
47299,8251,0,2023-03-01T18:59:23.542459,2153090,1229,1794,-1121,-1034,-567,-319,-8,128,-362
47300,8252,0,2023-03-01T18:59:23.548065,2153096,1229,1794,-1121,-1034,-567,-319,-8,128,-362
47301,8253,0,2023-03-01T18:59:23.553158,2153101,1229,1793,-1123,-1039,-572,-322,-8,128,-362
47302,8254,0,2023-03-01T18:59:23.558938,2153106,1229,1793,-1123,-1039,-572,-322,-8,128,-362
47303,8255,0,2023-03-01T18:59:23.563792,2153111,1229,1793,-1123,-1039,-572,-322,-8,128,-362
47304,8256,0,2023-03-01T18:59:23.568941,2153116,1229,1793,-1123,-1039,-572,-322,-8,128,-362
47305,8257,0,2023-03-01T18:59:23.573750,2153121,1231,1791,-1120,-1035,-566,-318,-6,128,-376
47306,8258,0,2023-03-01T18:59:23.579632,2153127,1231,1791,-1120,-1035,-566,-318,-6,128,-376
47307,8259,0,2023-03-01T18:59:23.585080,2153133,1231,1791,-1120,-1035,-566,-318,-6,128,-376
47308,8260,0,2023-03-01T18:59:23.591334,2153139,1228,1795,-1119,-1028,-568,-323,-6,128,-376
47309,8261,0,2023-03-01T18:59:23.596692,2153144,1228,1795,-1119,-1028,-568,-323,-6,128,-376
47310,8262,0,2023-03-01T18:59:23.601838,2153149,1228,1795,-1119,-1028,-568,-323,-6,128,-376
47311,8263,0,2023-03-01T18:59:23.606475,2153154,1228,1795,-1119,-1028,-568,-323,-6,128,-376
47312,8264,0,2023-03-01T18:59:23.612510,2153160,1227,1794,-1121,-1030,-577,-332,-6,128,-376
47313,8265,0,2023-03-01T18:59:23.617060,2153164,1227,1794,-1121,-1030,-577,-332,-6,128,-376
47314,8266,0,2023-03-01T18:59:23.622511,2153169,1227,1794,-1121,-1030,-577,-332,-6,128,-376
47315,8267,0,2023-03-01T18:59:23.627646,2153175,1227,1794,-1121,-1030,-577,-332,-6,128,-376
47316,8268,0,2023-03-01T18:59:23.633224,2153181,1233,1794,-1122,-1034,-574,-328,-6,128,-376
47317,8269,0,2023-03-01T18:59:23.638419,2153186,1233,1794,-1122,-1034,-574,-328,-6,128,-376
47318,8270,0,2023-03-01T18:59:23.644034,2153191,1233,1794,-1122,-1034,-574,-328,-6,128,-376
47319,8271,0,2023-03-01T18:59:23.649771,2153197,1233,1794,-1122,-1034,-574,-328,-6,128,-376
47320,8272,0,2023-03-01T18:59:23.654619,2153202,1226,1791,-1122,-1033,-573,-326,-6,128,-376
47321,8273,0,2023-03-01T18:59:23.659155,2153206,1226,1791,-1122,-1033,-573,-326,-6,128,-376
47322,8274,0,2023-03-01T18:59:23.664111,2153211,1226,1791,-1122,-1033,-573,-326,-6,128,-376
47323,8275,0,2023-03-01T18:59:23.669589,2153218,1226,1791,-1122,-1033,-573,-326,-6,128,-376
47324,8276,0,2023-03-01T18:59:23.674230,2153222,1228,1795,-1122,-1029,-570,-321,-6,128,-376
47325,8277,0,2023-03-01T18:59:23.679707,2153227,1228,1795,-1122,-1029,-570,-321,-6,128,-376
47326,8278,0,2023-03-01T18:59:23.684639,2153232,1228,1795,-1122,-1029,-570,-321,-6,128,-376
47327,8279,0,2023-03-01T18:59:23.689822,2153237,1231,1796,-1120,-1034,-571,-322,-6,128,-376
47328,8280,0,2023-03-01T18:59:23.696819,2153244,1231,1796,-1120,-1034,-571,-322,-18,124,-370
47329,8281,0,2023-03-01T18:59:23.701814,2153249,1231,1796,-1120,-1034,-571,-322,-18,124,-370
47330,8282,0,2023-03-01T18:59:23.706704,2153254,1231,1796,-1120,-1034,-571,-322,-18,124,-370
47331,8283,0,2023-03-01T18:59:23.712729,2153260,1227,1794,-1122,-1037,-572,-321,-18,124,-370
47332,8284,0,2023-03-01T18:59:23.718289,2153266,1227,1794,-1122,-1037,-572,-321,-18,124,-370
47333,8285,0,2023-03-01T18:59:23.722994,2153271,1227,1794,-1122,-1037,-572,-321,-18,124,-370
47334,8286,0,2023-03-01T18:59:23.728565,2153276,1227,1794,-1122,-1037,-572,-321,-18,124,-370
47335,8287,0,2023-03-01T18:59:23.733929,2153281,1231,1795,-1117,-1034,-573,-318,-18,124,-370
47336,8288,0,2023-03-01T18:59:23.739439,2153287,1231,1795,-1117,-1034,-573,-318,-18,124,-370
47337,8289,0,2023-03-01T18:59:23.744347,2153292,1231,1795,-1117,-1034,-573,-318,-18,124,-370
47338,8290,0,2023-03-01T18:59:23.750123,2153297,1233,1794,-1123,-1029,-575,-322,-18,124,-370
47339,8291,0,2023-03-01T18:59:23.756078,2153304,1233,1794,-1123,-1029,-575,-322,-18,124,-370
47340,8292,0,2023-03-01T18:59:23.761348,2153309,1233,1794,-1123,-1029,-575,-322,-18,124,-370
47341,8293,0,2023-03-01T18:59:23.766261,2153314,1233,1794,-1123,-1029,-575,-322,-18,124,-370
47342,8294,0,2023-03-01T18:59:23.772869,2153320,1233,1794,-1125,-1031,-580,-328,-18,124,-370
47343,8295,0,2023-03-01T18:59:23.778520,2153326,1233,1794,-1125,-1031,-580,-328,-18,124,-370
47344,8296,0,2023-03-01T18:59:23.783343,2153331,1233,1794,-1125,-1031,-580,-328,-18,124,-370
47345,8297,0,2023-03-01T18:59:23.788668,2153336,1233,1794,-1125,-1031,-580,-328,-18,124,-370
47346,8298,0,2023-03-01T18:59:23.795215,2153341,1227,1793,-1127,-1030,-574,-325,-18,124,-370
47347,8299,0,2023-03-01T18:59:23.800936,2153349,1227,1793,-1127,-1030,-574,-325,-18,124,-370
47348,8300,0,2023-03-01T18:59:23.807507,2153355,1227,1793,-1127,-1030,-574,-325,-18,124,-370
47349,8301,0,2023-03-01T18:59:23.813752,2153361,1230,1798,-1125,-1029,-564,-322,-18,124,-370
47350,8302,0,2023-03-01T18:59:23.819293,2153366,1230,1798,-1125,-1029,-564,-322,-18,124,-370
47351,8303,0,2023-03-01T18:59:23.825324,2153373,1230,1798,-1125,-1029,-564,-322,-18,124,-370
47352,8304,0,2023-03-01T18:59:23.831407,2153379,1230,1795,-1120,-1033,-569,-321,-9,125,-367
47353,8305,0,2023-03-01T18:59:23.836347,2153383,1230,1795,-1120,-1033,-569,-321,-9,125,-367
47354,8306,0,2023-03-01T18:59:23.841503,2153389,1230,1795,-1120,-1033,-569,-321,-9,125,-367
47355,8307,0,2023-03-01T18:59:23.846553,2153394,1230,1795,-1120,-1033,-569,-321,-9,125,-367
47356,8308,0,2023-03-01T18:59:23.853168,2153401,1230,1797,-1121,-1029,-569,-325,-9,125,-367
47357,8309,0,2023-03-01T18:59:23.858554,2153406,1230,1797,-1121,-1029,-569,-325,-9,125,-367
47358,8310,0,2023-03-01T18:59:23.863341,2153411,1230,1797,-1121,-1029,-569,-325,-9,125,-367
47359,8311,0,2023-03-01T18:59:23.869346,2153417,1230,1797,-1121,-1029,-569,-325,-9,125,-367
47360,8312,0,2023-03-01T18:59:23.874541,2153421,1230,1798,-1118,-1026,-575,-326,-9,125,-367
47361,8313,0,2023-03-01T18:59:23.880489,2153427,1230,1798,-1118,-1026,-575,-326,-9,125,-367
47362,8314,0,2023-03-01T18:59:23.885287,2153433,1230,1798,-1118,-1026,-575,-326,-9,125,-367
47363,8315,0,2023-03-01T18:59:23.891556,2153439,1228,1797,-1115,-1035,-570,-319,-9,125,-367
47364,8316,0,2023-03-01T18:59:23.898237,2153446,1228,1797,-1115,-1035,-570,-319,-9,125,-367
47365,8317,0,2023-03-01T18:59:23.903510,2153451,1228,1797,-1115,-1035,-570,-319,-9,125,-367
47366,8318,0,2023-03-01T18:59:23.909136,2153456,1228,1797,-1115,-1035,-570,-319,-9,125,-367
47367,8319,0,2023-03-01T18:59:23.914719,2153461,1230,1795,-1116,-1036,-576,-314,-9,125,-367
47368,8320,0,2023-03-01T18:59:23.920550,2153467,1230,1795,-1116,-1036,-576,-314,-9,125,-367
47369,8321,0,2023-03-01T18:59:23.925420,2153473,1230,1795,-1116,-1036,-576,-314,-9,125,-367
47370,8322,0,2023-03-01T18:59:23.931497,2153479,1231,1793,-1124,-1026,-573,-318,-9,125,-367
47371,8323,0,2023-03-01T18:59:23.937550,2153485,1231,1793,-1124,-1026,-573,-318,-9,125,-367
47372,8324,0,2023-03-01T18:59:23.942541,2153490,1231,1793,-1124,-1026,-573,-318,-9,125,-367
47373,8325,0,2023-03-01T18:59:23.948195,2153496,1231,1793,-1124,-1026,-573,-318,-9,125,-367
47374,8326,0,2023-03-01T18:59:23.954790,2153502,1230,1799,-1122,-1029,-572,-322,-21,123,-367
47375,8327,0,2023-03-01T18:59:23.960446,2153507,1230,1799,-1122,-1029,-572,-322,-21,123,-367
47376,8328,0,2023-03-01T18:59:23.965759,2153513,1230,1799,-1122,-1029,-572,-322,-21,123,-367
47377,8329,0,2023-03-01T18:59:23.971626,2153520,1228,1796,-1121,-1036,-578,-326,-21,123,-367
47378,8330,0,2023-03-01T18:59:23.977092,2153525,1228,1796,-1121,-1036,-578,-326,-21,123,-367
47379,8331,0,2023-03-01T18:59:23.982025,2153530,1228,1796,-1121,-1036,-578,-326,-21,123,-367
47380,8332,0,2023-03-01T18:59:23.987036,2153534,1228,1796,-1121,-1036,-578,-326,-21,123,-367
47381,8333,0,2023-03-01T18:59:23.993542,2153541,1231,1793,-1120,-1038,-572,-325,-21,123,-367
47382,8334,0,2023-03-01T18:59:23.999147,2153546,1231,1793,-1120,-1038,-572,-325,-21,123,-367
47383,8335,0,2023-03-01T18:59:24.003463,2153551,1231,1793,-1120,-1038,-572,-325,-21,123,-367
47384,8336,0,2023-03-01T18:59:24.008831,2153556,1231,1793,-1120,-1038,-572,-325,-21,123,-367
47385,8337,0,2023-03-01T18:59:24.014559,2153562,1229,1798,-1123,-1032,-574,-327,-21,123,-367
47386,8338,0,2023-03-01T18:59:24.020203,2153568,1229,1798,-1123,-1032,-574,-327,-21,123,-367
47387,8339,0,2023-03-01T18:59:24.025422,2153573,1229,1798,-1123,-1032,-574,-327,-21,123,-367
47388,8340,0,2023-03-01T18:59:24.031994,2153579,1231,1796,-1123,-1029,-576,-323,-21,123,-367
47389,8341,0,2023-03-01T18:59:24.037600,2153585,1231,1796,-1123,-1029,-576,-323,-21,123,-367
47390,8342,0,2023-03-01T18:59:24.042667,2153590,1231,1796,-1123,-1029,-576,-323,-21,123,-367
47391,8343,0,2023-03-01T18:59:24.048566,2153595,1231,1796,-1123,-1029,-576,-323,-21,123,-367
47392,8344,0,2023-03-01T18:59:24.054128,2153602,1230,1797,-1122,-1028,-568,-321,-21,123,-367
47393,8345,0,2023-03-01T18:59:24.059465,2153607,1230,1797,-1122,-1028,-568,-321,-21,123,-367
47394,8346,0,2023-03-01T18:59:24.064058,2153612,1230,1797,-1122,-1028,-568,-321,-21,123,-367
47395,8347,0,2023-03-01T18:59:24.069566,2153617,1230,1797,-1122,-1028,-568,-321,-21,123,-367
47396,8348,0,2023-03-01T18:59:24.074433,2153622,1234,1794,-1122,-1030,-571,-321,-21,123,-367
47397,8349,0,2023-03-01T18:59:24.080077,2153627,1234,1794,-1122,-1030,-571,-321,-21,123,-367
47398,8350,0,2023-03-01T18:59:24.085783,2153632,1234,1794,-1122,-1030,-571,-321,-21,123,-367
47399,8351,0,2023-03-01T18:59:24.091198,2153638,1230,1796,-1118,-1025,-566,-321,-7,127,-367
47400,8352,0,2023-03-01T18:59:24.096920,2153645,1230,1796,-1118,-1025,-566,-321,-7,127,-367
47401,8353,0,2023-03-01T18:59:24.101757,2153650,1230,1796,-1118,-1025,-566,-321,-7,127,-367
47402,8354,0,2023-03-01T18:59:24.107315,2153654,1230,1796,-1118,-1025,-566,-321,-7,127,-367
47403,8355,0,2023-03-01T18:59:24.113207,2153661,1230,1796,-1122,-1036,-565,-319,-7,127,-367
47404,8356,0,2023-03-01T18:59:24.119269,2153667,1230,1796,-1122,-1036,-565,-319,-7,127,-367
47405,8357,0,2023-03-01T18:59:24.124217,2153671,1230,1796,-1122,-1036,-565,-319,-7,127,-367
47406,8358,0,2023-03-01T18:59:24.130149,2153677,1230,1796,-1122,-1036,-565,-319,-7,127,-367
47407,8359,0,2023-03-01T18:59:24.135562,2153682,1231,1794,-1120,-1039,-567,-317,-7,127,-367
47408,8360,0,2023-03-01T18:59:24.141798,2153690,1231,1794,-1120,-1039,-567,-317,-7,127,-367
47409,8361,0,2023-03-01T18:59:24.146715,2153694,1231,1794,-1120,-1039,-567,-317,-7,127,-367
47410,8362,0,2023-03-01T18:59:24.151514,2153699,1229,1793,-1121,-1031,-574,-324,-7,127,-367
47411,8363,0,2023-03-01T18:59:24.157280,2153705,1229,1793,-1121,-1031,-574,-324,-7,127,-367
47412,8364,0,2023-03-01T18:59:24.162466,2153710,1229,1793,-1121,-1031,-574,-324,-7,127,-367
47413,8365,0,2023-03-01T18:59:24.168195,2153715,1229,1793,-1121,-1031,-574,-324,-7,127,-367
47414,8366,0,2023-03-01T18:59:24.173150,2153720,1230,1793,-1124,-1036,-576,-320,-7,127,-367
47415,8367,0,2023-03-01T18:59:24.178728,2153726,1230,1793,-1124,-1036,-576,-320,-7,127,-367
47416,8368,0,2023-03-01T18:59:24.183444,2153731,1230,1793,-1124,-1036,-576,-320,-7,127,-367
47417,8369,0,2023-03-01T18:59:24.189011,2153737,1230,1793,-1124,-1036,-576,-320,-7,127,-367
47418,8370,0,2023-03-01T18:59:24.194410,2153742,1228,1795,-1120,-1029,-576,-315,-7,127,-367
47419,8371,0,2023-03-01T18:59:24.199934,2153748,1228,1795,-1120,-1029,-576,-315,-7,127,-367
47420,8372,0,2023-03-01T18:59:24.204742,2153752,1228,1795,-1120,-1029,-576,-315,-7,127,-367
47421,8373,0,2023-03-01T18:59:24.210247,2153757,1228,1795,-1120,-1029,-576,-315,-7,127,-367
47422,8374,0,2023-03-01T18:59:24.215544,2153762,1231,1796,-1122,-1029,-565,-323,-14,128,-370
47423,8375,0,2023-03-01T18:59:24.222120,2153768,1231,1796,-1122,-1029,-565,-323,-14,128,-370
47424,8376,0,2023-03-01T18:59:24.227412,2153775,1231,1796,-1122,-1029,-565,-323,-14,128,-370
47425,8377,0,2023-03-01T18:59:24.233894,2153782,1226,1799,-1121,-1035,-571,-318,-14,128,-370
47426,8378,0,2023-03-01T18:59:24.240142,2153787,1226,1799,-1121,-1035,-571,-318,-14,128,-370
47427,8379,0,2023-03-01T18:59:24.246294,2153793,1226,1799,-1121,-1035,-571,-318,-14,128,-370
47428,8380,0,2023-03-01T18:59:24.252232,2153799,1229,1796,-1120,-1035,-573,-321,-14,128,-370
47429,8381,0,2023-03-01T18:59:24.258101,2153805,1229,1796,-1120,-1035,-573,-321,-14,128,-370
47430,8382,0,2023-03-01T18:59:24.263195,2153810,1229,1796,-1120,-1035,-573,-321,-14,128,-370
47431,8383,0,2023-03-01T18:59:24.268677,2153817,1229,1796,-1120,-1035,-573,-321,-14,128,-370
47432,8384,0,2023-03-01T18:59:24.274616,2153822,1233,1797,-1123,-1034,-577,-320,-14,128,-370
47433,8385,0,2023-03-01T18:59:24.280806,2153828,1233,1797,-1123,-1034,-577,-320,-14,128,-370
47434,8386,0,2023-03-01T18:59:24.285705,2153833,1233,1797,-1123,-1034,-577,-320,-14,128,-370
47435,8387,0,2023-03-01T18:59:24.291586,2153839,1227,1796,-1122,-1030,-582,-325,-14,128,-370
47436,8388,0,2023-03-01T18:59:24.297519,2153845,1227,1796,-1122,-1030,-582,-325,-14,128,-370
47437,8389,0,2023-03-01T18:59:24.302419,2153849,1227,1796,-1122,-1030,-582,-325,-14,128,-370
47438,8390,0,2023-03-01T18:59:24.307590,2153856,1227,1796,-1122,-1030,-582,-325,-14,128,-370
47439,8391,0,2023-03-01T18:59:24.313803,2153862,1230,1795,-1120,-1029,-578,-321,-14,128,-370
47440,8392,0,2023-03-01T18:59:24.319546,2153867,1230,1795,-1120,-1029,-578,-321,-14,128,-370
47441,8393,0,2023-03-01T18:59:24.324655,2153872,1230,1795,-1120,-1029,-578,-321,-14,128,-370
47442,8394,0,2023-03-01T18:59:24.330521,2153878,1230,1795,-1120,-1029,-578,-321,-14,128,-370
47443,8395,0,2023-03-01T18:59:24.335879,2153883,1230,1795,-1123,-1029,-570,-331,-14,128,-370
47444,8396,0,2023-03-01T18:59:24.341561,2153889,1230,1795,-1123,-1029,-570,-331,-14,128,-370
47445,8397,0,2023-03-01T18:59:24.346376,2153893,1230,1795,-1123,-1029,-570,-331,-14,128,-370
47446,8398,0,2023-03-01T18:59:24.352745,2153899,1228,1793,-1119,-1028,-576,-328,-6,124,-368
47447,8399,0,2023-03-01T18:59:24.359178,2153907,1228,1793,-1119,-1028,-576,-328,-6,124,-368
47448,8400,0,2023-03-01T18:59:24.364688,2153912,1228,1793,-1119,-1028,-576,-328,-6,124,-368
47449,8401,0,2023-03-01T18:59:24.370180,2153918,1228,1793,-1119,-1028,-576,-328,-6,124,-368
47450,8402,0,2023-03-01T18:59:24.375936,2153923,1230,1793,-1123,-1035,-574,-321,-6,124,-368
47451,8403,0,2023-03-01T18:59:24.381719,2153929,1230,1793,-1123,-1035,-574,-321,-6,124,-368
47452,8404,0,2023-03-01T18:59:24.387487,2153934,1230,1793,-1123,-1035,-574,-321,-6,124,-368
47453,8405,0,2023-03-01T18:59:24.393539,2153942,1232,1795,-1114,-1039,-571,-327,-6,124,-368
47454,8406,0,2023-03-01T18:59:24.399250,2153947,1232,1795,-1114,-1039,-571,-327,-6,124,-368
47455,8407,0,2023-03-01T18:59:24.404420,2153952,1232,1795,-1114,-1039,-571,-327,-6,124,-368
47456,8408,0,2023-03-01T18:59:24.409936,2153957,1232,1795,-1114,-1039,-571,-327,-6,124,-368
47457,8409,0,2023-03-01T18:59:24.415955,2153963,1230,1799,-1120,-1035,-581,-320,-6,124,-368
47458,8410,0,2023-03-01T18:59:24.422362,2153970,1230,1799,-1120,-1035,-581,-320,-6,124,-368
47459,8411,0,2023-03-01T18:59:24.427200,2153974,1230,1799,-1120,-1035,-581,-320,-6,124,-368
47460,8412,0,2023-03-01T18:59:24.432252,2153979,1231,1798,-1118,-1036,-575,-324,-6,124,-368
47461,8413,0,2023-03-01T18:59:24.438157,2153986,1231,1798,-1118,-1036,-575,-324,-6,124,-368
47462,8414,0,2023-03-01T18:59:24.443332,2153991,1231,1798,-1118,-1036,-575,-324,-6,124,-368
47463,8415,0,2023-03-01T18:59:24.449466,2153997,1231,1798,-1118,-1036,-575,-324,-6,124,-368
47464,8416,0,2023-03-01T18:59:24.455337,2154003,1233,1795,-1119,-1036,-570,-329,-6,124,-368
47465,8417,0,2023-03-01T18:59:24.460115,2154007,1233,1795,-1119,-1036,-570,-329,-6,124,-368
47466,8418,0,2023-03-01T18:59:24.465052,2154012,1233,1795,-1119,-1036,-570,-329,-6,124,-368
47467,8419,0,2023-03-01T18:59:24.470354,2154018,1233,1795,-1119,-1036,-570,-329,-6,124,-368
47468,8420,0,2023-03-01T18:59:24.475066,2154022,1232,1795,-1121,-1035,-571,-326,-13,121,-367
47469,8421,0,2023-03-01T18:59:24.481143,2154029,1232,1795,-1121,-1035,-571,-326,-13,121,-367
47470,8422,0,2023-03-01T18:59:24.486072,2154034,1232,1795,-1121,-1035,-571,-326,-13,121,-367
47471,8423,0,2023-03-01T18:59:24.492446,2154040,1230,1795,-1117,-1035,-568,-328,-13,121,-367
47472,8424,0,2023-03-01T18:59:24.498877,2154046,1230,1795,-1117,-1035,-568,-328,-13,121,-367
47473,8425,0,2023-03-01T18:59:24.503941,2154051,1230,1795,-1117,-1035,-568,-328,-13,121,-367
47474,8426,0,2023-03-01T18:59:24.509730,2154057,1230,1795,-1117,-1035,-568,-328,-13,121,-367
47475,8427,0,2023-03-01T18:59:24.514633,2154062,1227,1793,-1127,-1035,-569,-326,-13,121,-367
47476,8428,0,2023-03-01T18:59:24.520276,2154067,1227,1793,-1127,-1035,-569,-326,-13,121,-367
47477,8429,0,2023-03-01T18:59:24.525507,2154073,1227,1793,-1127,-1035,-569,-326,-13,121,-367
47478,8430,0,2023-03-01T18:59:24.531214,2154079,1230,1798,-1118,-1039,-576,-322,-13,121,-367
47479,8431,0,2023-03-01T18:59:24.537034,2154085,1230,1798,-1118,-1039,-576,-322,-13,121,-367
47480,8432,0,2023-03-01T18:59:24.542642,2154090,1230,1798,-1118,-1039,-576,-322,-13,121,-367
47481,8433,0,2023-03-01T18:59:24.547605,2154095,1230,1798,-1118,-1039,-576,-322,-13,121,-367
47482,8434,0,2023-03-01T18:59:24.553403,2154101,1231,1796,-1124,-1031,-571,-322,-13,121,-367
47483,8435,0,2023-03-01T18:59:24.559188,2154106,1231,1796,-1124,-1031,-571,-322,-13,121,-367
47484,8436,0,2023-03-01T18:59:24.564366,2154112,1231,1796,-1124,-1031,-571,-322,-13,121,-367
47485,8437,0,2023-03-01T18:59:24.570091,2154118,1231,1796,-1124,-1031,-571,-322,-13,121,-367
47486,8438,0,2023-03-01T18:59:24.574964,2154123,1229,1796,-1125,-1035,-572,-326,-13,121,-367
47487,8439,0,2023-03-01T18:59:24.580431,2154128,1229,1796,-1125,-1035,-572,-326,-13,121,-367
47488,8440,0,2023-03-01T18:59:24.585151,2154133,1229,1796,-1125,-1035,-572,-326,-13,121,-367
47489,8441,0,2023-03-01T18:59:24.590715,2154138,1229,1796,-1125,-1035,-572,-326,-13,121,-367
47490,8442,0,2023-03-01T18:59:24.595449,2154143,1226,1794,-1121,-1039,-572,-325,-6,130,-374
47491,8443,0,2023-03-01T18:59:24.600810,2154148,1226,1794,-1121,-1039,-572,-325,-6,130,-374
47492,8444,0,2023-03-01T18:59:24.605561,2154153,1226,1794,-1121,-1039,-572,-325,-6,130,-374
47493,8445,0,2023-03-01T18:59:24.611024,2154159,1226,1794,-1121,-1039,-572,-325,-6,130,-374
47494,8446,0,2023-03-01T18:59:24.616246,2154164,1229,1798,-1116,-1033,-573,-325,-6,130,-374
47495,8447,0,2023-03-01T18:59:24.622476,2154170,1229,1798,-1116,-1033,-573,-325,-6,130,-374
47496,8448,0,2023-03-01T18:59:24.627226,2154175,1229,1798,-1116,-1033,-573,-325,-6,130,-374
47497,8449,0,2023-03-01T18:59:24.633423,2154181,1229,1795,-1118,-1026,-570,-324,-6,130,-374
47498,8450,0,2023-03-01T18:59:24.639173,2154187,1229,1795,-1118,-1026,-570,-324,-6,130,-374
47499,8451,0,2023-03-01T18:59:24.644313,2154191,1229,1795,-1118,-1026,-570,-324,-6,130,-374
47500,8452,0,2023-03-01T18:59:24.650083,2154198,1229,1795,-1118,-1026,-570,-324,-6,130,-374
47501,8453,0,2023-03-01T18:59:24.655820,2154204,1227,1794,-1128,-1040,-578,-328,-6,130,-374
47502,8454,0,2023-03-01T18:59:24.661169,2154209,1227,1794,-1128,-1040,-578,-328,-6,130,-374
47503,8455,0,2023-03-01T18:59:24.666432,2154214,1227,1794,-1128,-1040,-578,-328,-6,130,-374
47504,8456,0,2023-03-01T18:59:24.671943,2154219,1227,1794,-1128,-1040,-578,-328,-6,130,-374
47505,8457,0,2023-03-01T18:59:24.677626,2154224,1227,1794,-1128,-1040,-578,-328,-6,130,-374
47506,8458,0,2023-03-01T18:59:24.683471,2154230,1227,1794,-1128,-1040,-578,-328,-6,130,-374
47507,8459,0,2023-03-01T18:59:24.689275,2154236,1227,1794,-1128,-1040,-578,-328,-6,130,-374
47508,8460,0,2023-03-01T18:59:24.695050,2154243,1230,1799,-1122,-1035,-583,-319,-6,130,-374
47509,8461,0,2023-03-01T18:59:24.700648,2154248,1230,1799,-1122,-1035,-583,-319,-6,130,-374
47510,8462,0,2023-03-01T18:59:24.705724,2154253,1230,1799,-1122,-1035,-583,-319,-6,130,-374
47511,8463,0,2023-03-01T18:59:24.711522,2154259,1228,1795,-1115,-1037,-574,-328,-6,130,-374
47512,8464,0,2023-03-01T18:59:24.717594,2154265,1228,1795,-1115,-1037,-574,-328,-6,130,-374
47513,8465,0,2023-03-01T18:59:24.722439,2154270,1228,1795,-1115,-1037,-574,-328,-6,130,-374
47514,8466,0,2023-03-01T18:59:24.727423,2154275,1228,1795,-1115,-1037,-574,-328,-6,130,-374
47515,8467,0,2023-03-01T18:59:24.733605,2154280,1228,1795,-1121,-1035,-582,-318,-12,130,-372
47516,8468,0,2023-03-01T18:59:24.739063,2154287,1228,1795,-1121,-1035,-582,-318,-12,130,-372
47517,8469,0,2023-03-01T18:59:24.743799,2154292,1228,1795,-1121,-1035,-582,-318,-12,130,-372
47518,8470,0,2023-03-01T18:59:24.749128,2154297,1228,1795,-1121,-1035,-582,-318,-12,130,-372
47519,8471,0,2023-03-01T18:59:24.754198,2154302,1229,1794,-1113,-1035,-577,-313,-12,130,-372
47520,8472,0,2023-03-01T18:59:24.759922,2154307,1229,1794,-1113,-1035,-577,-313,-12,130,-372
47521,8473,0,2023-03-01T18:59:24.764861,2154312,1229,1794,-1113,-1035,-577,-313,-12,130,-372
47522,8474,0,2023-03-01T18:59:24.770802,2154318,1229,1794,-1113,-1035,-577,-313,-12,130,-372
47523,8475,0,2023-03-01T18:59:24.775739,2154323,1228,1796,-1120,-1041,-575,-315,-12,130,-372
47524,8476,0,2023-03-01T18:59:24.781692,2154329,1228,1796,-1120,-1041,-575,-315,-12,130,-372
47525,8477,0,2023-03-01T18:59:24.787005,2154335,1228,1796,-1120,-1041,-575,-315,-12,130,-372
47526,8478,0,2023-03-01T18:59:24.793193,2154341,1231,1795,-1115,-1032,-572,-314,-12,130,-372
47527,8479,0,2023-03-01T18:59:24.798718,2154346,1231,1795,-1115,-1032,-572,-314,-12,130,-372
47528,8480,0,2023-03-01T18:59:24.803579,2154351,1231,1795,-1115,-1032,-572,-314,-12,130,-372
47529,8481,0,2023-03-01T18:59:24.808320,2154356,1231,1795,-1115,-1032,-572,-314,-12,130,-372
47530,8482,0,2023-03-01T18:59:24.814373,2154361,1231,1795,-1120,-1027,-571,-316,-12,130,-372
47531,8483,0,2023-03-01T18:59:24.820495,2154368,1231,1795,-1120,-1027,-571,-316,-12,130,-372
47532,8484,0,2023-03-01T18:59:24.825588,2154373,1231,1795,-1120,-1027,-571,-316,-12,130,-372
47533,8485,0,2023-03-01T18:59:24.831085,2154379,1231,1795,-1120,-1027,-571,-316,-12,130,-372
47534,8486,0,2023-03-01T18:59:24.836110,2154384,1231,1796,-1120,-1032,-570,-323,-12,130,-372
47535,8487,0,2023-03-01T18:59:24.841384,2154389,1231,1796,-1120,-1032,-570,-323,-12,130,-372
47536,8488,0,2023-03-01T18:59:24.846912,2154394,1231,1796,-1120,-1032,-570,-323,-12,130,-372
47537,8489,0,2023-03-01T18:59:24.853408,2154400,1229,1795,-1123,-1039,-577,-321,-11,125,-367
47538,8490,0,2023-03-01T18:59:24.859349,2154406,1229,1795,-1123,-1039,-577,-321,-11,125,-367
47539,8491,0,2023-03-01T18:59:24.864703,2154413,1229,1795,-1123,-1039,-577,-321,-11,125,-367
47540,8492,0,2023-03-01T18:59:24.870434,2154418,1229,1795,-1123,-1039,-577,-321,-11,125,-367
47541,8493,0,2023-03-01T18:59:24.876225,2154424,1231,1795,-1118,-1040,-572,-321,-11,125,-367
47542,8494,0,2023-03-01T18:59:24.881759,2154429,1231,1795,-1118,-1040,-572,-321,-11,125,-367
47543,8495,0,2023-03-01T18:59:24.887044,2154434,1231,1795,-1118,-1040,-572,-321,-11,125,-367
47544,8496,0,2023-03-01T18:59:24.894770,2154441,1229,1799,-1121,-1039,-571,-318,-11,125,-367
47545,8497,0,2023-03-01T18:59:24.900902,2154448,1229,1799,-1121,-1039,-571,-318,-11,125,-367
47546,8498,0,2023-03-01T18:59:24.906241,2154454,1229,1799,-1121,-1039,-571,-318,-11,125,-367
47547,8499,0,2023-03-01T18:59:24.913042,2154461,1233,1796,-1120,-1031,-579,-319,-11,125,-367
47548,8500,0,2023-03-01T18:59:24.919070,2154466,1233,1796,-1120,-1031,-579,-319,-11,125,-367
47549,8501,0,2023-03-01T18:59:24.924215,2154472,1233,1796,-1120,-1031,-579,-319,-11,125,-367
47550,8502,0,2023-03-01T18:59:24.930473,2154478,1233,1796,-1120,-1031,-579,-319,-11,125,-367
47551,8503,0,2023-03-01T18:59:24.936056,2154483,1229,1793,-1117,-1033,-570,-321,-11,125,-367
47552,8504,0,2023-03-01T18:59:24.941926,2154489,1229,1793,-1117,-1033,-570,-321,-11,125,-367
47553,8505,0,2023-03-01T18:59:24.946795,2154494,1229,1793,-1117,-1033,-570,-321,-11,125,-367
47554,8506,0,2023-03-01T18:59:24.951548,2154499,1230,1795,-1125,-1033,-570,-318,-11,125,-367
47555,8507,0,2023-03-01T18:59:24.957180,2154505,1230,1795,-1125,-1033,-570,-318,-11,125,-367
47556,8508,0,2023-03-01T18:59:24.962287,2154510,1230,1795,-1125,-1033,-570,-318,-11,125,-367
47557,8509,0,2023-03-01T18:59:24.967122,2154515,1230,1795,-1125,-1033,-570,-318,-11,125,-367
47558,8510,0,2023-03-01T18:59:24.973574,2154521,1230,1795,-1125,-1038,-575,-318,-11,125,-367
47559,8511,0,2023-03-01T18:59:24.979316,2154527,1230,1795,-1125,-1038,-575,-318,-11,125,-367
47560,8512,0,2023-03-01T18:59:24.984479,2154532,1230,1795,-1125,-1038,-575,-318,-11,125,-367
47561,8513,0,2023-03-01T18:59:24.990175,2154537,1230,1795,-1125,-1038,-575,-318,-11,125,-367
47562,8514,0,2023-03-01T18:59:24.994933,2154543,1229,1795,-1118,-1030,-577,-319,-15,121,-371
47563,8515,0,2023-03-01T18:59:25.000164,2154548,1229,1795,-1118,-1030,-577,-319,-15,121,-371
47564,8516,0,2023-03-01T18:59:25.005644,2154553,1229,1795,-1118,-1030,-577,-319,-15,121,-371
47565,8517,0,2023-03-01T18:59:25.012001,2154559,1229,1796,-1120,-1035,-571,-319,-15,121,-371
47566,8518,0,2023-03-01T18:59:25.017932,2154565,1229,1796,-1120,-1035,-571,-319,-15,121,-371
47567,8519,0,2023-03-01T18:59:25.023389,2154571,1229,1796,-1120,-1035,-571,-319,-15,121,-371
47568,8520,0,2023-03-01T18:59:25.028832,2154576,1229,1796,-1120,-1035,-571,-319,-15,121,-371
47569,8521,0,2023-03-01T18:59:25.034656,2154582,1227,1795,-1119,-1037,-574,-313,-15,121,-371
47570,8522,0,2023-03-01T18:59:25.040087,2154588,1227,1795,-1119,-1037,-574,-313,-15,121,-371
47571,8523,0,2023-03-01T18:59:25.045097,2154593,1227,1795,-1119,-1037,-574,-313,-15,121,-371
47572,8524,0,2023-03-01T18:59:25.050746,2154598,1227,1795,-1119,-1037,-574,-313,-15,121,-371
47573,8525,0,2023-03-01T18:59:25.055794,2154603,1231,1794,-1118,-1038,-574,-321,-15,121,-371
47574,8526,0,2023-03-01T18:59:25.061022,2154609,1231,1794,-1118,-1038,-574,-321,-15,121,-371
47575,8527,0,2023-03-01T18:59:25.065682,2154613,1231,1794,-1118,-1038,-574,-321,-15,121,-371
47576,8528,0,2023-03-01T18:59:25.071213,2154618,1231,1794,-1118,-1038,-574,-321,-15,121,-371
47577,8529,0,2023-03-01T18:59:25.077437,2154625,1231,1796,-1121,-1034,-576,-321,-15,121,-371
47578,8530,0,2023-03-01T18:59:25.082572,2154631,1231,1796,-1121,-1034,-576,-321,-15,121,-371
47579,8531,0,2023-03-01T18:59:25.089086,2154637,1231,1796,-1121,-1034,-576,-321,-15,121,-371
47580,8532,0,2023-03-01T18:59:25.094607,2154642,1229,1795,-1125,-1032,-568,-319,-15,121,-371
47581,8533,0,2023-03-01T18:59:25.100752,2154648,1229,1795,-1125,-1032,-568,-319,-15,121,-371
47582,8534,0,2023-03-01T18:59:25.105702,2154653,1229,1795,-1125,-1032,-568,-319,-15,121,-371
47583,8535,0,2023-03-01T18:59:25.111125,2154659,1229,1795,-1125,-1032,-568,-319,-15,121,-371
47584,8536,0,2023-03-01T18:59:25.117407,2154664,1229,1796,-1122,-1036,-579,-327,-16,132,-368
47585,8537,0,2023-03-01T18:59:25.123181,2154671,1229,1796,-1122,-1036,-579,-327,-16,132,-368
47586,8538,0,2023-03-01T18:59:25.129115,2154677,1229,1796,-1122,-1036,-579,-327,-16,132,-368
47587,8539,0,2023-03-01T18:59:25.135207,2154683,1231,1793,-1123,-1034,-569,-319,-16,132,-368
47588,8540,0,2023-03-01T18:59:25.140455,2154688,1231,1793,-1123,-1034,-569,-319,-16,132,-368
47589,8541,0,2023-03-01T18:59:25.145268,2154693,1231,1793,-1123,-1034,-569,-319,-16,132,-368
47590,8542,0,2023-03-01T18:59:25.150710,2154698,1231,1793,-1123,-1034,-569,-319,-16,132,-368
47591,8543,0,2023-03-01T18:59:25.155748,2154703,1232,1796,-1126,-1039,-569,-322,-16,132,-368
47592,8544,0,2023-03-01T18:59:25.161351,2154710,1232,1796,-1126,-1039,-569,-322,-16,132,-368
47593,8545,0,2023-03-01T18:59:25.166082,2154714,1232,1796,-1126,-1039,-569,-322,-16,132,-368
47594,8546,0,2023-03-01T18:59:25.172049,2154720,1229,1795,-1122,-1033,-567,-319,-16,132,-368
47595,8547,0,2023-03-01T18:59:25.176901,2154725,1229,1795,-1122,-1033,-567,-319,-16,132,-368
47596,8548,0,2023-03-01T18:59:25.181592,2154729,1229,1795,-1122,-1033,-567,-319,-16,132,-368
47597,8549,0,2023-03-01T18:59:25.186587,2154734,1229,1795,-1122,-1033,-567,-319,-16,132,-368
47598,8550,0,2023-03-01T18:59:25.192431,2154740,1231,1797,-1122,-1041,-571,-320,-16,132,-368
47599,8551,0,2023-03-01T18:59:25.197809,2154745,1231,1797,-1122,-1041,-571,-320,-16,132,-368
47600,8552,0,2023-03-01T18:59:25.202805,2154750,1231,1797,-1122,-1041,-571,-320,-16,132,-368
47601,8553,0,2023-03-01T18:59:25.208059,2154756,1231,1797,-1122,-1041,-571,-320,-16,132,-368
47602,8554,0,2023-03-01T18:59:25.214035,2154762,1232,1792,-1120,-1033,-568,-316,-16,132,-368
47603,8555,0,2023-03-01T18:59:25.219761,2154767,1232,1792,-1120,-1033,-568,-316,-16,132,-368
47604,8556,0,2023-03-01T18:59:25.225127,2154773,1232,1792,-1120,-1033,-568,-316,-16,132,-368
47605,8557,0,2023-03-01T18:59:25.230560,2154778,1232,1792,-1120,-1033,-568,-316,-16,132,-368
47606,8558,0,2023-03-01T18:59:25.235456,2154783,1233,1797,-1124,-1036,-571,-326,-16,132,-368
47607,8559,0,2023-03-01T18:59:25.241144,2154788,1233,1797,-1124,-1036,-571,-326,-16,132,-368
47608,8560,0,2023-03-01T18:59:25.246158,2154793,1233,1797,-1124,-1036,-571,-326,-16,132,-368
47609,8561,0,2023-03-01T18:59:25.251400,2154800,1233,1797,-1124,-1036,-571,-326,-16,132,-368
47610,8562,0,2023-03-01T18:59:25.256280,2154804,1229,1795,-1117,-1033,-572,-318,-10,126,-368
47611,8563,0,2023-03-01T18:59:25.261945,2154809,1229,1795,-1117,-1033,-572,-318,-10,126,-368
47612,8564,0,2023-03-01T18:59:25.266529,2154814,1229,1795,-1117,-1033,-572,-318,-10,126,-368
47613,8565,0,2023-03-01T18:59:25.272825,2154820,1229,1797,-1114,-1029,-570,-321,-10,126,-368
47614,8566,0,2023-03-01T18:59:25.278804,2154826,1229,1797,-1114,-1029,-570,-321,-10,126,-368
47615,8567,0,2023-03-01T18:59:25.283959,2154831,1229,1797,-1114,-1029,-570,-321,-10,126,-368
47616,8568,0,2023-03-01T18:59:25.289558,2154836,1229,1797,-1114,-1029,-570,-321,-10,126,-368
47617,8569,0,2023-03-01T18:59:25.294586,2154842,1228,1795,-1122,-1035,-578,-322,-10,126,-368
47618,8570,0,2023-03-01T18:59:25.301070,2154848,1228,1795,-1122,-1035,-578,-322,-10,126,-368
47619,8571,0,2023-03-01T18:59:25.306103,2154854,1228,1795,-1122,-1035,-578,-322,-10,126,-368
47620,8572,0,2023-03-01T18:59:25.311520,2154859,1228,1795,-1122,-1035,-578,-322,-10,126,-368
47621,8573,0,2023-03-01T18:59:25.316315,2154864,1229,1798,-1124,-1026,-573,-312,-10,126,-368
47622,8574,0,2023-03-01T18:59:25.322277,2154869,1229,1798,-1124,-1026,-573,-312,-10,126,-368
47623,8575,0,2023-03-01T18:59:25.327191,2154874,1229,1798,-1124,-1026,-573,-312,-10,126,-368
47624,8576,0,2023-03-01T18:59:25.332981,2154881,1232,1796,-1122,-1028,-562,-318,-10,126,-368
47625,8577,0,2023-03-01T18:59:25.339026,2154887,1232,1796,-1122,-1028,-562,-318,-10,126,-368
47626,8578,0,2023-03-01T18:59:25.344200,2154892,1232,1796,-1122,-1028,-562,-318,-10,126,-368
47627,8579,0,2023-03-01T18:59:25.349920,2154897,1232,1796,-1122,-1028,-562,-318,-10,126,-368
47628,8580,0,2023-03-01T18:59:25.355736,2154903,1228,1798,-1125,-1037,-567,-315,-10,126,-368
47629,8581,0,2023-03-01T18:59:25.361564,2154909,1228,1798,-1125,-1037,-567,-315,-10,126,-368
47630,8582,0,2023-03-01T18:59:25.366534,2154914,1228,1798,-1125,-1037,-567,-315,-10,126,-368
47631,8583,0,2023-03-01T18:59:25.373283,2154920,1228,1798,-1125,-1037,-567,-315,-11,127,-379
47632,8584,0,2023-03-01T18:59:25.378522,2154926,1228,1798,-1125,-1037,-567,-315,-11,127,-379
47633,8585,0,2023-03-01T18:59:25.383754,2154931,1228,1798,-1125,-1037,-567,-315,-11,127,-379
47634,8586,0,2023-03-01T18:59:25.389473,2154937,1228,1798,-1125,-1037,-567,-315,-11,127,-379
47635,8587,0,2023-03-01T18:59:25.394340,2154942,1228,1794,-1115,-1029,-573,-324,-11,127,-379
47636,8588,0,2023-03-01T18:59:25.400061,2154947,1228,1794,-1115,-1029,-573,-324,-11,127,-379
47637,8589,0,2023-03-01T18:59:25.405763,2154953,1228,1794,-1115,-1029,-573,-324,-11,127,-379
47638,8590,0,2023-03-01T18:59:25.411599,2154959,1228,1794,-1115,-1029,-573,-324,-11,127,-379
47639,8591,0,2023-03-01T18:59:25.417029,2154964,1231,1796,-1120,-1043,-576,-320,-11,127,-379
47640,8592,0,2023-03-01T18:59:25.422926,2154970,1231,1796,-1120,-1043,-576,-320,-11,127,-379
47641,8593,0,2023-03-01T18:59:25.428364,2154976,1231,1796,-1120,-1043,-576,-320,-11,127,-379
47642,8594,0,2023-03-01T18:59:25.434483,2154982,1231,1796,-1115,-1031,-569,-319,-11,127,-379
47643,8595,0,2023-03-01T18:59:25.441162,2154988,1231,1796,-1115,-1031,-569,-319,-11,127,-379
47644,8596,0,2023-03-01T18:59:25.446179,2154994,1231,1796,-1115,-1031,-569,-319,-11,127,-379
47645,8597,0,2023-03-01T18:59:25.452878,2155000,1229,1795,-1117,-1039,-570,-328,-11,127,-379
47646,8598,0,2023-03-01T18:59:25.459977,2155006,1229,1795,-1117,-1039,-570,-328,-11,127,-379
47647,8599,0,2023-03-01T18:59:25.464995,2155013,1229,1795,-1117,-1039,-570,-328,-11,127,-379
47648,8600,0,2023-03-01T18:59:25.470945,2155019,1229,1795,-1117,-1039,-570,-328,-11,127,-379
47649,8601,0,2023-03-01T18:59:25.475775,2155023,1227,1796,-1125,-1037,-573,-321,-11,127,-379
47650,8602,0,2023-03-01T18:59:25.481491,2155029,1227,1796,-1125,-1037,-573,-321,-11,127,-379
47651,8603,0,2023-03-01T18:59:25.486446,2155034,1227,1796,-1125,-1037,-573,-321,-11,127,-379
47652,8604,0,2023-03-01T18:59:25.492458,2155039,1227,1796,-1125,-1037,-573,-321,-11,127,-379
47653,8605,0,2023-03-01T18:59:25.498046,2155045,1230,1796,-1119,-1042,-573,-322,-18,128,-368
47654,8606,0,2023-03-01T18:59:25.503392,2155052,1230,1796,-1119,-1042,-573,-322,-18,128,-368
47655,8607,0,2023-03-01T18:59:25.509105,2155057,1230,1796,-1119,-1042,-573,-322,-18,128,-368
47656,8608,0,2023-03-01T18:59:25.513734,2155062,1230,1795,-1121,-1039,-575,-321,-18,128,-368
47657,8609,0,2023-03-01T18:59:25.519673,2155067,1230,1795,-1121,-1039,-575,-321,-18,128,-368
47658,8610,0,2023-03-01T18:59:25.524435,2155072,1230,1795,-1121,-1039,-575,-321,-18,128,-368
47659,8611,0,2023-03-01T18:59:25.529763,2155077,1230,1795,-1121,-1039,-575,-321,-18,128,-368
47660,8612,0,2023-03-01T18:59:25.535400,2155082,1232,1793,-1124,-1032,-574,-315,-18,128,-368
47661,8613,0,2023-03-01T18:59:25.541207,2155088,1232,1793,-1124,-1032,-574,-315,-18,128,-368
47662,8614,0,2023-03-01T18:59:25.546412,2155094,1232,1793,-1124,-1032,-574,-315,-18,128,-368
47663,8615,0,2023-03-01T18:59:25.551907,2155100,1232,1793,-1124,-1032,-574,-315,-18,128,-368
47664,8616,0,2023-03-01T18:59:25.556601,2155105,1229,1794,-1120,-1038,-562,-320,-18,128,-368
47665,8617,0,2023-03-01T18:59:25.563264,2155111,1229,1794,-1120,-1038,-562,-320,-18,128,-368
47666,8618,0,2023-03-01T18:59:25.568717,2155116,1229,1794,-1120,-1038,-562,-320,-18,128,-368
47667,8619,0,2023-03-01T18:59:25.573663,2155121,1230,1793,-1122,-1034,-570,-319,-18,128,-368
47668,8620,0,2023-03-01T18:59:25.579466,2155126,1230,1793,-1122,-1034,-570,-319,-18,128,-368
47669,8621,0,2023-03-01T18:59:25.584664,2155132,1230,1793,-1122,-1034,-570,-319,-18,128,-368
47670,8622,0,2023-03-01T18:59:25.590212,2155138,1230,1793,-1122,-1034,-570,-319,-18,128,-368
47671,8623,0,2023-03-01T18:59:25.595541,2155143,1229,1796,-1120,-1029,-571,-325,-18,128,-368
47672,8624,0,2023-03-01T18:59:25.601169,2155149,1229,1796,-1120,-1029,-571,-325,-18,128,-368
47673,8625,0,2023-03-01T18:59:25.606069,2155154,1229,1796,-1120,-1029,-571,-325,-18,128,-368
47674,8626,0,2023-03-01T18:59:25.611600,2155159,1229,1796,-1120,-1029,-571,-325,-18,128,-368
47675,8627,0,2023-03-01T18:59:25.616221,2155164,1231,1795,-1119,-1032,-571,-330,-18,128,-368
47676,8628,0,2023-03-01T18:59:25.622394,2155169,1231,1795,-1119,-1032,-571,-330,-18,128,-368
47677,8629,0,2023-03-01T18:59:25.627429,2155174,1231,1795,-1119,-1032,-571,-330,-18,128,-368
47678,8630,0,2023-03-01T18:59:25.633708,2155182,1227,1796,-1123,-1038,-578,-322,-6,128,-366
47679,8631,0,2023-03-01T18:59:25.639374,2155187,1227,1796,-1123,-1038,-578,-322,-6,128,-366
47680,8632,0,2023-03-01T18:59:25.644269,2155192,1227,1796,-1123,-1038,-578,-322,-6,128,-366
47681,8633,0,2023-03-01T18:59:25.649672,2155197,1227,1796,-1123,-1038,-578,-322,-6,128,-366
47682,8634,0,2023-03-01T18:59:25.655040,2155202,1231,1796,-1123,-1029,-578,-323,-6,128,-366
47683,8635,0,2023-03-01T18:59:25.660610,2155208,1231,1796,-1123,-1029,-578,-323,-6,128,-366
47684,8636,0,2023-03-01T18:59:25.665690,2155213,1231,1796,-1123,-1029,-578,-323,-6,128,-366
47685,8637,0,2023-03-01T18:59:25.672484,2155219,1231,1796,-1123,-1029,-578,-323,-6,128,-366
47686,8638,0,2023-03-01T18:59:25.678229,2155226,1228,1797,-1121,-1028,-575,-321,-6,128,-366
47687,8639,0,2023-03-01T18:59:25.683864,2155232,1228,1797,-1121,-1028,-575,-321,-6,128,-366
47688,8640,0,2023-03-01T18:59:25.689567,2155237,1228,1797,-1121,-1028,-575,-321,-6,128,-366
47689,8641,0,2023-03-01T18:59:25.694321,2155242,1229,1794,-1120,-1027,-570,-324,-6,128,-366
47690,8642,0,2023-03-01T18:59:25.699832,2155247,1229,1794,-1120,-1027,-570,-324,-6,128,-366
47691,8643,0,2023-03-01T18:59:25.705128,2155252,1229,1794,-1120,-1027,-570,-324,-6,128,-366
47692,8644,0,2023-03-01T18:59:25.710801,2155258,1229,1794,-1120,-1027,-570,-324,-6,128,-366
47693,8645,0,2023-03-01T18:59:25.716532,2155265,1232,1796,-1125,-1024,-576,-319,-6,128,-366
47694,8646,0,2023-03-01T18:59:25.721763,2155270,1232,1796,-1125,-1024,-576,-319,-6,128,-366
47695,8647,0,2023-03-01T18:59:25.726410,2155274,1232,1796,-1125,-1024,-576,-319,-6,128,-366
47696,8648,0,2023-03-01T18:59:25.731725,2155280,1232,1796,-1125,-1024,-576,-319,-6,128,-366
47697,8649,0,2023-03-01T18:59:25.736099,2155284,1232,1797,-1125,-1028,-575,-328,-6,128,-366
47698,8650,0,2023-03-01T18:59:25.741834,2155289,1232,1797,-1125,-1028,-575,-328,-6,128,-366
47699,8651,0,2023-03-01T18:59:25.747031,2155294,1232,1797,-1125,-1028,-575,-328,-6,128,-366
47700,8652,0,2023-03-01T18:59:25.753116,2155300,1230,1798,-1124,-1044,-578,-327,-11,131,-365
47701,8653,0,2023-03-01T18:59:25.758471,2155307,1230,1798,-1124,-1044,-578,-327,-11,131,-365
47702,8654,0,2023-03-01T18:59:25.763737,2155311,1230,1798,-1124,-1044,-578,-327,-11,131,-365
47703,8655,0,2023-03-01T18:59:25.769009,2155317,1230,1798,-1124,-1044,-578,-327,-11,131,-365
47704,8656,0,2023-03-01T18:59:25.774873,2155322,1232,1796,-1121,-1036,-576,-328,-11,131,-365
47705,8657,0,2023-03-01T18:59:25.780945,2155328,1232,1796,-1121,-1036,-576,-328,-11,131,-365
47706,8658,0,2023-03-01T18:59:25.786097,2155334,1232,1796,-1121,-1036,-576,-328,-11,131,-365
47707,8659,0,2023-03-01T18:59:25.791375,2155339,1232,1796,-1121,-1036,-576,-328,-11,131,-365
47708,8660,0,2023-03-01T18:59:25.796375,2155343,1230,1797,-1119,-1030,-574,-326,-11,131,-365
47709,8661,0,2023-03-01T18:59:25.802040,2155350,1230,1797,-1119,-1030,-574,-326,-11,131,-365
47710,8662,0,2023-03-01T18:59:25.806836,2155355,1230,1797,-1119,-1030,-574,-326,-11,131,-365
47711,8663,0,2023-03-01T18:59:25.812677,2155361,1228,1796,-1120,-1036,-575,-325,-11,131,-365
47712,8664,0,2023-03-01T18:59:25.818201,2155366,1228,1796,-1120,-1036,-575,-325,-11,131,-365
47713,8665,0,2023-03-01T18:59:25.823169,2155371,1228,1796,-1120,-1036,-575,-325,-11,131,-365
47714,8666,0,2023-03-01T18:59:25.829100,2155377,1228,1796,-1120,-1036,-575,-325,-11,131,-365
47715,8667,0,2023-03-01T18:59:25.834144,2155381,1229,1794,-1117,-1037,-577,-315,-11,131,-365
47716,8668,0,2023-03-01T18:59:25.839953,2155387,1229,1794,-1117,-1037,-577,-315,-11,131,-365
47717,8669,0,2023-03-01T18:59:25.844710,2155393,1229,1794,-1117,-1037,-577,-315,-11,131,-365
47718,8670,0,2023-03-01T18:59:25.850621,2155398,1229,1794,-1117,-1037,-577,-315,-11,131,-365
47719,8671,0,2023-03-01T18:59:25.856512,2155404,1229,1792,-1118,-1039,-576,-321,-11,131,-365
47720,8672,0,2023-03-01T18:59:25.862227,2155410,1229,1792,-1118,-1039,-576,-321,-11,131,-365
47721,8673,0,2023-03-01T18:59:25.867601,2155415,1229,1792,-1118,-1039,-576,-321,-11,131,-365
47722,8674,0,2023-03-01T18:59:25.873663,2155421,1227,1793,-1114,-1038,-579,-327,-11,131,-365
47723,8675,0,2023-03-01T18:59:25.879459,2155427,1227,1793,-1114,-1038,-579,-327,-11,131,-365
47724,8676,0,2023-03-01T18:59:25.884433,2155431,1227,1793,-1114,-1038,-579,-327,-11,131,-365
47725,8677,0,2023-03-01T18:59:25.890730,2155439,1227,1793,-1114,-1038,-579,-327,-11,131,-365
47726,8678,0,2023-03-01T18:59:25.897018,2155445,1232,1795,-1116,-1035,-574,-321,-4,130,-368
47727,8679,0,2023-03-01T18:59:25.902486,2155450,1232,1795,-1116,-1035,-574,-321,-4,130,-368
47728,8680,0,2023-03-01T18:59:25.907804,2155455,1232,1795,-1116,-1035,-574,-321,-4,130,-368
47729,8681,0,2023-03-01T18:59:25.913467,2155461,1233,1794,-1123,-1037,-571,-327,-4,130,-368
47730,8682,0,2023-03-01T18:59:25.919349,2155466,1233,1794,-1123,-1037,-571,-327,-4,130,-368
47731,8683,0,2023-03-01T18:59:25.924530,2155472,1233,1794,-1123,-1037,-571,-327,-4,130,-368
47732,8684,0,2023-03-01T18:59:25.930598,2155478,1233,1794,-1123,-1037,-571,-327,-4,130,-368
47733,8685,0,2023-03-01T18:59:25.935047,2155483,1229,1795,-1118,-1037,-568,-320,-4,130,-368
47734,8686,0,2023-03-01T18:59:25.940922,2155489,1229,1795,-1118,-1037,-568,-320,-4,130,-368
47735,8687,0,2023-03-01T18:59:25.946183,2155494,1229,1795,-1118,-1037,-568,-320,-4,130,-368
47736,8688,0,2023-03-01T18:59:25.951276,2155499,1229,1795,-1118,-1037,-568,-320,-4,130,-368
47737,8689,0,2023-03-01T18:59:25.956075,2155504,1231,1794,-1123,-1023,-567,-317,-4,130,-368
47738,8690,0,2023-03-01T18:59:25.961828,2155509,1231,1794,-1123,-1023,-567,-317,-4,130,-368
47739,8691,0,2023-03-01T18:59:25.967075,2155514,1231,1794,-1123,-1023,-567,-317,-4,130,-368
47740,8692,0,2023-03-01T18:59:25.973956,2155522,1231,1793,-1123,-1035,-567,-318,-4,130,-368
47741,8693,0,2023-03-01T18:59:25.979909,2155528,1231,1793,-1123,-1035,-567,-318,-4,130,-368
47742,8694,0,2023-03-01T18:59:25.984749,2155533,1231,1793,-1123,-1035,-567,-318,-4,130,-368
47743,8695,0,2023-03-01T18:59:25.990478,2155538,1231,1793,-1123,-1035,-567,-318,-4,130,-368
47744,8696,0,2023-03-01T18:59:25.996442,2155544,1232,1793,-1116,-1041,-575,-324,-4,130,-368
47745,8697,0,2023-03-01T18:59:26.002482,2155550,1232,1793,-1116,-1041,-575,-324,-4,130,-368
47746,8698,0,2023-03-01T18:59:26.007448,2155555,1232,1793,-1116,-1041,-575,-324,-4,130,-368
47747,8699,0,2023-03-01T18:59:26.013006,2155560,1230,1794,-1126,-1039,-568,-329,-11,130,-368
47748,8700,0,2023-03-01T18:59:26.019302,2155567,1230,1794,-1126,-1039,-568,-329,-11,119,-369
47749,8701,0,2023-03-01T18:59:26.024710,2155572,1230,1794,-1126,-1039,-568,-329,-11,119,-369
47750,8702,0,2023-03-01T18:59:26.030413,2155578,1230,1794,-1126,-1039,-568,-329,-11,119,-369
47751,8703,0,2023-03-01T18:59:26.035600,2155583,1228,1793,-1122,-1030,-570,-323,-11,119,-369
47752,8704,0,2023-03-01T18:59:26.041140,2155589,1228,1793,-1122,-1030,-570,-323,-11,119,-369
47753,8705,0,2023-03-01T18:59:26.045740,2155593,1228,1793,-1122,-1030,-570,-323,-11,119,-369
47754,8706,0,2023-03-01T18:59:26.051353,2155598,1228,1793,-1122,-1030,-570,-323,-11,119,-369
47755,8707,0,2023-03-01T18:59:26.056918,2155604,1230,1794,-1122,-1036,-563,-313,-11,119,-369
47756,8708,0,2023-03-01T18:59:26.062661,2155611,1230,1794,-1122,-1036,-563,-313,-11,119,-369
47757,8709,0,2023-03-01T18:59:26.067531,2155615,1230,1794,-1122,-1036,-563,-313,-11,119,-369
47758,8710,0,2023-03-01T18:59:26.073569,2155621,1230,1795,-1127,-1037,-577,-321,-11,119,-369
47759,8711,0,2023-03-01T18:59:26.079119,2155627,1230,1795,-1127,-1037,-577,-321,-11,119,-369
47760,8712,0,2023-03-01T18:59:26.085174,2155633,1230,1795,-1127,-1037,-577,-321,-11,119,-369
47761,8713,0,2023-03-01T18:59:26.090437,2155638,1230,1795,-1127,-1037,-577,-321,-11,119,-369
47762,8714,0,2023-03-01T18:59:26.095820,2155643,1230,1795,-1121,-1037,-573,-321,-11,119,-369
47763,8715,0,2023-03-01T18:59:26.101601,2155649,1230,1795,-1121,-1037,-573,-321,-11,119,-369
47764,8716,0,2023-03-01T18:59:26.106944,2155655,1230,1795,-1121,-1037,-573,-321,-11,119,-369
47765,8717,0,2023-03-01T18:59:26.112729,2155660,1230,1795,-1121,-1037,-573,-321,-11,119,-369
47766,8718,0,2023-03-01T18:59:26.118549,2155666,1229,1794,-1124,-1032,-573,-324,-11,119,-369
47767,8719,0,2023-03-01T18:59:26.123741,2155671,1229,1794,-1124,-1032,-573,-324,-11,119,-369
47768,8720,0,2023-03-01T18:59:26.129695,2155677,1229,1794,-1124,-1032,-573,-324,-11,119,-369
47769,8721,0,2023-03-01T18:59:26.134830,2155682,1231,1794,-1128,-1030,-566,-317,-11,119,-369
47770,8722,0,2023-03-01T18:59:26.140157,2155688,1231,1794,-1128,-1030,-566,-317,-11,119,-369
47771,8723,0,2023-03-01T18:59:26.144601,2155693,1231,1794,-1128,-1030,-566,-317,-11,119,-369
47772,8724,0,2023-03-01T18:59:26.149898,2155698,1231,1794,-1128,-1030,-566,-317,-11,119,-369
47773,8725,0,2023-03-01T18:59:26.154480,2155702,1228,1795,-1118,-1031,-566,-319,-22,130,-376
47774,8726,0,2023-03-01T18:59:26.160112,2155708,1228,1795,-1118,-1031,-566,-319,-22,130,-376
47775,8727,0,2023-03-01T18:59:26.164901,2155713,1228,1795,-1118,-1031,-566,-319,-22,130,-376
47776,8728,0,2023-03-01T18:59:26.170388,2155718,1228,1795,-1118,-1031,-566,-319,-22,130,-376
47777,8729,0,2023-03-01T18:59:26.175832,2155723,1232,1794,-1118,-1034,-578,-317,-22,130,-376
47778,8730,0,2023-03-01T18:59:26.181319,2155729,1232,1794,-1118,-1034,-578,-317,-22,130,-376
47779,8731,0,2023-03-01T18:59:26.186160,2155734,1232,1794,-1118,-1034,-578,-317,-22,130,-376
47780,8732,0,2023-03-01T18:59:26.191069,2155739,1232,1794,-1118,-1034,-578,-317,-22,130,-376
47781,8733,0,2023-03-01T18:59:26.196045,2155744,1230,1795,-1120,-1028,-573,-321,-22,130,-376
47782,8734,0,2023-03-01T18:59:26.201415,2155749,1230,1795,-1120,-1028,-573,-321,-22,130,-376
47783,8735,0,2023-03-01T18:59:26.206220,2155754,1230,1795,-1120,-1028,-573,-321,-22,130,-376
47784,8736,0,2023-03-01T18:59:26.211960,2155759,1230,1795,-1120,-1028,-573,-321,-22,130,-376
47785,8737,0,2023-03-01T18:59:26.217438,2155765,1230,1797,-1127,-1029,-572,-320,-22,130,-376
47786,8738,0,2023-03-01T18:59:26.223305,2155770,1230,1797,-1127,-1029,-572,-320,-22,130,-376
47787,8739,0,2023-03-01T18:59:26.229123,2155777,1230,1797,-1127,-1029,-572,-320,-22,130,-376
47788,8740,0,2023-03-01T18:59:26.235500,2155783,1235,1795,-1122,-1042,-580,-320,-22,130,-376
47789,8741,0,2023-03-01T18:59:26.241638,2155789,1235,1795,-1122,-1042,-580,-320,-22,130,-376
47790,8742,0,2023-03-01T18:59:26.246491,2155794,1235,1795,-1122,-1042,-580,-320,-22,130,-376
47791,8743,0,2023-03-01T18:59:26.251681,2155799,1235,1795,-1122,-1042,-580,-320,-22,130,-376
47792,8744,0,2023-03-01T18:59:26.256674,2155804,1230,1797,-1126,-1033,-570,-317,-22,130,-376
47793,8745,0,2023-03-01T18:59:26.262203,2155809,1230,1797,-1126,-1033,-570,-317,-22,130,-376
47794,8746,0,2023-03-01T18:59:26.267673,2155815,1230,1797,-1126,-1033,-570,-317,-22,130,-376
47795,8747,0,2023-03-01T18:59:26.274281,2155822,1231,1793,-1122,-1030,-573,-318,-14,118,-366
47796,8748,0,2023-03-01T18:59:26.279606,2155828,1231,1793,-1122,-1030,-573,-318,-14,118,-366
47797,8749,0,2023-03-01T18:59:26.284080,2155832,1231,1793,-1122,-1030,-573,-318,-14,118,-366
47798,8750,0,2023-03-01T18:59:26.289603,2155837,1231,1793,-1122,-1030,-573,-318,-14,118,-366
47799,8751,0,2023-03-01T18:59:26.294574,2155842,1232,1794,-1117,-1033,-574,-320,-14,118,-366
47800,8752,0,2023-03-01T18:59:26.299983,2155847,1232,1794,-1117,-1033,-574,-320,-14,118,-366
47801,8753,0,2023-03-01T18:59:26.305803,2155853,1232,1794,-1117,-1033,-574,-320,-14,118,-366
47802,8754,0,2023-03-01T18:59:26.311396,2155859,1232,1794,-1117,-1033,-574,-320,-14,118,-366
47803,8755,0,2023-03-01T18:59:26.317422,2155865,1230,1794,-1122,-1037,-571,-315,-14,118,-366
47804,8756,0,2023-03-01T18:59:26.323620,2155871,1230,1794,-1122,-1037,-571,-315,-14,118,-366
47805,8757,0,2023-03-01T18:59:26.330006,2155877,1230,1794,-1122,-1037,-571,-315,-14,118,-366
47806,8758,0,2023-03-01T18:59:26.336434,2155884,1232,1795,-1119,-1036,-574,-312,-14,118,-366
47807,8759,0,2023-03-01T18:59:26.342095,2155890,1232,1795,-1119,-1036,-574,-312,-14,118,-366
47808,8760,0,2023-03-01T18:59:26.346769,2155894,1232,1795,-1119,-1036,-574,-312,-14,118,-366
47809,8761,0,2023-03-01T18:59:26.351104,2155899,1232,1795,-1119,-1036,-574,-312,-14,118,-366
47810,8762,0,2023-03-01T18:59:26.357366,2155905,1232,1794,-1120,-1038,-575,-326,-14,118,-366
47811,8763,0,2023-03-01T18:59:26.363352,2155911,1232,1794,-1120,-1038,-575,-326,-14,118,-366
47812,8764,0,2023-03-01T18:59:26.368560,2155917,1232,1794,-1120,-1038,-575,-326,-14,118,-366
47813,8765,0,2023-03-01T18:59:26.373422,2155921,1231,1793,-1119,-1039,-576,-324,-14,118,-366
47814,8766,0,2023-03-01T18:59:26.379048,2155926,1231,1793,-1119,-1039,-576,-324,-14,118,-366
47815,8767,0,2023-03-01T18:59:26.384233,2155932,1231,1793,-1119,-1039,-576,-324,-14,118,-366
47816,8768,0,2023-03-01T18:59:26.389149,2155936,1231,1793,-1119,-1039,-576,-324,-14,118,-366
47817,8769,0,2023-03-01T18:59:26.394194,2155941,1228,1794,-1116,-1041,-574,-320,-13,137,-375
47818,8770,0,2023-03-01T18:59:26.400849,2155948,1228,1794,-1116,-1041,-574,-320,-13,137,-375
47819,8771,0,2023-03-01T18:59:26.406013,2155954,1228,1794,-1116,-1041,-574,-320,-13,137,-375
47820,8772,0,2023-03-01T18:59:26.411766,2155960,1228,1794,-1116,-1041,-574,-320,-13,137,-375
47821,8773,0,2023-03-01T18:59:26.416696,2155964,1231,1792,-1116,-1033,-569,-321,-13,137,-375
47822,8774,0,2023-03-01T18:59:26.422453,2155970,1231,1792,-1116,-1033,-569,-321,-13,137,-375
47823,8775,0,2023-03-01T18:59:26.427446,2155975,1231,1792,-1116,-1033,-569,-321,-13,137,-375
47824,8776,0,2023-03-01T18:59:26.432699,2155980,1231,1792,-1116,-1033,-569,-321,-13,137,-375
47825,8777,0,2023-03-01T18:59:26.438694,2155985,1233,1797,-1126,-1036,-568,-326,-13,137,-375
47826,8778,0,2023-03-01T18:59:26.445436,2155994,1233,1797,-1126,-1036,-568,-326,-13,137,-375
47827,8779,0,2023-03-01T18:59:26.450969,2155999,1233,1797,-1126,-1036,-568,-326,-13,137,-375
47828,8780,0,2023-03-01T18:59:26.455840,2156004,1233,1794,-1125,-1032,-565,-331,-13,137,-375
47829,8781,0,2023-03-01T18:59:26.461677,2156009,1233,1794,-1125,-1032,-565,-331,-13,137,-375
47830,8782,0,2023-03-01T18:59:26.466462,2156014,1233,1794,-1125,-1032,-565,-331,-13,137,-375
47831,8783,0,2023-03-01T18:59:26.472467,2156020,1233,1794,-1125,-1032,-565,-331,-13,137,-375
47832,8784,0,2023-03-01T18:59:26.477353,2156024,1231,1793,-1116,-1034,-569,-316,-13,137,-375
47833,8785,0,2023-03-01T18:59:26.482779,2156030,1231,1793,-1116,-1034,-569,-316,-13,137,-375
47834,8786,0,2023-03-01T18:59:26.488058,2156036,1231,1793,-1116,-1034,-569,-316,-13,137,-375
47835,8787,0,2023-03-01T18:59:26.494543,2156042,1230,1791,-1123,-1030,-569,-315,-13,137,-375
47836,8788,0,2023-03-01T18:59:26.500485,2156048,1230,1791,-1123,-1030,-569,-315,-13,137,-375
47837,8789,0,2023-03-01T18:59:26.505158,2156053,1230,1791,-1123,-1030,-569,-315,-13,137,-375
47838,8790,0,2023-03-01T18:59:26.511045,2156058,1230,1791,-1123,-1030,-569,-315,-13,137,-375
47839,8791,0,2023-03-01T18:59:26.517041,2156064,1230,1796,-1117,-1028,-572,-324,-13,137,-375
47840,8792,0,2023-03-01T18:59:26.522959,2156070,1230,1796,-1117,-1028,-572,-324,-13,137,-375
47841,8793,0,2023-03-01T18:59:26.528036,2156076,1230,1796,-1117,-1028,-572,-324,-13,137,-375
47842,8794,0,2023-03-01T18:59:26.534214,2156082,1231,1794,-1113,-1031,-568,-322,-16,124,-372
47843,8795,0,2023-03-01T18:59:26.539561,2156088,1231,1794,-1113,-1031,-568,-322,-16,124,-372
47844,8796,0,2023-03-01T18:59:26.544962,2156092,1231,1794,-1113,-1031,-568,-322,-16,124,-372
47845,8797,0,2023-03-01T18:59:26.551155,2156098,1231,1794,-1113,-1031,-568,-322,-16,124,-372
47846,8798,0,2023-03-01T18:59:26.557429,2156105,1228,1796,-1116,-1032,-558,-327,-16,124,-372
47847,8799,0,2023-03-01T18:59:26.563170,2156110,1228,1796,-1116,-1032,-558,-327,-16,124,-372
47848,8800,0,2023-03-01T18:59:26.568092,2156115,1228,1796,-1116,-1032,-558,-327,-16,124,-372
47849,8801,0,2023-03-01T18:59:26.574235,2156122,1227,1792,-1120,-1031,-574,-319,-16,124,-372
47850,8802,0,2023-03-01T18:59:26.580006,2156128,1227,1792,-1120,-1031,-574,-319,-16,124,-372
47851,8803,0,2023-03-01T18:59:26.585176,2156133,1227,1792,-1120,-1031,-574,-319,-16,124,-372
47852,8804,0,2023-03-01T18:59:26.590703,2156138,1227,1792,-1120,-1031,-574,-319,-16,124,-372
47853,8805,0,2023-03-01T18:59:26.596148,2156144,1228,1793,-1118,-1031,-576,-323,-16,124,-372
47854,8806,0,2023-03-01T18:59:26.601923,2156149,1228,1793,-1118,-1031,-576,-323,-16,124,-372
47855,8807,0,2023-03-01T18:59:26.607112,2156154,1228,1793,-1118,-1031,-576,-323,-16,124,-372
47856,8808,0,2023-03-01T18:59:26.612681,2156161,1228,1793,-1118,-1031,-576,-323,-16,124,-372
47857,8809,0,2023-03-01T18:59:26.617721,2156166,1230,1797,-1117,-1031,-587,-324,-16,124,-372
47858,8810,0,2023-03-01T18:59:26.623295,2156171,1230,1797,-1117,-1031,-587,-324,-16,124,-372
47859,8811,0,2023-03-01T18:59:26.628666,2156176,1230,1797,-1117,-1031,-587,-324,-16,124,-372
47860,8812,0,2023-03-01T18:59:26.634213,2156182,1230,1796,-1127,-1026,-578,-324,-16,124,-372
47861,8813,0,2023-03-01T18:59:26.639541,2156187,1230,1796,-1127,-1026,-578,-324,-16,124,-372
47862,8814,0,2023-03-01T18:59:26.644151,2156192,1230,1796,-1127,-1026,-578,-324,-16,124,-372
47863,8815,0,2023-03-01T18:59:26.648661,2156196,1230,1796,-1127,-1026,-578,-324,-16,124,-372
47864,8816,0,2023-03-01T18:59:26.654936,2156201,1230,1794,-1117,-1034,-575,-323,-11,129,-373
47865,8817,0,2023-03-01T18:59:26.661541,2156209,1230,1794,-1117,-1034,-575,-323,-11,129,-373
47866,8818,0,2023-03-01T18:59:26.667574,2156215,1230,1794,-1117,-1034,-575,-323,-11,129,-373
47867,8819,0,2023-03-01T18:59:26.673252,2156221,1230,1794,-1117,-1034,-575,-323,-11,129,-373
47868,8820,0,2023-03-01T18:59:26.678992,2156226,1231,1796,-1121,-1042,-567,-325,-11,129,-373
47869,8821,0,2023-03-01T18:59:26.684814,2156232,1231,1796,-1121,-1042,-567,-325,-11,129,-373
47870,8822,0,2023-03-01T18:59:26.690405,2156238,1231,1796,-1121,-1042,-567,-325,-11,129,-373
47871,8823,0,2023-03-01T18:59:26.695998,2156243,1229,1796,-1119,-1037,-568,-326,-11,129,-373
47872,8824,0,2023-03-01T18:59:26.701271,2156249,1229,1796,-1119,-1037,-568,-326,-11,129,-373
47873,8825,0,2023-03-01T18:59:26.705886,2156254,1229,1796,-1119,-1037,-568,-326,-11,129,-373
47874,8826,0,2023-03-01T18:59:26.710900,2156259,1229,1796,-1119,-1037,-568,-326,-11,129,-373
47875,8827,0,2023-03-01T18:59:26.715912,2156263,1231,1795,-1125,-1039,-580,-322,-11,129,-373
47876,8828,0,2023-03-01T18:59:26.721851,2156269,1231,1795,-1125,-1039,-580,-322,-11,129,-373
47877,8829,0,2023-03-01T18:59:26.727382,2156275,1231,1795,-1125,-1039,-580,-322,-11,129,-373
47878,8830,0,2023-03-01T18:59:26.732032,2156279,1231,1795,-1125,-1039,-580,-322,-11,129,-373
47879,8831,0,2023-03-01T18:59:26.737376,2156285,1231,1795,-1117,-1031,-572,-328,-11,129,-373
47880,8832,0,2023-03-01T18:59:26.742552,2156291,1231,1795,-1117,-1031,-572,-328,-11,129,-373
47881,8833,0,2023-03-01T18:59:26.747641,2156295,1231,1795,-1117,-1031,-572,-328,-11,129,-373
47882,8834,0,2023-03-01T18:59:26.753399,2156301,1231,1795,-1117,-1031,-572,-328,-11,129,-373
47883,8835,0,2023-03-01T18:59:26.758927,2156307,1230,1798,-1124,-1026,-572,-326,-11,129,-373
47884,8836,0,2023-03-01T18:59:26.764597,2156312,1230,1798,-1124,-1026,-572,-326,-11,129,-373
47885,8837,0,2023-03-01T18:59:26.771096,2156318,1230,1798,-1124,-1026,-572,-326,-11,129,-373
47886,8838,0,2023-03-01T18:59:26.777881,2156325,1228,1796,-1121,-1036,-568,-326,-11,129,-373
47887,8839,0,2023-03-01T18:59:26.783023,2156331,1228,1796,-1121,-1036,-568,-326,-11,129,-373
47888,8840,0,2023-03-01T18:59:26.788179,2156336,1228,1796,-1121,-1036,-568,-326,-11,129,-373
47889,8841,0,2023-03-01T18:59:26.793534,2156341,1228,1796,-1121,-1036,-568,-326,-11,129,-373
47890,8842,0,2023-03-01T18:59:26.798491,2156346,1231,1795,-1122,-1042,-571,-324,-7,127,-363
47891,8843,0,2023-03-01T18:59:26.804100,2156352,1231,1795,-1122,-1042,-571,-324,-7,127,-363
47892,8844,0,2023-03-01T18:59:26.809633,2156357,1231,1795,-1122,-1042,-571,-324,-7,127,-363
47893,8845,0,2023-03-01T18:59:26.815223,2156362,1229,1796,-1122,-1038,-580,-317,-7,127,-363
47894,8846,0,2023-03-01T18:59:26.820603,2156368,1229,1796,-1122,-1038,-580,-317,-7,127,-363
47895,8847,0,2023-03-01T18:59:26.825811,2156374,1229,1796,-1122,-1038,-580,-317,-7,127,-363
47896,8848,0,2023-03-01T18:59:26.831421,2156380,1229,1796,-1122,-1038,-580,-317,-7,127,-363
47897,8849,0,2023-03-01T18:59:26.836988,2156385,1226,1796,-1123,-1029,-574,-324,-7,127,-363
47898,8850,0,2023-03-01T18:59:26.842390,2156390,1226,1796,-1123,-1029,-574,-324,-7,127,-363
47899,8851,0,2023-03-01T18:59:26.848203,2156395,1226,1796,-1123,-1029,-574,-324,-7,127,-363
47900,8852,0,2023-03-01T18:59:26.854185,2156401,1231,1796,-1118,-1032,-574,-323,-7,127,-363
47901,8853,0,2023-03-01T18:59:26.860059,2156407,1231,1796,-1118,-1032,-574,-323,-7,127,-363
47902,8854,0,2023-03-01T18:59:26.865179,2156412,1231,1796,-1118,-1032,-574,-323,-7,127,-363
47903,8855,0,2023-03-01T18:59:26.871061,2156419,1231,1796,-1118,-1032,-574,-323,-7,127,-363
47904,8856,0,2023-03-01T18:59:26.875771,2156424,1230,1799,-1119,-1029,-569,-317,-7,127,-363
47905,8857,0,2023-03-01T18:59:26.881302,2156429,1230,1799,-1119,-1029,-569,-317,-7,127,-363
47906,8858,0,2023-03-01T18:59:26.888726,2156436,1230,1799,-1119,-1029,-569,-317,-7,127,-363
47907,8859,0,2023-03-01T18:59:26.894464,2156442,1230,1794,-1123,-1038,-572,-321,-7,127,-363
47908,8860,0,2023-03-01T18:59:26.900379,2156447,1230,1794,-1123,-1038,-572,-321,-7,127,-363
47909,8861,0,2023-03-01T18:59:26.905157,2156452,1230,1794,-1123,-1038,-572,-321,-7,127,-363
47910,8862,0,2023-03-01T18:59:26.911291,2156459,1230,1794,-1123,-1038,-572,-321,-7,127,-363
47911,8863,0,2023-03-01T18:59:26.916152,2156464,1231,1794,-1120,-1036,-575,-319,-12,128,-366
47912,8864,0,2023-03-01T18:59:26.921786,2156470,1231,1794,-1120,-1036,-575,-319,-12,128,-366
47913,8865,0,2023-03-01T18:59:26.926907,2156474,1231,1794,-1120,-1036,-575,-319,-12,128,-366
47914,8866,0,2023-03-01T18:59:26.933289,2156480,1231,1794,-1120,-1036,-575,-319,-12,128,-366
47915,8867,0,2023-03-01T18:59:26.939491,2156487,1229,1794,-1113,-1029,-572,-323,-12,128,-366
47916,8868,0,2023-03-01T18:59:26.945216,2156493,1229,1794,-1113,-1029,-572,-323,-12,128,-366
47917,8869,0,2023-03-01T18:59:26.949952,2156497,1229,1794,-1113,-1029,-572,-323,-12,128,-366
47918,8870,0,2023-03-01T18:59:26.955166,2156503,1231,1793,-1113,-1039,-577,-327,-12,128,-366
47919,8871,0,2023-03-01T18:59:26.960724,2156509,1231,1793,-1113,-1039,-577,-327,-12,128,-366
47920,8872,0,2023-03-01T18:59:26.965476,2156514,1231,1793,-1113,-1039,-577,-327,-12,128,-366
47921,8873,0,2023-03-01T18:59:26.970916,2156519,1231,1793,-1113,-1039,-577,-327,-12,128,-366
47922,8874,0,2023-03-01T18:59:26.976016,2156524,1230,1794,-1121,-1040,-577,-318,-12,128,-366
