,Unnamed: 0,imu,server_time,arduino_time,ax,ay,az,gx,gy,gz,mx,my,mz
50252,1204,0,2023-03-01T18:59:39.803314,2169352,705,1531,1062,-1027,-573,-325,-21,165,-181
50253,1205,0,2023-03-01T18:59:39.808021,2169357,705,1531,1062,-1027,-573,-325,-21,165,-181
50254,1206,0,2023-03-01T18:59:39.813652,2169362,708,1529,1061,-1034,-572,-329,-21,165,-181
50255,1207,0,2023-03-01T18:59:39.818957,2169367,708,1529,1061,-1034,-572,-329,-21,165,-181
50256,1208,0,2023-03-01T18:59:39.824124,2169372,708,1529,1061,-1034,-572,-329,-21,165,-181
50257,1209,0,2023-03-01T18:59:39.830224,2169378,708,1529,1061,-1034,-572,-329,-21,165,-181
50258,1210,0,2023-03-01T18:59:39.835983,2169384,705,1533,1066,-1038,-572,-322,-21,165,-181
50259,1211,0,2023-03-01T18:59:39.841287,2169390,705,1533,1066,-1038,-572,-322,-21,165,-181
50260,1212,0,2023-03-01T18:59:39.846861,2169395,705,1533,1066,-1038,-572,-322,-21,165,-181
50261,1213,0,2023-03-01T18:59:39.852229,2169400,704,1528,1057,-1038,-569,-317,-21,165,-181
50262,1214,0,2023-03-01T18:59:39.858926,2169407,704,1528,1057,-1038,-569,-317,-21,165,-181
50263,1215,0,2023-03-01T18:59:39.863947,2169412,704,1528,1057,-1038,-569,-317,-21,165,-181
50264,1216,0,2023-03-01T18:59:39.869491,2169418,704,1528,1057,-1038,-569,-317,-21,165,-181
50265,1217,0,2023-03-01T18:59:39.874610,2169422,707,1532,1057,-1028,-575,-318,-21,165,-181
50266,1218,0,2023-03-01T18:59:39.880102,2169428,707,1532,1057,-1028,-575,-318,-21,165,-181
50267,1219,0,2023-03-01T18:59:39.886300,2169435,707,1532,1057,-1028,-575,-318,-21,165,-181
50268,1220,0,2023-03-01T18:59:39.891379,2169440,705,1528,1059,-1033,-570,-323,-21,165,-181
50269,1221,0,2023-03-01T18:59:39.897553,2169446,705,1528,1059,-1033,-570,-323,-21,165,-181
50270,1222,0,2023-03-01T18:59:39.902362,2169451,705,1528,1059,-1033,-570,-323,-21,165,-181
50271,1223,0,2023-03-01T18:59:39.908179,2169456,705,1528,1059,-1033,-570,-323,-21,165,-181
50272,1224,0,2023-03-01T18:59:39.913861,2169462,706,1528,1065,-1038,-575,-331,-17,163,-189
50273,1225,0,2023-03-01T18:59:39.919343,2169467,706,1528,1065,-1038,-575,-331,-17,163,-189
50274,1226,0,2023-03-01T18:59:39.924137,2169473,706,1528,1065,-1038,-575,-331,-17,163,-189
50275,1227,0,2023-03-01T18:59:39.928780,2169478,706,1528,1065,-1038,-575,-331,-17,163,-189
50276,1228,0,2023-03-01T18:59:39.934285,2169483,705,1528,1064,-1024,-570,-326,-17,163,-189
50277,1229,0,2023-03-01T18:59:39.940176,2169489,705,1528,1064,-1024,-570,-326,-17,163,-189
50278,1230,0,2023-03-01T18:59:39.946379,2169494,705,1528,1064,-1024,-570,-326,-17,163,-189
50279,1231,0,2023-03-01T18:59:39.951133,2169499,706,1527,1059,-1032,-576,-326,-17,163,-189
50280,1232,0,2023-03-01T18:59:39.957349,2169505,706,1527,1059,-1032,-576,-326,-17,163,-189
50281,1233,0,2023-03-01T18:59:39.962314,2169510,706,1527,1059,-1032,-576,-326,-17,163,-189
50282,1234,0,2023-03-01T18:59:39.967483,2169516,706,1527,1059,-1032,-576,-326,-17,163,-189
50283,1235,0,2023-03-01T18:59:39.972570,2169521,705,1526,1061,-1030,-574,-322,-17,163,-189
50284,1236,0,2023-03-01T18:59:39.978660,2169527,705,1526,1061,-1030,-574,-322,-17,163,-189
50285,1237,0,2023-03-01T18:59:39.983852,2169532,705,1526,1061,-1030,-574,-322,-17,163,-189
50286,1238,0,2023-03-01T18:59:39.988458,2169537,705,1526,1061,-1030,-574,-322,-17,163,-189
50287,1239,0,2023-03-01T18:59:39.993846,2169542,707,1527,1062,-1035,-572,-324,-17,163,-189
50288,1240,0,2023-03-01T18:59:39.999933,2169548,707,1527,1062,-1035,-572,-324,-17,163,-189
50289,1241,0,2023-03-01T18:59:40.006370,2169554,707,1527,1062,-1035,-572,-324,-17,163,-189
50290,1242,0,2023-03-01T18:59:40.011359,2169560,704,1526,1059,-1038,-565,-328,-17,163,-189
50291,1243,0,2023-03-01T18:59:40.017559,2169566,704,1526,1059,-1038,-565,-328,-17,163,-189
50292,1244,0,2023-03-01T18:59:40.022337,2169571,704,1526,1059,-1038,-565,-328,-17,163,-189
50293,1245,0,2023-03-01T18:59:40.027571,2169576,704,1526,1059,-1038,-565,-328,-17,163,-189
50294,1246,0,2023-03-01T18:59:40.032843,2169581,704,1527,1062,-1030,-570,-326,-17,163,-189
50295,1247,0,2023-03-01T18:59:40.038047,2169586,704,1527,1062,-1030,-570,-326,-17,163,-189
50296,1248,0,2023-03-01T18:59:40.042944,2169591,704,1527,1062,-1030,-570,-326,-17,163,-189
50297,1249,0,2023-03-01T18:59:40.047571,2169596,704,1527,1062,-1030,-570,-326,-17,163,-189
50298,1250,0,2023-03-01T18:59:40.053306,2169602,704,1527,1062,-1030,-570,-326,-15,165,-185
50299,1251,0,2023-03-01T18:59:40.058521,2169607,704,1527,1062,-1030,-570,-326,-15,165,-185
50300,1252,0,2023-03-01T18:59:40.063339,2169612,704,1527,1062,-1030,-570,-326,-15,165,-185
50301,1253,0,2023-03-01T18:59:40.068707,2169617,704,1527,1062,-1030,-570,-326,-15,165,-185
50302,1254,0,2023-03-01T18:59:40.074307,2169622,706,1529,1057,-1026,-573,-319,-15,165,-185
50303,1255,0,2023-03-01T18:59:40.080012,2169628,706,1529,1057,-1026,-573,-319,-15,165,-185
50304,1256,0,2023-03-01T18:59:40.085476,2169633,706,1529,1057,-1026,-573,-319,-15,165,-185
50305,1257,0,2023-03-01T18:59:40.090762,2169638,706,1529,1057,-1026,-573,-319,-15,165,-185
50306,1258,0,2023-03-01T18:59:40.095930,2169645,705,1532,1067,-1036,-571,-320,-15,165,-185
50307,1259,0,2023-03-01T18:59:40.101654,2169650,705,1532,1067,-1036,-571,-320,-15,165,-185
50308,1260,0,2023-03-01T18:59:40.107382,2169656,705,1532,1067,-1036,-571,-320,-15,165,-185
50309,1261,0,2023-03-01T18:59:40.112195,2169661,705,1527,1059,-1036,-573,-322,-15,165,-185
50310,1262,0,2023-03-01T18:59:40.118250,2169666,705,1527,1059,-1036,-573,-322,-15,165,-185
50311,1263,0,2023-03-01T18:59:40.122990,2169671,705,1527,1059,-1036,-573,-322,-15,165,-185
50312,1264,0,2023-03-01T18:59:40.128754,2169677,705,1527,1059,-1036,-573,-322,-15,165,-185
50313,1265,0,2023-03-01T18:59:40.134506,2169682,704,1527,1065,-1030,-568,-315,-15,165,-185
50314,1266,0,2023-03-01T18:59:40.140024,2169689,704,1527,1065,-1030,-568,-315,-15,165,-185
50315,1267,0,2023-03-01T18:59:40.144922,2169693,704,1527,1065,-1030,-568,-315,-15,165,-185
50316,1268,0,2023-03-01T18:59:40.149757,2169698,704,1527,1065,-1030,-568,-315,-15,165,-185
50317,1269,0,2023-03-01T18:59:40.155469,2169704,704,1525,1063,-1021,-572,-321,-15,165,-185
50318,1270,0,2023-03-01T18:59:40.161181,2169709,704,1525,1063,-1021,-572,-321,-15,165,-185
50319,1271,0,2023-03-01T18:59:40.167453,2169715,704,1525,1063,-1021,-572,-321,-15,165,-185
50320,1272,0,2023-03-01T18:59:40.172637,2169721,705,1528,1068,-1030,-575,-322,-21,167,-187
50321,1273,0,2023-03-01T18:59:40.179164,2169728,705,1528,1068,-1030,-575,-322,-21,167,-187
50322,1274,0,2023-03-01T18:59:40.184186,2169733,705,1528,1068,-1030,-575,-322,-21,167,-187
50323,1275,0,2023-03-01T18:59:40.189310,2169738,705,1528,1068,-1030,-575,-322,-21,167,-187
50324,1276,0,2023-03-01T18:59:40.195077,2169743,704,1529,1059,-1033,-572,-323,-21,167,-187
50325,1277,0,2023-03-01T18:59:40.200598,2169749,704,1529,1059,-1033,-572,-323,-21,167,-187
50326,1278,0,2023-03-01T18:59:40.205709,2169754,704,1529,1059,-1033,-572,-323,-21,167,-187
50327,1279,0,2023-03-01T18:59:40.210325,2169758,704,1529,1059,-1033,-572,-323,-21,167,-187
50328,1280,0,2023-03-01T18:59:40.216288,2169764,706,1526,1063,-1036,-576,-316,-21,167,-187
50329,1281,0,2023-03-01T18:59:40.223085,2169771,706,1526,1063,-1036,-576,-316,-21,167,-187
50330,1282,0,2023-03-01T18:59:40.229630,2169778,706,1526,1063,-1036,-576,-316,-21,167,-187
50331,1283,0,2023-03-01T18:59:40.235264,2169784,706,1528,1061,-1033,-575,-322,-21,167,-187
50332,1284,0,2023-03-01T18:59:40.240779,2169789,706,1528,1061,-1033,-575,-322,-21,167,-187
50333,1285,0,2023-03-01T18:59:40.245348,2169794,706,1528,1061,-1033,-575,-322,-21,167,-187
50334,1286,0,2023-03-01T18:59:40.250590,2169799,706,1528,1061,-1033,-575,-322,-21,167,-187
50335,1287,0,2023-03-01T18:59:40.256246,2169804,706,1528,1060,-1032,-576,-324,-21,167,-187
50336,1288,0,2023-03-01T18:59:40.262173,2169810,706,1528,1060,-1032,-576,-324,-21,167,-187
50337,1289,0,2023-03-01T18:59:40.267132,2169816,706,1528,1060,-1032,-576,-324,-21,167,-187
50338,1290,0,2023-03-01T18:59:40.272077,2169821,708,1525,1060,-1034,-569,-322,-21,167,-187
50339,1291,0,2023-03-01T18:59:40.278376,2169827,708,1525,1060,-1034,-569,-322,-21,167,-187
50340,1292,0,2023-03-01T18:59:40.283378,2169832,708,1525,1060,-1034,-569,-322,-21,167,-187
50341,1293,0,2023-03-01T18:59:40.288746,2169837,708,1525,1060,-1034,-569,-322,-21,167,-187
50342,1294,0,2023-03-01T18:59:40.294437,2169842,708,1529,1060,-1028,-572,-324,-17,163,-183
50343,1295,0,2023-03-01T18:59:40.300192,2169848,708,1529,1060,-1028,-572,-324,-17,163,-183
50344,1296,0,2023-03-01T18:59:40.305256,2169853,708,1529,1060,-1028,-572,-324,-17,163,-183
50345,1297,0,2023-03-01T18:59:40.310171,2169859,708,1529,1060,-1028,-572,-324,-17,163,-183
50346,1298,0,2023-03-01T18:59:40.315295,2169864,706,1530,1066,-1033,-571,-319,-17,163,-183
50347,1299,0,2023-03-01T18:59:40.320974,2169869,706,1530,1066,-1033,-571,-319,-17,163,-183
50348,1300,0,2023-03-01T18:59:40.326785,2169875,706,1530,1066,-1033,-571,-319,-17,163,-183
50349,1301,0,2023-03-01T18:59:40.331766,2169880,707,1527,1064,-1022,-568,-323,-17,163,-183
50350,1302,0,2023-03-01T18:59:40.339599,2169888,707,1527,1064,-1022,-568,-323,-17,163,-183
50351,1303,0,2023-03-01T18:59:40.344373,2169892,707,1527,1064,-1022,-568,-323,-17,163,-183
50352,1304,0,2023-03-01T18:59:40.348996,2169897,707,1527,1064,-1022,-568,-323,-17,163,-183
50353,1305,0,2023-03-01T18:59:40.354657,2169903,706,1531,1063,-1032,-573,-315,-17,163,-183
50354,1306,0,2023-03-01T18:59:40.360247,2169909,706,1531,1063,-1032,-573,-315,-17,163,-183
50355,1307,0,2023-03-01T18:59:40.365083,2169914,706,1531,1063,-1032,-573,-315,-17,163,-183
50356,1308,0,2023-03-01T18:59:40.370077,2169919,706,1531,1063,-1032,-573,-315,-17,163,-183
50357,1309,0,2023-03-01T18:59:40.375589,2169924,704,1527,1065,-1032,-575,-316,-17,163,-183
50358,1310,0,2023-03-01T18:59:40.381398,2169929,704,1527,1065,-1032,-575,-316,-17,163,-183
50359,1311,0,2023-03-01T18:59:40.386555,2169934,704,1527,1065,-1032,-575,-316,-17,163,-183
50360,1312,0,2023-03-01T18:59:40.391532,2169939,708,1527,1063,-1033,-568,-322,-17,163,-183
50361,1313,0,2023-03-01T18:59:40.397477,2169946,708,1527,1063,-1033,-568,-322,-17,163,-183
50362,1314,0,2023-03-01T18:59:40.402360,2169951,708,1527,1063,-1033,-568,-322,-17,163,-183
50363,1315,0,2023-03-01T18:59:40.407486,2169956,708,1527,1063,-1033,-568,-322,-17,163,-183
50364,1316,0,2023-03-01T18:59:40.413449,2169962,706,1530,1063,-1036,-569,-323,-17,163,-183
50365,1317,0,2023-03-01T18:59:40.419151,2169967,706,1530,1063,-1036,-569,-323,-17,163,-183
50366,1318,0,2023-03-01T18:59:40.424100,2169972,706,1530,1063,-1036,-569,-323,-17,163,-183
50367,1319,0,2023-03-01T18:59:40.428870,2169977,706,1530,1063,-1036,-569,-323,-17,163,-183
50368,1320,0,2023-03-01T18:59:40.434445,2169982,706,1527,1071,-1030,-571,-321,-21,169,-187
50369,1321,0,2023-03-01T18:59:40.439765,2169989,706,1527,1071,-1030,-571,-321,-21,169,-187
50370,1322,0,2023-03-01T18:59:40.445595,2169994,706,1527,1071,-1030,-571,-321,-21,169,-187
50371,1323,0,2023-03-01T18:59:40.450378,2169999,706,1527,1071,-1030,-571,-321,-21,169,-187
50372,1324,0,2023-03-01T18:59:40.455781,2170004,706,1529,1060,-1036,-578,-329,-21,169,-187
50373,1325,0,2023-03-01T18:59:40.461055,2170009,706,1529,1060,-1036,-578,-329,-21,169,-187
50374,1326,0,2023-03-01T18:59:40.466469,2170015,706,1529,1060,-1036,-578,-329,-21,169,-187
50375,1327,0,2023-03-01T18:59:40.471977,2170019,704,1531,1061,-1029,-573,-320,-21,169,-187
50376,1328,0,2023-03-01T18:59:40.478131,2170027,704,1531,1061,-1029,-573,-320,-21,169,-187
50377,1329,0,2023-03-01T18:59:40.483095,2170032,704,1531,1061,-1029,-573,-320,-21,169,-187
50378,1330,0,2023-03-01T18:59:40.488083,2170037,704,1531,1061,-1029,-573,-320,-21,169,-187
50379,1331,0,2023-03-01T18:59:40.493622,2170042,704,1530,1059,-1032,-572,-321,-21,169,-187
50380,1332,0,2023-03-01T18:59:40.498407,2170047,704,1530,1059,-1032,-572,-321,-21,169,-187
50381,1333,0,2023-03-01T18:59:40.503304,2170052,704,1530,1059,-1032,-572,-321,-21,169,-187
50382,1334,0,2023-03-01T18:59:40.508384,2170057,704,1530,1059,-1032,-572,-321,-21,169,-187
50383,1335,0,2023-03-01T18:59:40.513961,2170062,705,1527,1064,-1030,-562,-315,-21,169,-187
50384,1336,0,2023-03-01T18:59:40.519358,2170067,705,1527,1064,-1030,-562,-315,-21,169,-187
50385,1337,0,2023-03-01T18:59:40.524381,2170073,705,1527,1064,-1030,-562,-315,-21,169,-187
50386,1338,0,2023-03-01T18:59:40.529934,2170079,705,1527,1064,-1030,-562,-315,-21,169,-187
50387,1339,0,2023-03-01T18:59:40.535719,2170084,705,1528,1060,-1036,-571,-328,-21,169,-187
50388,1340,0,2023-03-01T18:59:40.541256,2170090,705,1528,1060,-1036,-571,-328,-21,169,-187
50389,1341,0,2023-03-01T18:59:40.546366,2170095,705,1528,1060,-1036,-571,-328,-21,169,-187
50390,1342,0,2023-03-01T18:59:40.551368,2170099,705,1529,1066,-1039,-579,-328,-21,169,-187
50391,1343,0,2023-03-01T18:59:40.557922,2170106,705,1529,1066,-1039,-579,-328,-18,168,-188
50392,1344,0,2023-03-01T18:59:40.563136,2170112,705,1529,1066,-1039,-579,-328,-18,168,-188
50393,1345,0,2023-03-01T18:59:40.568791,2170118,705,1529,1066,-1039,-579,-328,-18,168,-188
50394,1346,0,2023-03-01T18:59:40.574483,2170123,703,1525,1063,-1029,-566,-319,-18,168,-188
50395,1347,0,2023-03-01T18:59:40.580080,2170129,703,1525,1063,-1029,-566,-319,-18,168,-188
50396,1348,0,2023-03-01T18:59:40.584819,2170133,703,1525,1063,-1029,-566,-319,-18,168,-188
50397,1349,0,2023-03-01T18:59:40.589902,2170138,703,1525,1063,-1029,-566,-319,-18,168,-188
50398,1350,0,2023-03-01T18:59:40.595245,2170144,704,1527,1064,-1028,-575,-316,-18,168,-188
50399,1351,0,2023-03-01T18:59:40.600441,2170149,704,1527,1064,-1028,-575,-316,-18,168,-188
50400,1352,0,2023-03-01T18:59:40.605799,2170153,704,1527,1064,-1028,-575,-316,-18,168,-188
50401,1353,0,2023-03-01T18:59:40.610846,2170160,704,1527,1064,-1028,-575,-316,-18,168,-188
50402,1354,0,2023-03-01T18:59:40.616525,2170165,704,1527,1064,-1028,-575,-316,-18,168,-188
50403,1355,0,2023-03-01T18:59:40.621541,2170170,704,1527,1064,-1028,-575,-316,-18,168,-188
50404,1356,0,2023-03-01T18:59:40.626620,2170175,704,1527,1064,-1028,-575,-316,-18,168,-188
50405,1357,0,2023-03-01T18:59:40.631717,2170180,707,1528,1066,-1029,-573,-322,-18,168,-188
50406,1358,0,2023-03-01T18:59:40.638356,2170186,707,1528,1066,-1029,-573,-322,-18,168,-188
50407,1359,0,2023-03-01T18:59:40.643454,2170191,707,1528,1066,-1029,-573,-322,-18,168,-188
50408,1360,0,2023-03-01T18:59:40.649708,2170198,707,1528,1066,-1029,-573,-322,-18,168,-188
50409,1361,0,2023-03-01T18:59:40.655372,2170204,706,1528,1062,-1029,-570,-319,-18,168,-188
50410,1362,0,2023-03-01T18:59:40.661859,2170210,706,1528,1062,-1029,-570,-319,-18,168,-188
50411,1363,0,2023-03-01T18:59:40.667906,2170216,706,1528,1062,-1029,-570,-319,-18,168,-188
50412,1364,0,2023-03-01T18:59:40.673984,2170222,707,1526,1065,-1037,-566,-326,-18,168,-188
50413,1365,0,2023-03-01T18:59:40.679970,2170228,707,1526,1065,-1037,-566,-326,-18,168,-188
50414,1366,0,2023-03-01T18:59:40.684973,2170233,707,1526,1065,-1037,-566,-326,-18,168,-188
50415,1367,0,2023-03-01T18:59:40.689773,2170238,707,1526,1065,-1037,-566,-326,-18,168,-188
50416,1368,0,2023-03-01T18:59:40.695631,2170244,706,1529,1067,-1032,-572,-320,-19,161,-189
50417,1369,0,2023-03-01T18:59:40.701356,2170250,706,1529,1067,-1032,-572,-320,-19,161,-189
50418,1370,0,2023-03-01T18:59:40.706375,2170255,706,1529,1067,-1032,-572,-320,-19,161,-189
50419,1371,0,2023-03-01T18:59:40.711310,2170260,706,1529,1067,-1032,-572,-320,-19,161,-189
50420,1372,0,2023-03-01T18:59:40.717397,2170265,704,1526,1065,-1027,-570,-322,-19,161,-189
50421,1373,0,2023-03-01T18:59:40.723125,2170271,704,1526,1065,-1027,-570,-322,-19,161,-189
50422,1374,0,2023-03-01T18:59:40.727809,2170276,704,1526,1065,-1027,-570,-322,-19,161,-189
50423,1375,0,2023-03-01T18:59:40.733361,2170281,708,1526,1065,-1021,-570,-326,-19,161,-189
50424,1376,0,2023-03-01T18:59:40.739806,2170288,708,1526,1065,-1021,-570,-326,-19,161,-189
50425,1377,0,2023-03-01T18:59:40.745023,2170293,708,1526,1065,-1021,-570,-326,-19,161,-189
50426,1378,0,2023-03-01T18:59:40.751174,2170300,708,1526,1065,-1021,-570,-326,-19,161,-189
50427,1379,0,2023-03-01T18:59:40.757109,2170305,705,1530,1066,-1034,-578,-311,-19,161,-189
50428,1380,0,2023-03-01T18:59:40.762903,2170311,705,1530,1066,-1034,-578,-311,-19,161,-189
50429,1381,0,2023-03-01T18:59:40.768397,2170316,705,1530,1066,-1034,-578,-311,-19,161,-189
50430,1382,0,2023-03-01T18:59:40.773897,2170322,704,1529,1057,-1028,-570,-317,-19,161,-189
50431,1383,0,2023-03-01T18:59:40.779853,2170328,704,1529,1057,-1028,-570,-317,-19,161,-189
50432,1384,0,2023-03-01T18:59:40.784898,2170334,704,1529,1057,-1028,-570,-317,-19,161,-189
50433,1385,0,2023-03-01T18:59:40.790365,2170339,704,1529,1057,-1028,-570,-317,-19,161,-189
50434,1386,0,2023-03-01T18:59:40.795916,2170344,706,1528,1058,-1027,-569,-319,-19,161,-189
50435,1387,0,2023-03-01T18:59:40.801875,2170350,706,1528,1058,-1027,-569,-319,-19,161,-189
50436,1388,0,2023-03-01T18:59:40.807550,2170356,706,1528,1058,-1027,-569,-319,-19,161,-189
50437,1389,0,2023-03-01T18:59:40.812202,2170360,708,1529,1063,-1030,-577,-326,-16,166,-190
50438,1390,0,2023-03-01T18:59:40.818366,2170366,708,1529,1063,-1030,-577,-326,-16,166,-190
50439,1391,0,2023-03-01T18:59:40.823247,2170372,708,1529,1063,-1030,-577,-326,-16,166,-190
50440,1392,0,2023-03-01T18:59:40.829205,2170377,708,1529,1063,-1030,-577,-326,-16,166,-190
50441,1393,0,2023-03-01T18:59:40.834930,2170384,707,1526,1060,-1036,-572,-329,-16,166,-190
50442,1394,0,2023-03-01T18:59:40.840366,2170389,707,1526,1060,-1036,-572,-329,-16,166,-190
50443,1395,0,2023-03-01T18:59:40.845260,2170394,707,1526,1060,-1036,-572,-329,-16,166,-190
50444,1396,0,2023-03-01T18:59:40.850710,2170399,707,1526,1060,-1036,-572,-329,-16,166,-190
50445,1397,0,2023-03-01T18:59:40.856333,2170404,705,1527,1061,-1040,-567,-321,-16,166,-190
50446,1398,0,2023-03-01T18:59:40.862597,2170412,705,1527,1061,-1040,-567,-321,-16,166,-190
50447,1399,0,2023-03-01T18:59:40.867535,2170416,705,1527,1061,-1040,-567,-321,-16,166,-190
50448,1400,0,2023-03-01T18:59:40.872765,2170421,707,1530,1060,-1032,-574,-326,-16,166,-190
50449,1401,0,2023-03-01T18:59:40.878225,2170427,707,1530,1060,-1032,-574,-326,-16,166,-190
50450,1402,0,2023-03-01T18:59:40.884114,2170432,707,1530,1060,-1032,-574,-326,-16,166,-190
50451,1403,0,2023-03-01T18:59:40.890480,2170438,707,1530,1060,-1032,-574,-326,-16,166,-190
50452,1404,0,2023-03-01T18:59:40.896314,2170444,706,1528,1060,-1033,-570,-319,-16,166,-190
50453,1405,0,2023-03-01T18:59:40.902228,2170450,706,1528,1060,-1033,-570,-319,-16,166,-190
50454,1406,0,2023-03-01T18:59:40.908157,2170457,706,1528,1060,-1033,-570,-319,-16,166,-190
50455,1407,0,2023-03-01T18:59:40.913657,2170462,708,1527,1057,-1033,-569,-322,-16,166,-190
50456,1408,0,2023-03-01T18:59:40.918692,2170467,708,1527,1057,-1033,-569,-322,-16,166,-190
50457,1409,0,2023-03-01T18:59:40.923801,2170472,708,1527,1057,-1033,-569,-322,-16,166,-190
50458,1410,0,2023-03-01T18:59:40.928485,2170477,708,1527,1057,-1033,-569,-322,-16,166,-190
50459,1411,0,2023-03-01T18:59:40.934355,2170482,704,1530,1058,-1032,-568,-321,-16,166,-190
50460,1412,0,2023-03-01T18:59:40.940361,2170488,704,1530,1058,-1032,-568,-321,-16,166,-190
50461,1413,0,2023-03-01T18:59:40.944891,2170493,704,1530,1058,-1032,-568,-321,-16,166,-190
50462,1414,0,2023-03-01T18:59:40.949424,2170498,704,1530,1058,-1032,-568,-321,-16,166,-190
50463,1415,0,2023-03-01T18:59:40.955486,2170504,708,1529,1059,-1039,-569,-326,-17,163,-187
50464,1416,0,2023-03-01T18:59:40.961371,2170510,708,1529,1059,-1039,-569,-326,-17,163,-187
50465,1417,0,2023-03-01T18:59:40.966092,2170515,708,1529,1059,-1039,-569,-326,-17,163,-187
50466,1418,0,2023-03-01T18:59:40.971204,2170520,708,1529,1059,-1039,-569,-326,-17,163,-187
50467,1419,0,2023-03-01T18:59:40.976558,2170525,705,1530,1062,-1034,-569,-323,-17,163,-187
50468,1420,0,2023-03-01T18:59:40.981992,2170530,705,1530,1062,-1034,-569,-323,-17,163,-187
50469,1421,0,2023-03-01T18:59:40.987771,2170536,705,1530,1062,-1034,-569,-323,-17,163,-187
50470,1422,0,2023-03-01T18:59:40.993680,2170542,707,1528,1061,-1030,-577,-326,-17,163,-187
50471,1423,0,2023-03-01T18:59:41.000255,2170549,707,1528,1061,-1030,-577,-326,-17,163,-187
50472,1424,0,2023-03-01T18:59:41.005231,2170554,707,1528,1061,-1030,-577,-326,-17,163,-187
50473,1425,0,2023-03-01T18:59:41.011330,2170559,707,1528,1061,-1030,-577,-326,-17,163,-187
50474,1426,0,2023-03-01T18:59:41.017116,2170565,707,1527,1068,-1030,-570,-325,-17,163,-187
50475,1427,0,2023-03-01T18:59:41.022574,2170571,707,1527,1068,-1030,-570,-325,-17,163,-187
50476,1428,0,2023-03-01T18:59:41.028261,2170576,707,1527,1068,-1030,-570,-325,-17,163,-187
50477,1429,0,2023-03-01T18:59:41.033639,2170583,705,1527,1063,-1034,-578,-327,-17,163,-187
50478,1430,0,2023-03-01T18:59:41.039067,2170588,705,1527,1063,-1034,-578,-327,-17,163,-187
50479,1431,0,2023-03-01T18:59:41.043696,2170592,705,1527,1063,-1034,-578,-327,-17,163,-187
50480,1432,0,2023-03-01T18:59:41.049063,2170597,705,1527,1063,-1034,-578,-327,-17,163,-187
50481,1433,0,2023-03-01T18:59:41.054342,2170603,707,1530,1058,-1029,-580,-322,-17,163,-187
50482,1434,0,2023-03-01T18:59:41.059607,2170608,707,1530,1058,-1029,-580,-322,-17,163,-187
50483,1435,0,2023-03-01T18:59:41.064317,2170613,707,1530,1058,-1029,-580,-322,-17,163,-187
50484,1436,0,2023-03-01T18:59:41.069618,2170618,707,1530,1058,-1029,-580,-322,-17,163,-187
50485,1437,0,2023-03-01T18:59:41.075098,2170624,703,1528,1065,-1034,-579,-320,-19,171,-181
50486,1438,0,2023-03-01T18:59:41.081019,2170630,703,1528,1065,-1034,-579,-320,-19,171,-181
50487,1439,0,2023-03-01T18:59:41.086606,2170635,703,1528,1065,-1034,-579,-320,-19,171,-181
50488,1440,0,2023-03-01T18:59:41.091286,2170640,703,1528,1065,-1034,-579,-320,-19,171,-181
50489,1441,0,2023-03-01T18:59:41.096933,2170645,706,1528,1060,-1034,-579,-326,-19,171,-181
50490,1442,0,2023-03-01T18:59:41.103498,2170651,706,1528,1060,-1034,-579,-326,-19,171,-181
50491,1443,0,2023-03-01T18:59:41.109469,2170657,706,1528,1060,-1034,-579,-326,-19,171,-181
50492,1444,0,2023-03-01T18:59:41.115577,2170664,710,1527,1057,-1027,-578,-323,-19,171,-181
50493,1445,0,2023-03-01T18:59:41.121320,2170670,710,1527,1057,-1027,-578,-323,-19,171,-181
50494,1446,0,2023-03-01T18:59:41.126119,2170675,710,1527,1057,-1027,-578,-323,-19,171,-181
50495,1447,0,2023-03-01T18:59:41.131398,2170680,710,1527,1057,-1027,-578,-323,-19,171,-181
50496,1448,0,2023-03-01T18:59:41.137184,2170686,706,1527,1066,-1028,-570,-323,-19,171,-181
50497,1449,0,2023-03-01T18:59:41.142814,2170691,706,1527,1066,-1028,-570,-323,-19,171,-181
50498,1450,0,2023-03-01T18:59:41.147366,2170696,706,1527,1066,-1028,-570,-323,-19,171,-181
50499,1451,0,2023-03-01T18:59:41.152023,2170700,706,1527,1061,-1033,-569,-327,-19,171,-181
50500,1452,0,2023-03-01T18:59:41.158457,2170706,706,1527,1061,-1033,-569,-327,-19,171,-181
50501,1453,0,2023-03-01T18:59:41.163483,2170712,706,1527,1061,-1033,-569,-327,-19,171,-181
50502,1454,0,2023-03-01T18:59:41.169401,2170718,706,1527,1061,-1033,-569,-327,-19,171,-181
50503,1455,0,2023-03-01T18:59:41.174400,2170723,705,1528,1064,-1039,-570,-322,-19,171,-181
50504,1456,0,2023-03-01T18:59:41.179944,2170728,705,1528,1064,-1039,-570,-322,-19,171,-181
50505,1457,0,2023-03-01T18:59:41.185117,2170733,705,1528,1064,-1039,-570,-322,-19,171,-181
50506,1458,0,2023-03-01T18:59:41.190774,2170739,705,1528,1064,-1039,-570,-322,-19,171,-181
50507,1459,0,2023-03-01T18:59:41.196440,2170745,709,1530,1064,-1038,-578,-321,-21,167,-191
50508,1460,0,2023-03-01T18:59:41.202154,2170750,709,1530,1064,-1038,-578,-321,-21,167,-191
50509,1461,0,2023-03-01T18:59:41.206987,2170756,709,1530,1064,-1038,-578,-321,-21,167,-191
50510,1462,0,2023-03-01T18:59:41.211985,2170761,709,1530,1064,-1038,-578,-321,-21,167,-191
50511,1463,0,2023-03-01T18:59:41.218003,2170766,706,1529,1063,-1037,-576,-324,-21,167,-191
50512,1464,0,2023-03-01T18:59:41.224266,2170772,706,1529,1063,-1037,-576,-324,-21,167,-191
50513,1465,0,2023-03-01T18:59:41.230729,2170779,706,1529,1063,-1037,-576,-324,-21,167,-191
50514,1466,0,2023-03-01T18:59:41.236672,2170785,706,1527,1059,-1039,-577,-320,-21,167,-191
50515,1467,0,2023-03-01T18:59:41.241479,2170789,706,1527,1059,-1039,-577,-320,-21,167,-191
50516,1468,0,2023-03-01T18:59:41.246307,2170795,706,1527,1059,-1039,-577,-320,-21,167,-191
50517,1469,0,2023-03-01T18:59:41.251351,2170800,706,1527,1059,-1039,-577,-320,-21,167,-191
50518,1470,0,2023-03-01T18:59:41.256697,2170805,704,1526,1063,-1037,-575,-324,-21,167,-191
50519,1471,0,2023-03-01T18:59:41.262496,2170811,704,1526,1063,-1037,-575,-324,-21,167,-191
50520,1472,0,2023-03-01T18:59:41.267492,2170816,704,1526,1063,-1037,-575,-324,-21,167,-191
50521,1473,0,2023-03-01T18:59:41.272523,2170821,708,1527,1060,-1036,-569,-326,-21,167,-191
50522,1474,0,2023-03-01T18:59:41.278826,2170827,708,1527,1060,-1036,-569,-326,-21,167,-191
50523,1475,0,2023-03-01T18:59:41.283884,2170832,708,1527,1060,-1036,-569,-326,-21,167,-191
50524,1476,0,2023-03-01T18:59:41.289219,2170838,708,1527,1060,-1036,-569,-326,-21,167,-191
50525,1477,0,2023-03-01T18:59:41.295178,2170844,704,1531,1060,-1029,-577,-325,-21,167,-191
50526,1478,0,2023-03-01T18:59:41.300745,2170849,704,1531,1060,-1029,-577,-325,-21,167,-191
50527,1479,0,2023-03-01T18:59:41.306353,2170855,704,1531,1060,-1029,-577,-325,-21,167,-191
50528,1480,0,2023-03-01T18:59:41.311767,2170860,704,1531,1060,-1029,-577,-325,-21,167,-191
50529,1481,0,2023-03-01T18:59:41.317416,2170866,706,1529,1059,-1035,-579,-316,-21,167,-191
50530,1482,0,2023-03-01T18:59:41.323276,2170871,706,1529,1059,-1035,-579,-316,-21,167,-191
50531,1483,0,2023-03-01T18:59:41.329917,2170877,706,1529,1059,-1035,-579,-316,-21,167,-191
50532,1484,0,2023-03-01T18:59:41.336348,2170885,704,1526,1061,-1036,-572,-328,-21,173,-191
50533,1485,0,2023-03-01T18:59:41.342733,2170891,704,1526,1061,-1036,-572,-328,-21,173,-191
50534,1486,0,2023-03-01T18:59:41.347644,2170896,704,1526,1061,-1036,-572,-328,-21,173,-191
50535,1487,0,2023-03-01T18:59:41.352762,2170901,705,1529,1059,-1031,-572,-329,-21,173,-191
50536,1488,0,2023-03-01T18:59:41.358646,2170907,705,1529,1059,-1031,-572,-329,-21,173,-191
50537,1489,0,2023-03-01T18:59:41.363402,2170912,705,1529,1059,-1031,-572,-329,-21,173,-191
50538,1490,0,2023-03-01T18:59:41.368909,2170917,705,1529,1059,-1031,-572,-329,-21,173,-191
50539,1491,0,2023-03-01T18:59:41.374430,2170923,709,1528,1055,-1027,-570,-316,-21,173,-191
50540,1492,0,2023-03-01T18:59:41.381358,2170930,709,1528,1055,-1027,-570,-316,-21,173,-191
50541,1493,0,2023-03-01T18:59:41.387204,2170936,709,1528,1055,-1027,-570,-316,-21,173,-191
50542,1494,0,2023-03-01T18:59:41.391953,2170941,709,1528,1055,-1027,-570,-316,-21,173,-191
50543,1495,0,2023-03-01T18:59:41.397315,2170946,705,1528,1058,-1027,-563,-326,-21,173,-191
50544,1496,0,2023-03-01T18:59:41.402789,2170951,705,1528,1058,-1027,-563,-326,-21,173,-191
50545,1497,0,2023-03-01T18:59:41.408746,2170956,705,1528,1058,-1027,-563,-326,-21,173,-191
50546,1498,0,2023-03-01T18:59:41.414451,2170962,706,1527,1058,-1034,-575,-320,-21,173,-191
50547,1499,0,2023-03-01T18:59:41.420256,2170969,706,1527,1058,-1034,-575,-320,-21,173,-191
50548,1500,0,2023-03-01T18:59:41.425675,2170974,706,1527,1058,-1034,-575,-320,-21,173,-191
50549,1501,0,2023-03-01T18:59:41.431743,2170980,706,1527,1058,-1034,-575,-320,-21,173,-191
50550,1502,0,2023-03-01T18:59:41.437198,2170986,706,1526,1061,-1031,-579,-315,-21,173,-191
50551,1503,0,2023-03-01T18:59:41.444524,2170993,706,1526,1061,-1031,-579,-315,-21,173,-191
50552,1504,0,2023-03-01T18:59:41.450357,2170998,706,1526,1061,-1031,-579,-315,-21,173,-191
50553,1505,0,2023-03-01T18:59:41.456046,2171004,706,1529,1068,-1028,-578,-321,-15,171,-185
50554,1506,0,2023-03-01T18:59:41.461979,2171011,706,1529,1068,-1028,-578,-321,-15,171,-185
50555,1507,0,2023-03-01T18:59:41.467516,2171016,706,1529,1068,-1028,-578,-321,-15,171,-185
50556,1508,0,2023-03-01T18:59:41.472512,2171021,704,1530,1064,-1033,-569,-329,-15,171,-185
50557,1509,0,2023-03-01T18:59:41.479420,2171027,704,1530,1064,-1033,-569,-329,-15,171,-185
50558,1510,0,2023-03-01T18:59:41.484323,2171033,704,1530,1064,-1033,-569,-329,-15,171,-185
50559,1511,0,2023-03-01T18:59:41.489077,2171037,704,1530,1064,-1033,-569,-329,-15,171,-185
50560,1512,0,2023-03-01T18:59:41.494492,2171043,707,1529,1056,-1033,-577,-323,-15,171,-185
50561,1513,0,2023-03-01T18:59:41.499914,2171048,707,1529,1056,-1033,-577,-323,-15,171,-185
50562,1514,0,2023-03-01T18:59:41.504933,2171053,707,1529,1056,-1033,-577,-323,-15,171,-185
50563,1515,0,2023-03-01T18:59:41.509593,2171058,707,1529,1056,-1033,-577,-323,-15,171,-185
50564,1516,0,2023-03-01T18:59:41.515368,2171064,705,1527,1059,-1022,-577,-331,-15,171,-185
50565,1517,0,2023-03-01T18:59:41.522351,2171071,705,1527,1059,-1022,-577,-331,-15,171,-185
50566,1518,0,2023-03-01T18:59:41.527125,2171075,705,1527,1059,-1022,-577,-331,-15,171,-185
50567,1519,0,2023-03-01T18:59:41.532105,2171080,705,1527,1059,-1022,-577,-331,-15,171,-185
50568,1520,0,2023-03-01T18:59:41.537840,2171086,710,1532,1059,-1032,-574,-323,-15,171,-185
50569,1521,0,2023-03-01T18:59:41.544057,2171092,710,1532,1059,-1032,-574,-323,-15,171,-185
50570,1522,0,2023-03-01T18:59:41.549778,2171098,710,1532,1059,-1032,-574,-323,-15,171,-185
50571,1523,0,2023-03-01T18:59:41.555342,2171104,707,1527,1062,-1031,-569,-314,-15,171,-185
50572,1524,0,2023-03-01T18:59:41.561184,2171110,707,1527,1062,-1031,-569,-314,-15,171,-185
50573,1525,0,2023-03-01T18:59:41.566158,2171114,707,1527,1062,-1031,-569,-314,-15,171,-185
50574,1526,0,2023-03-01T18:59:41.571258,2171119,707,1527,1062,-1031,-569,-314,-15,171,-185
50575,1527,0,2023-03-01T18:59:41.577792,2171126,708,1528,1062,-1034,-568,-320,-15,171,-185
50576,1528,0,2023-03-01T18:59:41.583500,2171132,708,1528,1062,-1034,-568,-320,-15,171,-185
50577,1529,0,2023-03-01T18:59:41.588194,2171137,708,1528,1062,-1034,-568,-320,-15,171,-185
50578,1530,0,2023-03-01T18:59:41.593707,2171142,708,1526,1065,-1034,-570,-320,-16,164,-188
50579,1531,0,2023-03-01T18:59:41.600039,2171148,708,1526,1065,-1034,-570,-320,-16,164,-188
50580,1532,0,2023-03-01T18:59:41.604945,2171153,708,1526,1065,-1034,-570,-320,-16,164,-188
50581,1533,0,2023-03-01T18:59:41.609803,2171158,708,1526,1065,-1034,-570,-320,-16,164,-188
50582,1534,0,2023-03-01T18:59:41.615777,2171164,705,1529,1057,-1033,-569,-323,-16,164,-188
50583,1535,0,2023-03-01T18:59:41.620801,2171169,705,1529,1057,-1033,-569,-323,-16,164,-188
50584,1536,0,2023-03-01T18:59:41.625933,2171174,705,1529,1057,-1033,-569,-323,-16,164,-188
50585,1537,0,2023-03-01T18:59:41.631158,2171180,705,1529,1057,-1033,-569,-323,-16,164,-188
50586,1538,0,2023-03-01T18:59:41.636717,2171185,705,1528,1062,-1031,-574,-323,-16,164,-188
50587,1539,0,2023-03-01T18:59:41.642376,2171191,705,1528,1062,-1031,-574,-323,-16,164,-188
50588,1540,0,2023-03-01T18:59:41.647525,2171196,705,1528,1062,-1031,-574,-323,-16,164,-188
50589,1541,0,2023-03-01T18:59:41.652383,2171201,705,1528,1062,-1031,-574,-323,-16,164,-188
50590,1542,0,2023-03-01T18:59:41.657895,2171206,708,1526,1064,-1025,-567,-316,-16,164,-188
50591,1543,0,2023-03-01T18:59:41.665669,2171214,708,1526,1064,-1025,-567,-316,-16,164,-188
50592,1544,0,2023-03-01T18:59:41.670489,2171219,708,1526,1064,-1025,-567,-316,-16,164,-188
50593,1545,0,2023-03-01T18:59:41.676332,2171225,707,1529,1060,-1031,-570,-326,-16,164,-188
50594,1546,0,2023-03-01T18:59:41.682310,2171231,707,1529,1060,-1031,-570,-326,-16,164,-188
50595,1547,0,2023-03-01T18:59:41.688136,2171237,707,1529,1060,-1031,-570,-326,-16,164,-188
50596,1548,0,2023-03-01T18:59:41.693536,2171242,706,1532,1062,-1030,-572,-323,-16,164,-188
50597,1549,0,2023-03-01T18:59:41.699240,2171247,706,1532,1062,-1030,-572,-323,-16,164,-188
50598,1550,0,2023-03-01T18:59:41.704397,2171252,706,1532,1062,-1030,-572,-323,-16,164,-188
50599,1551,0,2023-03-01T18:59:41.710606,2171259,706,1532,1062,-1030,-572,-323,-16,164,-188
50600,1552,0,2023-03-01T18:59:41.716222,2171265,705,1529,1065,-1022,-575,-320,-23,161,-179
50601,1553,0,2023-03-01T18:59:41.721912,2171270,705,1529,1065,-1022,-575,-320,-23,161,-179
50602,1554,0,2023-03-01T18:59:41.727016,2171275,705,1529,1065,-1022,-575,-320,-23,161,-179
50603,1555,0,2023-03-01T18:59:41.732310,2171281,705,1529,1065,-1022,-575,-320,-23,161,-179
50604,1556,0,2023-03-01T18:59:41.738644,2171286,704,1527,1061,-1024,-572,-327,-23,161,-179
50605,1557,0,2023-03-01T18:59:41.744514,2171293,704,1527,1061,-1024,-572,-327,-23,161,-179
50606,1558,0,2023-03-01T18:59:41.749572,2171298,704,1527,1061,-1024,-572,-327,-23,161,-179
50607,1559,0,2023-03-01T18:59:41.755438,2171303,707,1528,1056,-1027,-572,-322,-23,161,-179
50608,1560,0,2023-03-01T18:59:41.761137,2171310,707,1528,1056,-1027,-572,-322,-23,161,-179
50609,1561,0,2023-03-01T18:59:41.767406,2171316,707,1528,1056,-1027,-572,-322,-23,161,-179
50610,1562,0,2023-03-01T18:59:41.774630,2171323,705,1526,1058,-1030,-568,-325,-23,161,-179
50611,1563,0,2023-03-01T18:59:41.781229,2171329,705,1526,1058,-1030,-568,-325,-23,161,-179
50612,1564,0,2023-03-01T18:59:41.787493,2171336,705,1526,1058,-1030,-568,-325,-23,161,-179
50613,1565,0,2023-03-01T18:59:41.792680,2171341,705,1526,1058,-1030,-568,-325,-23,161,-179
50614,1566,0,2023-03-01T18:59:41.798374,2171346,708,1527,1062,-1030,-570,-326,-23,161,-179
50615,1567,0,2023-03-01T18:59:41.803801,2171353,708,1527,1062,-1030,-570,-326,-23,161,-179
50616,1568,0,2023-03-01T18:59:41.809627,2171358,708,1527,1062,-1030,-570,-326,-23,161,-179
50617,1569,0,2023-03-01T18:59:41.815353,2171364,705,1530,1058,-1031,-570,-323,-23,161,-179
50618,1570,0,2023-03-01T18:59:41.821377,2171370,705,1530,1058,-1031,-570,-323,-23,161,-179
50619,1571,0,2023-03-01T18:59:41.827352,2171375,705,1530,1058,-1031,-570,-323,-23,161,-179
50620,1572,0,2023-03-01T18:59:41.832201,2171380,705,1530,1058,-1031,-570,-323,-23,161,-179
50621,1573,0,2023-03-01T18:59:41.838329,2171386,707,1527,1062,-1030,-569,-322,-23,161,-179
50622,1574,0,2023-03-01T18:59:41.844166,2171393,707,1527,1062,-1030,-569,-322,-23,161,-179
50623,1575,0,2023-03-01T18:59:41.851580,2171400,707,1527,1062,-1030,-569,-322,-23,161,-179
50624,1576,0,2023-03-01T18:59:41.857235,2171406,705,1527,1059,-1024,-579,-327,-23,173,-185
50625,1577,0,2023-03-01T18:59:41.862627,2171411,705,1527,1059,-1024,-579,-327,-23,173,-185
50626,1578,0,2023-03-01T18:59:41.867495,2171416,705,1527,1059,-1024,-579,-327,-23,173,-185
50627,1579,0,2023-03-01T18:59:41.872467,2171421,705,1527,1059,-1024,-579,-327,-23,173,-185
50628,1580,0,2023-03-01T18:59:41.878947,2171426,704,1531,1055,-1026,-581,-327,-23,173,-185
50629,1581,0,2023-03-01T18:59:41.884847,2171433,704,1531,1055,-1026,-581,-327,-23,173,-185
50630,1582,0,2023-03-01T18:59:41.889658,2171439,704,1531,1055,-1026,-581,-327,-23,173,-185
50631,1583,0,2023-03-01T18:59:41.895041,2171444,706,1529,1064,-1029,-579,-323,-23,173,-185
50632,1584,0,2023-03-01T18:59:41.900455,2171449,706,1529,1064,-1029,-579,-323,-23,173,-185
50633,1585,0,2023-03-01T18:59:41.905579,2171454,706,1529,1064,-1029,-579,-323,-23,173,-185
50634,1586,0,2023-03-01T18:59:41.911189,2171460,706,1529,1064,-1029,-579,-323,-23,173,-185
50635,1587,0,2023-03-01T18:59:41.916679,2171465,705,1528,1061,-1039,-576,-315,-23,173,-185
50636,1588,0,2023-03-01T18:59:41.922019,2171470,705,1528,1061,-1039,-576,-315,-23,173,-185
50637,1589,0,2023-03-01T18:59:41.927839,2171476,705,1528,1061,-1039,-576,-315,-23,173,-185
50638,1590,0,2023-03-01T18:59:41.932713,2171481,705,1528,1061,-1039,-576,-315,-23,173,-185
50639,1591,0,2023-03-01T18:59:41.938635,2171487,708,1529,1059,-1030,-576,-325,-23,173,-185
50640,1592,0,2023-03-01T18:59:41.943965,2171492,708,1529,1059,-1030,-576,-325,-23,173,-185
50641,1593,0,2023-03-01T18:59:41.950074,2171498,708,1529,1059,-1030,-576,-325,-23,173,-185
50642,1594,0,2023-03-01T18:59:41.956062,2171504,706,1528,1056,-1030,-567,-326,-23,173,-185
50643,1595,0,2023-03-01T18:59:41.961791,2171510,706,1528,1056,-1030,-567,-326,-23,173,-185
50644,1596,0,2023-03-01T18:59:41.967339,2171515,706,1528,1056,-1030,-567,-326,-23,173,-185
50645,1597,0,2023-03-01T18:59:41.972729,2171521,706,1528,1056,-1030,-567,-326,-23,173,-185
50646,1598,0,2023-03-01T18:59:41.979202,2171527,706,1528,1062,-1031,-572,-325,-25,161,-191
50647,1599,0,2023-03-01T18:59:41.985159,2171534,706,1528,1062,-1031,-572,-325,-25,161,-191
50648,1600,0,2023-03-01T18:59:41.990344,2171539,706,1528,1062,-1031,-572,-325,-25,161,-191
50649,1601,0,2023-03-01T18:59:41.995977,2171544,706,1529,1058,-1032,-574,-333,-25,161,-191
50650,1602,0,2023-03-01T18:59:42.001445,2171550,706,1529,1058,-1032,-574,-333,-25,161,-191
50651,1603,0,2023-03-01T18:59:42.007092,2171555,706,1529,1058,-1032,-574,-333,-25,161,-191
50652,1604,0,2023-03-01T18:59:42.012285,2171560,706,1529,1058,-1032,-574,-333,-25,161,-191
50653,1605,0,2023-03-01T18:59:42.017664,2171567,706,1529,1063,-1032,-569,-328,-25,161,-191
50654,1606,0,2023-03-01T18:59:42.023232,2171572,706,1529,1063,-1032,-569,-328,-25,161,-191
50655,1607,0,2023-03-01T18:59:42.028882,2171578,706,1529,1063,-1032,-569,-328,-25,161,-191
50656,1608,0,2023-03-01T18:59:42.034516,2171583,706,1528,1065,-1037,-575,-321,-25,161,-191
50657,1609,0,2023-03-01T18:59:42.040624,2171589,706,1528,1065,-1037,-575,-321,-25,161,-191
50658,1610,0,2023-03-01T18:59:42.045650,2171594,706,1528,1065,-1037,-575,-321,-25,161,-191
50659,1611,0,2023-03-01T18:59:42.051328,2171599,706,1528,1065,-1037,-575,-321,-25,161,-191
50660,1612,0,2023-03-01T18:59:42.056134,2171604,706,1528,1061,-1033,-576,-319,-25,161,-191
50661,1613,0,2023-03-01T18:59:42.061342,2171610,706,1528,1061,-1033,-576,-319,-25,161,-191
50662,1614,0,2023-03-01T18:59:42.067083,2171616,706,1528,1061,-1033,-576,-319,-25,161,-191
50663,1615,0,2023-03-01T18:59:42.071688,2171620,706,1528,1061,-1033,-576,-319,-25,161,-191
50664,1616,0,2023-03-01T18:59:42.077217,2171626,705,1530,1057,-1026,-574,-322,-25,161,-191
50665,1617,0,2023-03-01T18:59:42.082913,2171631,705,1530,1057,-1026,-574,-322,-25,161,-191
50666,1618,0,2023-03-01T18:59:42.087487,2171636,705,1530,1057,-1026,-574,-322,-25,161,-191
50667,1619,0,2023-03-01T18:59:42.092557,2171641,705,1530,1057,-1026,-574,-322,-25,161,-191
50668,1620,0,2023-03-01T18:59:42.098910,2171646,705,1527,1070,-1030,-570,-324,-21,171,-189
50669,1621,0,2023-03-01T18:59:42.105290,2171654,705,1527,1070,-1030,-570,-324,-21,171,-189
50670,1622,0,2023-03-01T18:59:42.110261,2171659,705,1527,1070,-1030,-570,-324,-21,171,-189
50671,1623,0,2023-03-01T18:59:42.115785,2171664,707,1529,1065,-1020,-572,-329,-21,171,-189
50672,1624,0,2023-03-01T18:59:42.121342,2171670,707,1529,1065,-1020,-572,-329,-21,171,-189
50673,1625,0,2023-03-01T18:59:42.127302,2171676,707,1529,1065,-1020,-572,-329,-21,171,-189
50674,1626,0,2023-03-01T18:59:42.132646,2171681,707,1529,1065,-1020,-572,-329,-21,171,-189
50675,1627,0,2023-03-01T18:59:42.138275,2171686,710,1526,1065,-1034,-574,-328,-21,171,-189
50676,1628,0,2023-03-01T18:59:42.144276,2171693,710,1526,1065,-1034,-574,-328,-21,171,-189
50677,1629,0,2023-03-01T18:59:42.149318,2171698,710,1526,1065,-1034,-574,-328,-21,171,-189
50678,1630,0,2023-03-01T18:59:42.154681,2171703,706,1525,1064,-1031,-574,-319,-21,171,-189
50679,1631,0,2023-03-01T18:59:42.160118,2171709,706,1525,1064,-1031,-574,-319,-21,171,-189
50680,1632,0,2023-03-01T18:59:42.165208,2171713,706,1525,1064,-1031,-574,-319,-21,171,-189
50681,1633,0,2023-03-01T18:59:42.170665,2171719,706,1525,1064,-1031,-574,-319,-21,171,-189
50682,1634,0,2023-03-01T18:59:42.176476,2171724,707,1525,1065,-1030,-571,-317,-21,171,-189
50683,1635,0,2023-03-01T18:59:42.182096,2171730,707,1525,1065,-1030,-571,-317,-21,171,-189
50684,1636,0,2023-03-01T18:59:42.186970,2171736,707,1525,1065,-1030,-571,-317,-21,171,-189
50685,1637,0,2023-03-01T18:59:42.191897,2171740,707,1525,1065,-1030,-571,-317,-21,171,-189
50686,1638,0,2023-03-01T18:59:42.197706,2171746,706,1525,1063,-1036,-566,-323,-21,171,-189
50687,1639,0,2023-03-01T18:59:42.203456,2171752,706,1525,1063,-1036,-566,-323,-21,171,-189
50688,1640,0,2023-03-01T18:59:42.209513,2171758,706,1525,1063,-1036,-566,-323,-21,171,-189
50689,1641,0,2023-03-01T18:59:42.215625,2171764,705,1528,1062,-1031,-574,-323,-21,171,-189
50690,1642,0,2023-03-01T18:59:42.221354,2171769,705,1528,1062,-1031,-574,-323,-21,171,-189
50691,1643,0,2023-03-01T18:59:42.226920,2171774,705,1528,1062,-1031,-574,-323,-21,171,-189
50692,1644,0,2023-03-01T18:59:42.233201,2171782,705,1528,1062,-1031,-574,-323,-21,171,-189
50693,1645,0,2023-03-01T18:59:42.239485,2171788,707,1526,1074,-1033,-569,-319,-16,178,-192
50694,1646,0,2023-03-01T18:59:42.245162,2171794,707,1526,1074,-1033,-569,-319,-16,178,-192
50695,1647,0,2023-03-01T18:59:42.250317,2171799,707,1526,1074,-1033,-569,-319,-16,178,-192
50696,1648,0,2023-03-01T18:59:42.255692,2171804,706,1529,1066,-1027,-571,-323,-16,178,-192
50697,1649,0,2023-03-01T18:59:42.261409,2171809,706,1529,1066,-1027,-571,-323,-16,178,-192
50698,1650,0,2023-03-01T18:59:42.266479,2171814,706,1529,1066,-1027,-571,-323,-16,178,-192
50699,1651,0,2023-03-01T18:59:42.272383,2171821,706,1529,1066,-1027,-571,-323,-16,178,-192
50700,1652,0,2023-03-01T18:59:42.277873,2171827,707,1529,1066,-1024,-569,-321,-16,178,-192
50701,1653,0,2023-03-01T18:59:42.283677,2171832,707,1529,1066,-1024,-569,-321,-16,178,-192
50702,1654,0,2023-03-01T18:59:42.288774,2171837,707,1529,1066,-1024,-569,-321,-16,178,-192
50703,1655,0,2023-03-01T18:59:42.294516,2171843,709,1527,1059,-1026,-568,-322,-16,178,-192
50704,1656,0,2023-03-01T18:59:42.300178,2171848,709,1527,1059,-1026,-568,-322,-16,178,-192
50705,1657,0,2023-03-01T18:59:42.305716,2171854,709,1527,1059,-1026,-568,-322,-16,178,-192
50706,1658,0,2023-03-01T18:59:42.311136,2171859,709,1527,1059,-1026,-568,-322,-16,178,-192
50707,1659,0,2023-03-01T18:59:42.317955,2171866,707,1526,1061,-1019,-569,-323,-16,178,-192
50708,1660,0,2023-03-01T18:59:42.324084,2171873,707,1526,1061,-1019,-569,-323,-16,178,-192
50709,1661,0,2023-03-01T18:59:42.329361,2171878,707,1526,1061,-1019,-569,-323,-16,178,-192
50710,1662,0,2023-03-01T18:59:42.334957,2171883,708,1527,1061,-1032,-565,-323,-16,178,-192
50711,1663,0,2023-03-01T18:59:42.340732,2171889,708,1527,1061,-1032,-565,-323,-16,178,-192
50712,1664,0,2023-03-01T18:59:42.346210,2171894,708,1527,1061,-1032,-565,-323,-16,178,-192
50713,1665,0,2023-03-01T18:59:42.352363,2171900,708,1527,1061,-1032,-565,-323,-16,178,-192
50714,1666,0,2023-03-01T18:59:42.358371,2171907,705,1527,1058,-1019,-567,-320,-15,165,-183
50715,1667,0,2023-03-01T18:59:42.365214,2171913,705,1527,1058,-1019,-567,-320,-15,165,-183
50716,1668,0,2023-03-01T18:59:42.370553,2171919,705,1527,1058,-1019,-567,-320,-15,165,-183
50717,1669,0,2023-03-01T18:59:42.376365,2171925,708,1530,1059,-1034,-568,-323,-15,165,-183
50718,1670,0,2023-03-01T18:59:42.381661,2171930,708,1530,1059,-1034,-568,-323,-15,165,-183
50719,1671,0,2023-03-01T18:59:42.386884,2171935,708,1530,1059,-1034,-568,-323,-15,165,-183
50720,1672,0,2023-03-01T18:59:42.392589,2171940,708,1530,1059,-1034,-568,-323,-15,165,-183
50721,1673,0,2023-03-01T18:59:42.397656,2171945,708,1527,1068,-1040,-575,-321,-15,165,-183
50722,1674,0,2023-03-01T18:59:42.403264,2171952,708,1527,1068,-1040,-575,-321,-15,165,-183
50723,1675,0,2023-03-01T18:59:42.408164,2171957,708,1527,1068,-1040,-575,-321,-15,165,-183
50724,1676,0,2023-03-01T18:59:42.413066,2171962,708,1527,1068,-1040,-575,-321,-15,165,-183
50725,1677,0,2023-03-01T18:59:42.418032,2171966,707,1528,1060,-1033,-568,-315,-15,165,-183
50726,1678,0,2023-03-01T18:59:42.423977,2171972,707,1528,1060,-1033,-568,-315,-15,165,-183
50727,1679,0,2023-03-01T18:59:42.430340,2171979,707,1528,1060,-1033,-568,-315,-15,165,-183
50728,1680,0,2023-03-01T18:59:42.436235,2171984,707,1529,1062,-1033,-571,-327,-15,165,-183
50729,1681,0,2023-03-01T18:59:42.441847,2171991,707,1529,1062,-1033,-571,-327,-15,165,-183
50730,1682,0,2023-03-01T18:59:42.446315,2171995,707,1529,1062,-1033,-571,-327,-15,165,-183
50731,1683,0,2023-03-01T18:59:42.451385,2172000,707,1529,1062,-1033,-571,-327,-15,165,-183
50732,1684,0,2023-03-01T18:59:42.457073,2172005,706,1525,1064,-1034,-575,-331,-15,165,-183
50733,1685,0,2023-03-01T18:59:42.462788,2172011,706,1525,1064,-1034,-575,-331,-15,165,-183
50734,1686,0,2023-03-01T18:59:42.467415,2172016,706,1525,1064,-1034,-575,-331,-15,165,-183
50735,1687,0,2023-03-01T18:59:42.472646,2172021,706,1525,1064,-1034,-575,-331,-15,165,-183
50736,1688,0,2023-03-01T18:59:42.478179,2172026,706,1525,1064,-1034,-575,-331,-15,165,-183
50737,1689,0,2023-03-01T18:59:42.483114,2172032,706,1525,1064,-1034,-575,-331,-15,165,-183
50738,1690,0,2023-03-01T18:59:42.487983,2172037,706,1525,1064,-1034,-575,-331,-15,165,-183
50739,1691,0,2023-03-01T18:59:42.492459,2172041,706,1525,1064,-1034,-575,-331,-15,165,-183
50740,1692,0,2023-03-01T18:59:42.498082,2172047,705,1532,1061,-1025,-569,-322,-18,168,-186
50741,1693,0,2023-03-01T18:59:42.504121,2172052,705,1532,1061,-1025,-569,-322,-18,168,-186
50742,1694,0,2023-03-01T18:59:42.510195,2172058,705,1532,1061,-1025,-569,-322,-18,168,-186
50743,1695,0,2023-03-01T18:59:42.516308,2172064,704,1526,1066,-1027,-570,-321,-18,168,-186
50744,1696,0,2023-03-01T18:59:42.522234,2172070,704,1526,1066,-1027,-570,-321,-18,168,-186
50745,1697,0,2023-03-01T18:59:42.527401,2172076,704,1526,1066,-1027,-570,-321,-18,168,-186
50746,1698,0,2023-03-01T18:59:42.532836,2172081,704,1526,1066,-1027,-570,-321,-18,168,-186
50747,1699,0,2023-03-01T18:59:42.542414,2172090,707,1534,1063,-1027,-572,-322,-18,168,-186
50748,1700,0,2023-03-01T18:59:42.549428,2172098,707,1534,1063,-1027,-572,-322,-18,168,-186
50749,1701,0,2023-03-01T18:59:42.554827,2172103,709,1527,1060,-1036,-575,-323,-18,168,-186
50750,1702,0,2023-03-01T18:59:42.560470,2172108,709,1527,1060,-1036,-575,-323,-18,168,-186
50751,1703,0,2023-03-01T18:59:42.565687,2172113,709,1527,1060,-1036,-575,-323,-18,168,-186
50752,1704,0,2023-03-01T18:59:42.571865,2172121,709,1527,1060,-1036,-575,-323,-18,168,-186
50753,1705,0,2023-03-01T18:59:42.577921,2172126,707,1528,1063,-1033,-578,-316,-18,168,-186
50754,1706,0,2023-03-01T18:59:42.584029,2172132,707,1528,1063,-1033,-578,-316,-18,168,-186
50755,1707,0,2023-03-01T18:59:42.589853,2172138,707,1528,1063,-1033,-578,-316,-18,168,-186
50756,1708,0,2023-03-01T18:59:42.595596,2172144,706,1526,1055,-1034,-578,-317,-18,168,-186
50757,1709,0,2023-03-01T18:59:42.602244,2172150,706,1526,1055,-1034,-578,-317,-18,168,-186
50758,1710,0,2023-03-01T18:59:42.608209,2172156,706,1526,1055,-1034,-578,-317,-18,168,-186
50759,1711,0,2023-03-01T18:59:42.613050,2172162,706,1526,1055,-1034,-578,-317,-18,168,-186
50760,1712,0,2023-03-01T18:59:42.618946,2172168,707,1529,1067,-1033,-569,-323,-24,168,-184
50761,1713,0,2023-03-01T18:59:42.624998,2172173,707,1529,1067,-1033,-569,-323,-24,168,-184
50762,1714,0,2023-03-01T18:59:42.630803,2172179,707,1529,1067,-1033,-569,-323,-24,168,-184
50763,1715,0,2023-03-01T18:59:42.636364,2172185,706,1529,1062,-1030,-575,-324,-24,168,-184
50764,1716,0,2023-03-01T18:59:42.641206,2172189,706,1529,1062,-1030,-575,-324,-24,168,-184
50765,1717,0,2023-03-01T18:59:42.646686,2172195,706,1529,1062,-1030,-575,-324,-24,168,-184
50766,1718,0,2023-03-01T18:59:42.651648,2172200,706,1529,1062,-1030,-575,-324,-24,168,-184
50767,1719,0,2023-03-01T18:59:42.658127,2172207,707,1529,1061,-1029,-575,-321,-24,168,-184
50768,1720,0,2023-03-01T18:59:42.663500,2172212,707,1529,1061,-1029,-575,-321,-24,168,-184
50769,1721,0,2023-03-01T18:59:42.668466,2172217,707,1529,1061,-1029,-575,-321,-24,168,-184
50770,1722,0,2023-03-01T18:59:42.673919,2172222,707,1529,1061,-1029,-575,-321,-24,168,-184
50771,1723,0,2023-03-01T18:59:42.679156,2172227,706,1528,1059,-1033,-572,-320,-24,168,-184
50772,1724,0,2023-03-01T18:59:42.684439,2172233,706,1528,1059,-1033,-572,-320,-24,168,-184
50773,1725,0,2023-03-01T18:59:42.689990,2172238,706,1528,1059,-1033,-572,-320,-24,168,-184
50774,1726,0,2023-03-01T18:59:42.695449,2172244,705,1531,1062,-1037,-578,-319,-24,168,-184
50775,1727,0,2023-03-01T18:59:42.701287,2172250,705,1531,1062,-1037,-578,-319,-24,168,-184
50776,1728,0,2023-03-01T18:59:42.706769,2172255,705,1531,1062,-1037,-578,-319,-24,168,-184
50777,1729,0,2023-03-01T18:59:42.712025,2172260,705,1531,1062,-1037,-578,-319,-24,168,-184
50778,1730,0,2023-03-01T18:59:42.717291,2172266,702,1528,1058,-1036,-578,-321,-24,168,-184
50779,1731,0,2023-03-01T18:59:42.722654,2172271,702,1528,1058,-1036,-578,-321,-24,168,-184
50780,1732,0,2023-03-01T18:59:42.728497,2172276,702,1528,1058,-1036,-578,-321,-24,168,-184
50781,1733,0,2023-03-01T18:59:42.733759,2172282,702,1528,1058,-1036,-578,-321,-24,168,-184
50782,1734,0,2023-03-01T18:59:42.739487,2172289,707,1530,1064,-1037,-574,-330,-24,168,-184
50783,1735,0,2023-03-01T18:59:42.745321,2172294,707,1530,1064,-1037,-574,-330,-24,168,-184
50784,1736,0,2023-03-01T18:59:42.750365,2172299,707,1530,1064,-1037,-574,-330,-24,168,-184
50785,1737,0,2023-03-01T18:59:42.757358,2172306,706,1530,1065,-1035,-578,-333,-24,168,-184
50786,1738,0,2023-03-01T18:59:42.763243,2172311,706,1530,1065,-1035,-578,-333,-24,168,-184
50787,1739,0,2023-03-01T18:59:42.769218,2172317,706,1530,1065,-1035,-578,-333,-24,168,-184
50788,1740,0,2023-03-01T18:59:42.774616,2172323,709,1525,1065,-1027,-574,-328,-24,168,-184
50789,1741,0,2023-03-01T18:59:42.780320,2172328,709,1525,1065,-1027,-574,-328,-24,168,-184
50790,1742,0,2023-03-01T18:59:42.785838,2172335,709,1525,1065,-1027,-574,-328,-24,168,-184
50791,1743,0,2023-03-01T18:59:42.791899,2172341,709,1525,1065,-1027,-574,-328,-24,168,-184
50792,1744,0,2023-03-01T18:59:42.797326,2172346,706,1528,1060,-1034,-572,-321,-24,168,-184
50793,1745,0,2023-03-01T18:59:42.802378,2172351,706,1528,1060,-1034,-572,-321,-24,168,-184
50794,1746,0,2023-03-01T18:59:42.807457,2172356,706,1528,1060,-1034,-572,-321,-24,168,-184
50795,1747,0,2023-03-01T18:59:42.812901,2172361,706,1528,1060,-1034,-572,-321,-24,168,-184
50796,1748,0,2023-03-01T18:59:42.818844,2172367,705,1529,1060,-1038,-579,-320,-24,168,-184
50797,1749,0,2023-03-01T18:59:42.824486,2172372,705,1529,1060,-1038,-579,-320,-24,168,-184
50798,1750,0,2023-03-01T18:59:42.830253,2172379,705,1529,1060,-1038,-579,-320,-24,168,-184
50799,1751,0,2023-03-01T18:59:42.836224,2172385,705,1527,1062,-1041,-574,-321,-24,168,-184
50800,1752,0,2023-03-01T18:59:42.841947,2172390,705,1527,1062,-1041,-574,-321,-24,168,-184
50801,1753,0,2023-03-01T18:59:42.847063,2172395,705,1527,1062,-1041,-574,-321,-24,168,-184
50802,1754,0,2023-03-01T18:59:42.852779,2172401,705,1527,1062,-1041,-574,-321,-24,168,-184
50803,1755,0,2023-03-01T18:59:42.858366,2172407,705,1529,1066,-1031,-577,-319,-24,168,-184
50804,1756,0,2023-03-01T18:59:42.866903,2172416,705,1529,1066,-1031,-577,-319,-24,168,-184
50805,1757,0,2023-03-01T18:59:42.872553,2172421,705,1529,1066,-1031,-577,-319,-24,168,-184
50806,1758,0,2023-03-01T18:59:42.877875,2172427,701,1527,1068,-1031,-567,-321,-23,169,-183
50807,1759,0,2023-03-01T18:59:42.883857,2172432,701,1527,1068,-1031,-567,-321,-23,169,-183
50808,1760,0,2023-03-01T18:59:42.891937,2172440,701,1527,1068,-1031,-567,-321,-23,169,-183
50809,1761,0,2023-03-01T18:59:42.898281,2172446,705,1530,1058,-1028,-569,-325,-23,169,-183
50810,1762,0,2023-03-01T18:59:42.903726,2172452,705,1530,1058,-1028,-569,-325,-23,169,-183
50811,1763,0,2023-03-01T18:59:42.908902,2172457,705,1530,1058,-1028,-569,-325,-23,169,-183
50812,1764,0,2023-03-01T18:59:42.914683,2172464,708,1527,1063,-1030,-569,-318,-23,169,-183
50813,1765,0,2023-03-01T18:59:42.920302,2172469,708,1527,1063,-1030,-569,-318,-23,169,-183
50814,1766,0,2023-03-01T18:59:42.925635,2172474,708,1527,1063,-1030,-569,-318,-23,169,-183
50815,1767,0,2023-03-01T18:59:42.931479,2172480,708,1527,1063,-1030,-569,-318,-23,169,-183
50816,1768,0,2023-03-01T18:59:42.936757,2172485,706,1530,1063,-1027,-565,-326,-23,169,-183
50817,1769,0,2023-03-01T18:59:42.941137,2172490,706,1530,1063,-1027,-565,-326,-23,169,-183
50818,1770,0,2023-03-01T18:59:42.945836,2172494,706,1530,1063,-1027,-565,-326,-23,169,-183
50819,1771,0,2023-03-01T18:59:42.950979,2172499,706,1530,1063,-1027,-565,-326,-23,169,-183
50820,1772,0,2023-03-01T18:59:42.956886,2172505,708,1528,1061,-1038,-571,-324,-23,169,-183
50821,1773,0,2023-03-01T18:59:42.962773,2172512,708,1528,1061,-1038,-571,-324,-23,169,-183
50822,1774,0,2023-03-01T18:59:42.967408,2172516,708,1528,1061,-1038,-571,-324,-23,169,-183
50823,1775,0,2023-03-01T18:59:42.974034,2172522,708,1528,1061,-1038,-571,-324,-23,169,-183
50824,1776,0,2023-03-01T18:59:42.979819,2172528,708,1525,1054,-1037,-572,-326,-23,169,-183
50825,1777,0,2023-03-01T18:59:42.986177,2172534,708,1525,1054,-1037,-572,-326,-23,169,-183
50826,1778,0,2023-03-01T18:59:42.991290,2172539,708,1525,1054,-1037,-572,-326,-23,169,-183
50827,1779,0,2023-03-01T18:59:42.996528,2172546,704,1523,1062,-1035,-571,-323,-22,160,-186
50828,1780,0,2023-03-01T18:59:43.002307,2172551,704,1523,1062,-1035,-571,-323,-22,160,-186
50829,1781,0,2023-03-01T18:59:43.007845,2172556,704,1523,1062,-1035,-571,-323,-22,160,-186
50830,1782,0,2023-03-01T18:59:43.012885,2172561,704,1523,1062,-1035,-571,-323,-22,160,-186
50831,1783,0,2023-03-01T18:59:43.018672,2172567,706,1526,1062,-1037,-576,-320,-22,160,-186
50832,1784,0,2023-03-01T18:59:43.024430,2172573,706,1526,1062,-1037,-576,-320,-22,160,-186
50833,1785,0,2023-03-01T18:59:43.030066,2172578,706,1526,1062,-1037,-576,-320,-22,160,-186
50834,1786,0,2023-03-01T18:59:43.036530,2172584,707,1529,1060,-1036,-572,-323,-22,160,-186
50835,1787,0,2023-03-01T18:59:43.041989,2172591,707,1529,1060,-1036,-572,-323,-22,160,-186
50836,1788,0,2023-03-01T18:59:43.046642,2172596,707,1529,1060,-1036,-572,-323,-22,160,-186
50837,1789,0,2023-03-01T18:59:43.051824,2172600,707,1529,1060,-1036,-572,-323,-22,160,-186
50838,1790,0,2023-03-01T18:59:43.057268,2172606,708,1527,1063,-1037,-579,-321,-22,160,-186
50839,1791,0,2023-03-01T18:59:43.062939,2172611,708,1527,1063,-1037,-579,-321,-22,160,-186
50840,1792,0,2023-03-01T18:59:43.067880,2172616,708,1527,1063,-1037,-579,-321,-22,160,-186
50841,1793,0,2023-03-01T18:59:43.072928,2172621,708,1527,1063,-1037,-579,-321,-22,160,-186
50842,1794,0,2023-03-01T18:59:43.078296,2172626,708,1526,1058,-1033,-570,-319,-22,160,-186
50843,1795,0,2023-03-01T18:59:43.083916,2172633,708,1526,1058,-1033,-570,-319,-22,160,-186
50844,1796,0,2023-03-01T18:59:43.088997,2172638,708,1526,1058,-1033,-570,-319,-22,160,-186
50845,1797,0,2023-03-01T18:59:43.094803,2172644,707,1525,1063,-1026,-571,-320,-22,160,-186
50846,1798,0,2023-03-01T18:59:43.100166,2172649,707,1525,1063,-1026,-571,-320,-22,160,-186
50847,1799,0,2023-03-01T18:59:43.104811,2172653,707,1525,1063,-1026,-571,-320,-22,160,-186
50848,1800,0,2023-03-01T18:59:43.109724,2172658,707,1525,1063,-1026,-571,-320,-22,160,-186
50849,1801,0,2023-03-01T18:59:43.114915,2172663,709,1525,1063,-1038,-576,-324,-22,160,-186
50850,1802,0,2023-03-01T18:59:43.120198,2172668,709,1525,1063,-1038,-576,-324,-22,160,-186
50851,1803,0,2023-03-01T18:59:43.125455,2172674,709,1525,1063,-1038,-576,-324,-22,160,-186
50852,1804,0,2023-03-01T18:59:43.131105,2172680,709,1525,1063,-1038,-576,-324,-22,160,-186
50853,1805,0,2023-03-01T18:59:43.136391,2172685,704,1528,1064,-1036,-574,-324,-14,158,-184
50854,1806,0,2023-03-01T18:59:43.142021,2172690,704,1528,1064,-1036,-574,-324,-14,158,-184
50855,1807,0,2023-03-01T18:59:43.146849,2172695,704,1528,1064,-1036,-574,-324,-14,158,-184
50856,1808,0,2023-03-01T18:59:43.151482,2172700,704,1528,1064,-1036,-574,-324,-14,158,-184
50857,1809,0,2023-03-01T18:59:43.157488,2172705,710,1527,1059,-1036,-580,-326,-14,158,-184
50858,1810,0,2023-03-01T18:59:43.163407,2172711,710,1527,1059,-1036,-580,-326,-14,158,-184
50859,1811,0,2023-03-01T18:59:43.168192,2172717,710,1527,1059,-1036,-580,-326,-14,158,-184
50860,1812,0,2023-03-01T18:59:43.173465,2172723,710,1527,1059,-1036,-580,-326,-14,158,-184
50861,1813,0,2023-03-01T18:59:43.178521,2172727,703,1526,1068,-1032,-573,-326,-14,158,-184
50862,1814,0,2023-03-01T18:59:43.184342,2172733,703,1526,1068,-1032,-573,-326,-14,158,-184
50863,1815,0,2023-03-01T18:59:43.190255,2172739,703,1526,1068,-1032,-573,-326,-14,158,-184
50864,1816,0,2023-03-01T18:59:43.196119,2172744,703,1527,1059,-1028,-574,-328,-14,158,-184
50865,1817,0,2023-03-01T18:59:43.201860,2172750,703,1527,1059,-1028,-574,-328,-14,158,-184
50866,1818,0,2023-03-01T18:59:43.206647,2172755,703,1527,1059,-1028,-574,-328,-14,158,-184
50867,1819,0,2023-03-01T18:59:43.211481,2172760,703,1527,1059,-1028,-574,-328,-14,158,-184
50868,1820,0,2023-03-01T18:59:43.216120,2172765,705,1526,1062,-1029,-576,-325,-14,158,-184
50869,1821,0,2023-03-01T18:59:43.221832,2172770,705,1526,1062,-1029,-576,-325,-14,158,-184
50870,1822,0,2023-03-01T18:59:43.226949,2172775,705,1526,1062,-1029,-576,-325,-14,158,-184
50871,1823,0,2023-03-01T18:59:43.231958,2172780,705,1526,1062,-1029,-576,-325,-14,158,-184
50872,1824,0,2023-03-01T18:59:43.237925,2172786,711,1527,1061,-1031,-579,-316,-14,158,-184
50873,1825,0,2023-03-01T18:59:43.243369,2172792,711,1527,1061,-1031,-579,-316,-14,158,-184
50874,1826,0,2023-03-01T18:59:43.248333,2172797,711,1527,1061,-1031,-579,-316,-14,158,-184
50875,1827,0,2023-03-01T18:59:43.253798,2172803,711,1527,1061,-1031,-579,-316,-14,158,-184
50876,1828,0,2023-03-01T18:59:43.259394,2172808,711,1527,1061,-1031,-579,-316,-16,168,-184
50877,1829,0,2023-03-01T18:59:43.264392,2172813,711,1527,1061,-1031,-579,-316,-16,168,-184
50878,1830,0,2023-03-01T18:59:43.268924,2172818,711,1527,1061,-1031,-579,-316,-16,168,-184
50879,1831,0,2023-03-01T18:59:43.273772,2172822,711,1527,1061,-1031,-579,-316,-16,168,-184
50880,1832,0,2023-03-01T18:59:43.279121,2172827,709,1528,1064,-1033,-574,-322,-16,168,-184
50881,1833,0,2023-03-01T18:59:43.284899,2172833,709,1528,1064,-1033,-574,-322,-16,168,-184
50882,1834,0,2023-03-01T18:59:43.290544,2172839,709,1528,1064,-1033,-574,-322,-16,168,-184
50883,1835,0,2023-03-01T18:59:43.298265,2172847,705,1528,1062,-1029,-576,-329,-16,168,-184
50884,1836,0,2023-03-01T18:59:43.303046,2172852,705,1528,1062,-1029,-576,-329,-16,168,-184
50885,1837,0,2023-03-01T18:59:43.307894,2172857,705,1528,1062,-1029,-576,-329,-16,168,-184
50886,1838,0,2023-03-01T18:59:43.313091,2172861,705,1528,1062,-1029,-576,-329,-16,168,-184
50887,1839,0,2023-03-01T18:59:43.318210,2172867,710,1528,1059,-1031,-573,-318,-16,168,-184
50888,1840,0,2023-03-01T18:59:43.323850,2172872,710,1528,1059,-1031,-573,-318,-16,168,-184
50889,1841,0,2023-03-01T18:59:43.328848,2172877,710,1528,1059,-1031,-573,-318,-16,168,-184
50890,1842,0,2023-03-01T18:59:43.333561,2172882,710,1528,1059,-1031,-573,-318,-16,168,-184
50891,1843,0,2023-03-01T18:59:43.338849,2172888,707,1527,1056,-1037,-579,-325,-16,168,-184
50892,1844,0,2023-03-01T18:59:43.344704,2172893,707,1527,1056,-1037,-579,-325,-16,168,-184
50893,1845,0,2023-03-01T18:59:43.350665,2172899,707,1527,1056,-1037,-579,-325,-16,168,-184
50894,1846,0,2023-03-01T18:59:43.356843,2172905,706,1529,1058,-1038,-581,-321,-16,168,-184
50895,1847,0,2023-03-01T18:59:43.362255,2172911,706,1529,1058,-1038,-581,-321,-16,168,-184
50896,1848,0,2023-03-01T18:59:43.367670,2172916,706,1529,1058,-1038,-581,-321,-16,168,-184
50897,1849,0,2023-03-01T18:59:43.372444,2172921,706,1529,1058,-1038,-581,-321,-16,168,-184
50898,1850,0,2023-03-01T18:59:43.377997,2172926,705,1528,1060,-1033,-575,-317,-16,168,-184
50899,1851,0,2023-03-01T18:59:43.384144,2172933,705,1528,1060,-1033,-575,-317,-16,168,-184
50900,1852,0,2023-03-01T18:59:43.389792,2172939,705,1528,1060,-1033,-575,-317,-16,168,-184
50901,1853,0,2023-03-01T18:59:43.395392,2172944,706,1525,1066,-1031,-567,-320,-21,167,-187
50902,1854,0,2023-03-01T18:59:43.400952,2172949,706,1525,1066,-1031,-567,-320,-21,167,-187
50903,1855,0,2023-03-01T18:59:43.407293,2172955,706,1525,1066,-1031,-567,-320,-21,167,-187
50904,1856,0,2023-03-01T18:59:43.412738,2172961,706,1525,1066,-1031,-567,-320,-21,167,-187
50905,1857,0,2023-03-01T18:59:43.418230,2172966,702,1529,1057,-1032,-566,-327,-21,167,-187
50906,1858,0,2023-03-01T18:59:43.424058,2172973,702,1529,1057,-1032,-566,-327,-21,167,-187
50907,1859,0,2023-03-01T18:59:43.430134,2172979,702,1529,1057,-1032,-566,-327,-21,167,-187
50908,1860,0,2023-03-01T18:59:43.435994,2172985,704,1531,1064,-1031,-574,-327,-21,167,-187
50909,1861,0,2023-03-01T18:59:43.441432,2172990,704,1531,1064,-1031,-574,-327,-21,167,-187
50910,1862,0,2023-03-01T18:59:43.446183,2172995,704,1531,1064,-1031,-574,-327,-21,167,-187
50911,1863,0,2023-03-01T18:59:43.451363,2173000,704,1531,1064,-1031,-574,-327,-21,167,-187
50912,1864,0,2023-03-01T18:59:43.456334,2173004,706,1531,1064,-1030,-576,-327,-21,167,-187
50913,1865,0,2023-03-01T18:59:43.462140,2173010,706,1531,1064,-1030,-576,-327,-21,167,-187
50914,1866,0,2023-03-01T18:59:43.467345,2173016,706,1531,1064,-1030,-576,-327,-21,167,-187
50915,1867,0,2023-03-01T18:59:43.473955,2173023,706,1531,1064,-1030,-576,-327,-21,167,-187
50916,1868,0,2023-03-01T18:59:43.479433,2173028,707,1527,1058,-1025,-570,-323,-21,167,-187
50917,1869,0,2023-03-01T18:59:43.485104,2173034,707,1527,1058,-1025,-570,-323,-21,167,-187
50918,1870,0,2023-03-01T18:59:43.489716,2173038,707,1527,1058,-1025,-570,-323,-21,167,-187
50919,1871,0,2023-03-01T18:59:43.495261,2173044,704,1530,1060,-1029,-574,-319,-21,167,-187
50920,1872,0,2023-03-01T18:59:43.500613,2173049,704,1530,1060,-1029,-574,-319,-21,167,-187
50921,1873,0,2023-03-01T18:59:43.505525,2173054,704,1530,1060,-1029,-574,-319,-21,167,-187
50922,1874,0,2023-03-01T18:59:43.510166,2173059,704,1530,1060,-1029,-574,-319,-21,167,-187
50923,1875,0,2023-03-01T18:59:43.516692,2173065,705,1528,1064,-1038,-572,-327,-16,168,-180
50924,1876,0,2023-03-01T18:59:43.522506,2173071,705,1528,1064,-1038,-572,-327,-16,168,-180
50925,1877,0,2023-03-01T18:59:43.527425,2173076,705,1528,1064,-1038,-572,-327,-16,168,-180
50926,1878,0,2023-03-01T18:59:43.532477,2173081,705,1528,1064,-1038,-572,-327,-16,168,-180
50927,1879,0,2023-03-01T18:59:43.541620,2173090,706,1528,1064,-1037,-571,-321,-16,168,-180
50928,1880,0,2023-03-01T18:59:43.547463,2173095,706,1528,1064,-1037,-571,-321,-16,168,-180
50929,1881,0,2023-03-01T18:59:43.553235,2173102,706,1528,1064,-1037,-571,-321,-16,168,-180
50930,1882,0,2023-03-01T18:59:43.559022,2173108,705,1530,1055,-1046,-570,-321,-16,168,-180
50931,1883,0,2023-03-01T18:59:43.564938,2173113,705,1530,1055,-1046,-570,-321,-16,168,-180
50932,1884,0,2023-03-01T18:59:43.571097,2173120,705,1530,1055,-1046,-570,-321,-16,168,-180
50933,1885,0,2023-03-01T18:59:43.576909,2173125,707,1532,1058,-1035,-572,-323,-16,168,-180
50934,1886,0,2023-03-01T18:59:43.582373,2173131,707,1532,1058,-1035,-572,-323,-16,168,-180
50935,1887,0,2023-03-01T18:59:43.587023,2173135,707,1532,1058,-1035,-572,-323,-16,168,-180
50936,1888,0,2023-03-01T18:59:43.592271,2173140,707,1532,1058,-1035,-572,-323,-16,168,-180
50937,1889,0,2023-03-01T18:59:43.598385,2173147,706,1528,1061,-1037,-573,-319,-16,168,-180
50938,1890,0,2023-03-01T18:59:43.604350,2173153,706,1528,1061,-1037,-573,-319,-16,168,-180
50939,1891,0,2023-03-01T18:59:43.609183,2173158,706,1528,1061,-1037,-573,-319,-16,168,-180
50940,1892,0,2023-03-01T18:59:43.614636,2173163,706,1528,1061,-1037,-573,-319,-16,168,-180
50941,1893,0,2023-03-01T18:59:43.619673,2173168,705,1528,1057,-1033,-578,-324,-16,168,-180
50942,1894,0,2023-03-01T18:59:43.625304,2173173,705,1528,1057,-1033,-578,-324,-16,168,-180
50943,1895,0,2023-03-01T18:59:43.631227,2173179,705,1528,1057,-1033,-578,-324,-16,168,-180
50944,1896,0,2023-03-01T18:59:43.636730,2173186,706,1526,1060,-1024,-571,-319,-21,163,-181
50945,1897,0,2023-03-01T18:59:43.641930,2173191,706,1526,1060,-1024,-571,-319,-21,163,-181
50946,1898,0,2023-03-01T18:59:43.646956,2173196,706,1526,1060,-1024,-571,-319,-21,163,-181
50947,1899,0,2023-03-01T18:59:43.651710,2173200,706,1526,1060,-1024,-571,-319,-21,163,-181
50948,1900,0,2023-03-01T18:59:43.657340,2173206,708,1528,1063,-1028,-569,-321,-21,163,-181
50949,1901,0,2023-03-01T18:59:43.663085,2173212,708,1528,1063,-1028,-569,-321,-21,163,-181
50950,1902,0,2023-03-01T18:59:43.667883,2173216,708,1528,1063,-1028,-569,-321,-21,163,-181
50951,1903,0,2023-03-01T18:59:43.672599,2173221,708,1528,1063,-1028,-569,-321,-21,163,-181
50952,1904,0,2023-03-01T18:59:43.678265,2173227,706,1530,1066,-1028,-569,-319,-21,163,-181
50953,1905,0,2023-03-01T18:59:43.684072,2173233,706,1530,1066,-1028,-569,-319,-21,163,-181
50954,1906,0,2023-03-01T18:59:43.689020,2173238,706,1530,1066,-1028,-569,-319,-21,163,-181
50955,1907,0,2023-03-01T18:59:43.693550,2173243,706,1530,1066,-1028,-569,-319,-21,163,-181
50956,1908,0,2023-03-01T18:59:43.698296,2173247,704,1532,1059,-1027,-568,-319,-21,163,-181
50957,1909,0,2023-03-01T18:59:43.703620,2173252,704,1532,1059,-1027,-568,-319,-21,163,-181
50958,1910,0,2023-03-01T18:59:43.709586,2173258,704,1532,1059,-1027,-568,-319,-21,163,-181
50959,1911,0,2023-03-01T18:59:43.715275,2173263,708,1527,1061,-1027,-573,-321,-21,163,-181
50960,1912,0,2023-03-01T18:59:43.721418,2173270,708,1527,1061,-1027,-573,-321,-21,163,-181
50961,1913,0,2023-03-01T18:59:43.726467,2173275,708,1527,1061,-1027,-573,-321,-21,163,-181
50962,1914,0,2023-03-01T18:59:43.731452,2173280,708,1527,1061,-1027,-573,-321,-21,163,-181
50963,1915,0,2023-03-01T18:59:43.737335,2173286,704,1528,1063,-1027,-575,-327,-21,163,-181
50964,1916,0,2023-03-01T18:59:43.743068,2173292,704,1528,1063,-1027,-575,-327,-21,163,-181
50965,1917,0,2023-03-01T18:59:43.748717,2173297,704,1528,1063,-1027,-575,-327,-21,163,-181
50966,1918,0,2023-03-01T18:59:43.754974,2173303,704,1528,1063,-1027,-575,-327,-21,163,-181
50967,1919,0,2023-03-01T18:59:43.760405,2173308,707,1524,1062,-1032,-578,-318,-21,163,-181
50968,1920,0,2023-03-01T18:59:43.766014,2173315,707,1524,1062,-1032,-578,-318,-21,163,-181
50969,1921,0,2023-03-01T18:59:43.771901,2173321,707,1524,1062,-1032,-578,-318,-21,163,-181
50970,1922,0,2023-03-01T18:59:43.777445,2173326,703,1530,1068,-1032,-575,-314,-19,161,-181
50971,1923,0,2023-03-01T18:59:43.783298,2173332,703,1530,1068,-1032,-575,-314,-19,161,-181
50972,1924,0,2023-03-01T18:59:43.788854,2173337,703,1530,1068,-1032,-575,-314,-19,161,-181
50973,1925,0,2023-03-01T18:59:43.795135,2173343,703,1530,1068,-1032,-575,-314,-19,161,-181
50974,1926,0,2023-03-01T18:59:43.800039,2173348,706,1529,1062,-1025,-577,-321,-19,161,-181
50975,1927,0,2023-03-01T18:59:43.806225,2173355,706,1529,1062,-1025,-577,-321,-19,161,-181
50976,1928,0,2023-03-01T18:59:43.811771,2173361,706,1529,1062,-1025,-577,-321,-19,161,-181
50977,1929,0,2023-03-01T18:59:43.818195,2173366,708,1527,1058,-1023,-569,-319,-19,161,-181
50978,1930,0,2023-03-01T18:59:43.824440,2173373,708,1527,1058,-1023,-569,-319,-19,161,-181
50979,1931,0,2023-03-01T18:59:43.829878,2173378,708,1527,1058,-1023,-569,-319,-19,161,-181
50980,1932,0,2023-03-01T18:59:43.835653,2173384,709,1529,1061,-1032,-572,-322,-19,161,-181
50981,1933,0,2023-03-01T18:59:43.841672,2173389,709,1529,1061,-1032,-572,-322,-19,161,-181
50982,1934,0,2023-03-01T18:59:43.847052,2173395,709,1529,1061,-1032,-572,-322,-19,161,-181
50983,1935,0,2023-03-01T18:59:43.852474,2173401,709,1529,1061,-1032,-572,-322,-19,161,-181
50984,1936,0,2023-03-01T18:59:43.858439,2173407,708,1525,1063,-1027,-572,-315,-19,161,-181
50985,1937,0,2023-03-01T18:59:43.864470,2173413,708,1525,1063,-1027,-572,-315,-19,161,-181
50986,1938,0,2023-03-01T18:59:43.870512,2173419,708,1525,1063,-1027,-572,-315,-19,161,-181
50987,1939,0,2023-03-01T18:59:43.876447,2173425,708,1528,1058,-1036,-582,-317,-19,161,-181
50988,1940,0,2023-03-01T18:59:43.882387,2173430,708,1528,1058,-1036,-582,-317,-19,161,-181
50989,1941,0,2023-03-01T18:59:43.889025,2173436,708,1528,1058,-1036,-582,-317,-19,161,-181
50990,1942,0,2023-03-01T18:59:43.895264,2173444,708,1528,1058,-1036,-582,-317,-19,161,-181
50991,1943,0,2023-03-01T18:59:43.900973,2173450,709,1528,1060,-1031,-571,-318,-20,172,-186
50992,1944,0,2023-03-01T18:59:43.906821,2173455,709,1528,1060,-1031,-571,-318,-20,172,-186
50993,1945,0,2023-03-01T18:59:43.912563,2173461,709,1528,1060,-1031,-571,-318,-20,172,-186
50994,1946,0,2023-03-01T18:59:43.918963,2173467,709,1529,1061,-1024,-571,-321,-20,172,-186
50995,1947,0,2023-03-01T18:59:43.923626,2173472,709,1529,1061,-1024,-571,-321,-20,172,-186
50996,1948,0,2023-03-01T18:59:43.929299,2173477,709,1529,1061,-1024,-571,-321,-20,172,-186
50997,1949,0,2023-03-01T18:59:43.935044,2173484,709,1529,1061,-1024,-571,-321,-20,172,-186
50998,1950,0,2023-03-01T18:59:43.940801,2173489,707,1531,1064,-1030,-572,-314,-20,172,-186
50999,1951,0,2023-03-01T18:59:43.946664,2173495,707,1531,1064,-1030,-572,-314,-20,172,-186
51000,1952,0,2023-03-01T18:59:43.951538,2173500,707,1531,1064,-1030,-572,-314,-20,172,-186
51001,1953,0,2023-03-01T18:59:43.957294,2173506,706,1526,1066,-1033,-575,-323,-20,172,-186
51002,1954,0,2023-03-01T18:59:43.963450,2173512,706,1526,1066,-1033,-575,-323,-20,172,-186
51003,1955,0,2023-03-01T18:59:43.969111,2173517,706,1526,1066,-1033,-575,-323,-20,172,-186
51004,1956,0,2023-03-01T18:59:43.974821,2173523,706,1526,1066,-1033,-575,-323,-20,172,-186
51005,1957,0,2023-03-01T18:59:43.979625,2173529,708,1530,1060,-1029,-572,-320,-20,172,-186
51006,1958,0,2023-03-01T18:59:43.984391,2173533,708,1530,1060,-1029,-572,-320,-20,172,-186
51007,1959,0,2023-03-01T18:59:43.989765,2173538,708,1530,1060,-1029,-572,-320,-20,172,-186
51008,1960,0,2023-03-01T18:59:43.995591,2173544,708,1530,1060,-1029,-572,-320,-20,172,-186
51009,1961,0,2023-03-01T18:59:44.001024,2173550,706,1527,1056,-1035,-561,-323,-20,172,-186
51010,1962,0,2023-03-01T18:59:44.006635,2173555,706,1527,1056,-1035,-561,-323,-20,172,-186
51011,1963,0,2023-03-01T18:59:44.011491,2173560,706,1527,1056,-1035,-561,-323,-20,172,-186
51012,1964,0,2023-03-01T18:59:44.017350,2173565,709,1528,1060,-1031,-573,-318,-20,172,-186
51013,1965,0,2023-03-01T18:59:44.023563,2173572,709,1528,1060,-1031,-573,-318,-20,172,-186
51014,1966,0,2023-03-01T18:59:44.028631,2173577,709,1528,1060,-1031,-573,-318,-20,172,-186
51015,1967,0,2023-03-01T18:59:44.033530,2173582,709,1528,1060,-1031,-573,-318,-20,172,-186
51016,1968,0,2023-03-01T18:59:44.039477,2173588,704,1528,1065,-1021,-571,-318,-20,170,-186
51017,1969,0,2023-03-01T18:59:44.045480,2173593,704,1528,1065,-1021,-571,-318,-20,170,-186
51018,1970,0,2023-03-01T18:59:44.051868,2173600,704,1528,1065,-1021,-571,-318,-20,170,-186
51019,1971,0,2023-03-01T18:59:44.058015,2173606,706,1530,1067,-1023,-572,-325,-20,170,-186
51020,1972,0,2023-03-01T18:59:44.063791,2173613,706,1530,1067,-1023,-572,-325,-20,170,-186
51021,1973,0,2023-03-01T18:59:44.068900,2173618,706,1530,1067,-1023,-572,-325,-20,170,-186
51022,1974,0,2023-03-01T18:59:44.074149,2173623,706,1530,1067,-1023,-572,-325,-20,170,-186
51023,1975,0,2023-03-01T18:59:44.079310,2173628,710,1525,1060,-1029,-570,-322,-20,170,-186
51024,1976,0,2023-03-01T18:59:44.085441,2173634,710,1525,1060,-1029,-570,-322,-20,170,-186
51025,1977,0,2023-03-01T18:59:44.091463,2173640,710,1525,1060,-1029,-570,-322,-20,170,-186
51026,1978,0,2023-03-01T18:59:44.097088,2173645,707,1527,1057,-1035,-566,-311,-20,170,-186
51027,1979,0,2023-03-01T18:59:44.102455,2173650,707,1527,1057,-1035,-566,-311,-20,170,-186
51028,1980,0,2023-03-01T18:59:44.107625,2173656,707,1527,1057,-1035,-566,-311,-20,170,-186
51029,1981,0,2023-03-01T18:59:44.113668,2173662,707,1527,1057,-1035,-566,-311,-20,170,-186
51030,1982,0,2023-03-01T18:59:44.118514,2173667,703,1527,1061,-1029,-573,-317,-20,170,-186
51031,1983,0,2023-03-01T18:59:44.123718,2173672,703,1527,1061,-1029,-573,-317,-20,170,-186
51032,1984,0,2023-03-01T18:59:44.129445,2173678,703,1527,1061,-1029,-573,-317,-20,170,-186
51033,1985,0,2023-03-01T18:59:44.134686,2173683,703,1527,1061,-1029,-573,-317,-20,170,-186
51034,1986,0,2023-03-01T18:59:44.140338,2173688,707,1528,1058,-1026,-579,-330,-20,170,-186
51035,1987,0,2023-03-01T18:59:44.145196,2173693,707,1528,1058,-1026,-579,-330,-20,170,-186
51036,1988,0,2023-03-01T18:59:44.150721,2173700,707,1528,1058,-1026,-579,-330,-20,170,-186
51037,1989,0,2023-03-01T18:59:44.156720,2173705,707,1527,1064,-1025,-578,-318,-19,161,-187
51038,1990,0,2023-03-01T18:59:44.163129,2173711,707,1527,1064,-1025,-578,-318,-19,161,-187
51039,1991,0,2023-03-01T18:59:44.168257,2173717,707,1527,1064,-1025,-578,-318,-19,161,-187
51040,1992,0,2023-03-01T18:59:44.173741,2173722,707,1527,1064,-1025,-578,-318,-19,161,-187
51041,1993,0,2023-03-01T18:59:44.180007,2173728,708,1525,1060,-1022,-567,-315,-19,161,-187
51042,1994,0,2023-03-01T18:59:44.185496,2173734,708,1525,1060,-1022,-567,-315,-19,161,-187
51043,1995,0,2023-03-01T18:59:44.190264,2173739,708,1525,1060,-1022,-567,-315,-19,161,-187
51044,1996,0,2023-03-01T18:59:44.196213,2173745,709,1527,1060,-1025,-561,-317,-19,161,-187
51045,1997,0,2023-03-01T18:59:44.202048,2173751,709,1527,1060,-1025,-561,-317,-19,161,-187
51046,1998,0,2023-03-01T18:59:44.206870,2173756,709,1527,1060,-1025,-561,-317,-19,161,-187
51047,1999,0,2023-03-01T18:59:44.211367,2173760,709,1527,1060,-1025,-561,-317,-19,161,-187
51048,2000,0,2023-03-01T18:59:44.216390,2173765,708,1533,1056,-1031,-571,-316,-19,161,-187
51049,2001,0,2023-03-01T18:59:44.222364,2173770,708,1533,1056,-1031,-571,-316,-19,161,-187
51050,2002,0,2023-03-01T18:59:44.227460,2173775,708,1533,1056,-1031,-571,-316,-19,161,-187
51051,2003,0,2023-03-01T18:59:44.233172,2173782,708,1533,1056,-1031,-571,-316,-19,161,-187
51052,2004,0,2023-03-01T18:59:44.238376,2173787,706,1530,1059,-1029,-578,-327,-19,161,-187
51053,2005,0,2023-03-01T18:59:44.243695,2173793,706,1530,1059,-1029,-578,-327,-19,161,-187
51054,2006,0,2023-03-01T18:59:44.249084,2173798,706,1530,1059,-1029,-578,-327,-19,161,-187
51055,2007,0,2023-03-01T18:59:44.254769,2173803,706,1530,1059,-1029,-578,-327,-19,161,-187
51056,2008,0,2023-03-01T18:59:44.259355,2173808,705,1527,1058,-1031,-575,-327,-19,161,-187
51057,2009,0,2023-03-01T18:59:44.264957,2173813,705,1527,1058,-1031,-575,-327,-19,161,-187
51058,2010,0,2023-03-01T18:59:44.270435,2173819,705,1527,1058,-1031,-575,-327,-19,161,-187
51059,2011,0,2023-03-01T18:59:44.276307,2173825,707,1527,1062,-1033,-577,-318,-19,161,-187
51060,2012,0,2023-03-01T18:59:44.282070,2173831,707,1527,1062,-1033,-577,-318,-19,161,-187
51061,2013,0,2023-03-01T18:59:44.288345,2173836,707,1527,1062,-1033,-577,-318,-19,161,-187
51062,2014,0,2023-03-01T18:59:44.294124,2173843,707,1527,1062,-1033,-577,-318,-19,161,-187
51063,2015,0,2023-03-01T18:59:44.300095,2173848,708,1526,1064,-1028,-568,-318,-23,165,-189
51064,2016,0,2023-03-01T18:59:44.305769,2173854,708,1526,1064,-1028,-568,-318,-23,165,-189
51065,2017,0,2023-03-01T18:59:44.311553,2173860,708,1526,1064,-1028,-568,-318,-23,165,-189
51066,2018,0,2023-03-01T18:59:44.317425,2173865,706,1529,1064,-1026,-576,-316,-23,165,-189
51067,2019,0,2023-03-01T18:59:44.323144,2173872,706,1529,1064,-1026,-576,-316,-23,165,-189
51068,2020,0,2023-03-01T18:59:44.328165,2173877,706,1529,1064,-1026,-576,-316,-23,165,-189
51069,2021,0,2023-03-01T18:59:44.333258,2173882,706,1529,1064,-1026,-576,-316,-23,165,-189
51070,2022,0,2023-03-01T18:59:44.339102,2173888,706,1530,1063,-1033,-574,-317,-23,165,-189
51071,2023,0,2023-03-01T18:59:44.345279,2173894,706,1530,1063,-1033,-574,-317,-23,165,-189
51072,2024,0,2023-03-01T18:59:44.350819,2173899,706,1530,1063,-1033,-574,-317,-23,165,-189
51073,2025,0,2023-03-01T18:59:44.356292,2173905,703,1527,1061,-1040,-578,-321,-23,165,-189
51074,2026,0,2023-03-01T18:59:44.361922,2173911,703,1527,1061,-1040,-578,-321,-23,165,-189
51075,2027,0,2023-03-01T18:59:44.367400,2173916,703,1527,1061,-1040,-578,-321,-23,165,-189
51076,2028,0,2023-03-01T18:59:44.373270,2173922,703,1527,1061,-1040,-578,-321,-23,165,-189
51077,2029,0,2023-03-01T18:59:44.379341,2173928,704,1530,1060,-1032,-577,-322,-23,165,-189
51078,2030,0,2023-03-01T18:59:44.385439,2173934,704,1530,1060,-1032,-577,-322,-23,165,-189
51079,2031,0,2023-03-01T18:59:44.392044,2173940,704,1530,1060,-1032,-577,-322,-23,165,-189
51080,2032,0,2023-03-01T18:59:44.398514,2173946,706,1528,1057,-1033,-566,-321,-23,165,-189
51081,2033,0,2023-03-01T18:59:44.404508,2173954,706,1528,1057,-1033,-566,-321,-23,165,-189
51082,2034,0,2023-03-01T18:59:44.410086,2173959,706,1528,1057,-1033,-566,-321,-23,165,-189
51083,2035,0,2023-03-01T18:59:44.415977,2173965,706,1528,1057,-1033,-566,-321,-23,165,-189
51084,2036,0,2023-03-01T18:59:44.421217,2173970,703,1528,1067,-1036,-569,-323,-19,169,-185
51085,2037,0,2023-03-01T18:59:44.427559,2173976,703,1528,1067,-1036,-569,-323,-19,169,-185
51086,2038,0,2023-03-01T18:59:44.433373,2173982,703,1528,1067,-1036,-569,-323,-19,169,-185
51087,2039,0,2023-03-01T18:59:44.438760,2173987,709,1527,1066,-1030,-575,-320,-19,169,-185
51088,2040,0,2023-03-01T18:59:44.444888,2173993,709,1527,1066,-1030,-575,-320,-19,169,-185
51089,2041,0,2023-03-01T18:59:44.450458,2174000,709,1527,1066,-1030,-575,-320,-19,169,-185
51090,2042,0,2023-03-01T18:59:44.455865,2174005,709,1527,1066,-1030,-575,-320,-19,169,-185
51091,2043,0,2023-03-01T18:59:44.460697,2174010,708,1529,1060,-1038,-578,-326,-19,169,-185
51092,2044,0,2023-03-01T18:59:44.466028,2174015,708,1529,1060,-1038,-578,-326,-19,169,-185
51093,2045,0,2023-03-01T18:59:44.470842,2174019,708,1529,1060,-1038,-578,-326,-19,169,-185
51094,2046,0,2023-03-01T18:59:44.476569,2174025,706,1529,1064,-1027,-578,-319,-19,169,-185
51095,2047,0,2023-03-01T18:59:44.482677,2174031,706,1529,1064,-1027,-578,-319,-19,169,-185
51096,2048,0,2023-03-01T18:59:44.487480,2174036,706,1529,1064,-1027,-578,-319,-19,169,-185
51097,2049,0,2023-03-01T18:59:44.492470,2174041,706,1529,1064,-1027,-578,-319,-19,169,-185
51098,2050,0,2023-03-01T18:59:44.498787,2174047,706,1526,1059,-1030,-569,-322,-19,169,-185
51099,2051,0,2023-03-01T18:59:44.506371,2174055,706,1526,1059,-1030,-569,-322,-19,169,-185
51100,2052,0,2023-03-01T18:59:44.511978,2174061,706,1526,1059,-1030,-569,-322,-19,169,-185
51101,2053,0,2023-03-01T18:59:44.517296,2174066,706,1531,1059,-1039,-570,-322,-19,169,-185
51102,2054,0,2023-03-01T18:59:44.522529,2174071,706,1531,1059,-1039,-570,-322,-19,169,-185
51103,2055,0,2023-03-01T18:59:44.527705,2174076,706,1531,1059,-1039,-570,-322,-19,169,-185
51104,2056,0,2023-03-01T18:59:44.533112,2174082,706,1531,1059,-1039,-570,-322,-19,169,-185
51105,2057,0,2023-03-01T18:59:44.538874,2174088,707,1529,1064,-1028,-567,-319,-28,158,-186
51106,2058,0,2023-03-01T18:59:44.544104,2174093,707,1529,1064,-1028,-567,-319,-28,158,-186
51107,2059,0,2023-03-01T18:59:44.548928,2174098,707,1529,1064,-1028,-567,-319,-28,158,-186
51108,2060,0,2023-03-01T18:59:44.554641,2174103,707,1529,1064,-1028,-567,-319,-28,158,-186
51109,2061,0,2023-03-01T18:59:44.560059,2174108,706,1529,1062,-1029,-568,-322,-28,158,-186
51110,2062,0,2023-03-01T18:59:44.565817,2174114,706,1529,1062,-1029,-568,-322,-28,158,-186
51111,2063,0,2023-03-01T18:59:44.571310,2174120,706,1529,1062,-1029,-568,-322,-28,158,-186
51112,2064,0,2023-03-01T18:59:44.576955,2174126,707,1529,1067,-1026,-574,-324,-28,158,-186
51113,2065,0,2023-03-01T18:59:44.582582,2174132,707,1529,1067,-1026,-574,-324,-28,158,-186
51114,2066,0,2023-03-01T18:59:44.587611,2174136,707,1529,1067,-1026,-574,-324,-28,158,-186
51115,2067,0,2023-03-01T18:59:44.593918,2174142,707,1529,1067,-1026,-574,-324,-28,158,-186
51116,2068,0,2023-03-01T18:59:44.599622,2174148,707,1525,1054,-1029,-573,-331,-28,158,-186
51117,2069,0,2023-03-01T18:59:44.604893,2174153,707,1525,1054,-1029,-573,-331,-28,158,-186
51118,2070,0,2023-03-01T18:59:44.610300,2174158,707,1525,1054,-1029,-573,-331,-28,158,-186
51119,2071,0,2023-03-01T18:59:44.616653,2174166,706,1528,1059,-1035,-571,-320,-28,158,-186
51120,2072,0,2023-03-01T18:59:44.621960,2174171,706,1528,1059,-1035,-571,-320,-28,158,-186
51121,2073,0,2023-03-01T18:59:44.626469,2174175,706,1528,1059,-1035,-571,-320,-28,158,-186
51122,2074,0,2023-03-01T18:59:44.632246,2174181,706,1528,1059,-1035,-571,-320,-28,158,-186
51123,2075,0,2023-03-01T18:59:44.637835,2174186,708,1529,1060,-1037,-571,-318,-28,158,-186
51124,2076,0,2023-03-01T18:59:44.643209,2174192,708,1529,1060,-1037,-571,-318,-28,158,-186
51125,2077,0,2023-03-01T18:59:44.648451,2174197,708,1529,1060,-1037,-571,-318,-28,158,-186
51126,2078,0,2023-03-01T18:59:44.653161,2174201,708,1529,1060,-1037,-571,-318,-28,158,-186
51127,2079,0,2023-03-01T18:59:44.658398,2174208,708,1528,1062,-1027,-576,-319,-28,158,-186
51128,2080,0,2023-03-01T18:59:44.663828,2174213,708,1528,1062,-1027,-576,-319,-28,158,-186
51129,2081,0,2023-03-01T18:59:44.668400,2174217,708,1528,1062,-1027,-576,-319,-28,158,-186
51130,2082,0,2023-03-01T18:59:44.673546,2174222,708,1528,1062,-1027,-576,-319,-28,158,-186
51131,2083,0,2023-03-01T18:59:44.679556,2174228,706,1526,1064,-1038,-574,-318,-19,165,-183
51132,2084,0,2023-03-01T18:59:44.685041,2174234,706,1526,1064,-1038,-574,-318,-19,165,-183
51133,2085,0,2023-03-01T18:59:44.690372,2174239,706,1526,1064,-1038,-574,-318,-19,165,-183
51134,2086,0,2023-03-01T18:59:44.696211,2174244,706,1526,1064,-1038,-574,-318,-19,165,-183
51135,2087,0,2023-03-01T18:59:44.701084,2174249,706,1527,1063,-1041,-568,-322,-19,165,-183
51136,2088,0,2023-03-01T18:59:44.706525,2174256,706,1527,1063,-1041,-568,-322,-19,165,-183
51137,2089,0,2023-03-01T18:59:44.712349,2174261,706,1527,1063,-1041,-568,-322,-19,165,-183
51138,2090,0,2023-03-01T18:59:44.717953,2174266,706,1527,1060,-1026,-569,-320,-19,165,-183
51139,2091,0,2023-03-01T18:59:44.724284,2174273,706,1527,1060,-1026,-569,-320,-19,165,-183
51140,2092,0,2023-03-01T18:59:44.729162,2174278,706,1527,1060,-1026,-569,-320,-19,165,-183
51141,2093,0,2023-03-01T18:59:44.734274,2174283,706,1527,1060,-1026,-569,-320,-19,165,-183
51142,2094,0,2023-03-01T18:59:44.739072,2174287,708,1527,1061,-1035,-572,-322,-19,165,-183
51143,2095,0,2023-03-01T18:59:44.744376,2174294,708,1527,1061,-1035,-572,-322,-19,165,-183
51144,2096,0,2023-03-01T18:59:44.750085,2174299,708,1527,1061,-1035,-572,-322,-19,165,-183
51145,2097,0,2023-03-01T18:59:44.755585,2174304,708,1527,1061,-1035,-572,-322,-19,165,-183
51146,2098,0,2023-03-01T18:59:44.760417,2174309,707,1528,1061,-1029,-569,-317,-19,165,-183
51147,2099,0,2023-03-01T18:59:44.765641,2174314,707,1528,1061,-1029,-569,-317,-19,165,-183
51148,2100,0,2023-03-01T18:59:44.770350,2174319,707,1528,1061,-1029,-569,-317,-19,165,-183
51149,2101,0,2023-03-01T18:59:44.775991,2174324,707,1528,1061,-1029,-569,-317,-19,165,-183
51150,2102,0,2023-03-01T18:59:44.780794,2174329,707,1529,1063,-1027,-573,-322,-19,165,-183
51151,2103,0,2023-03-01T18:59:44.786117,2174334,707,1529,1063,-1027,-573,-322,-19,165,-183
51152,2104,0,2023-03-01T18:59:44.791885,2174341,707,1529,1063,-1027,-573,-322,-19,165,-183
51153,2105,0,2023-03-01T18:59:44.797236,2174346,704,1530,1059,-1028,-572,-318,-24,168,-188
51154,2106,0,2023-03-01T18:59:44.802366,2174351,704,1530,1059,-1028,-572,-318,-24,168,-188
51155,2107,0,2023-03-01T18:59:44.807641,2174356,704,1530,1059,-1028,-572,-318,-24,168,-188
51156,2108,0,2023-03-01T18:59:44.813515,2174362,704,1530,1059,-1028,-572,-318,-24,168,-188
51157,2109,0,2023-03-01T18:59:44.819377,2174368,707,1528,1069,-1027,-575,-320,-24,168,-188
51158,2110,0,2023-03-01T18:59:44.825659,2174373,707,1528,1069,-1027,-575,-320,-24,168,-188
51159,2111,0,2023-03-01T18:59:44.831217,2174380,707,1528,1069,-1027,-575,-320,-24,168,-188
51160,2112,0,2023-03-01T18:59:44.837135,2174386,706,1528,1063,-1034,-576,-328,-24,168,-188
51161,2113,0,2023-03-01T18:59:44.842693,2174391,706,1528,1063,-1034,-576,-328,-24,168,-188
51162,2114,0,2023-03-01T18:59:44.847544,2174396,706,1528,1063,-1034,-576,-328,-24,168,-188
51163,2115,0,2023-03-01T18:59:44.853177,2174402,706,1528,1063,-1034,-576,-328,-24,168,-188
51164,2116,0,2023-03-01T18:59:44.858624,2174407,705,1529,1058,-1029,-573,-324,-24,168,-188
51165,2117,0,2023-03-01T18:59:44.864850,2174413,705,1529,1058,-1029,-573,-324,-24,168,-188
51166,2118,0,2023-03-01T18:59:44.870084,2174418,705,1529,1058,-1029,-573,-324,-24,168,-188
51167,2119,0,2023-03-01T18:59:44.876110,2174425,705,1529,1058,-1029,-573,-324,-24,168,-188
51168,2120,0,2023-03-01T18:59:44.881183,2174430,706,1525,1064,-1032,-571,-325,-24,168,-188
51169,2121,0,2023-03-01T18:59:44.886892,2174435,706,1525,1064,-1032,-571,-325,-24,168,-188
51170,2122,0,2023-03-01T18:59:44.891695,2174441,706,1525,1064,-1032,-571,-325,-24,168,-188
51171,2123,0,2023-03-01T18:59:44.896793,2174445,706,1529,1060,-1030,-579,-314,-24,168,-188
51172,2124,0,2023-03-01T18:59:44.902889,2174451,706,1529,1060,-1030,-579,-314,-24,168,-188
51173,2125,0,2023-03-01T18:59:44.907848,2174456,706,1529,1060,-1030,-579,-314,-24,168,-188
51174,2126,0,2023-03-01T18:59:44.912927,2174461,706,1529,1060,-1030,-579,-314,-24,168,-188
51175,2127,0,2023-03-01T18:59:44.919190,2174467,706,1524,1060,-1023,-573,-316,-24,168,-188
51176,2128,0,2023-03-01T18:59:44.925763,2174474,706,1524,1060,-1023,-573,-316,-24,168,-188
51177,2129,0,2023-03-01T18:59:44.931366,2174480,706,1524,1060,-1023,-573,-316,-24,168,-188
51178,2130,0,2023-03-01T18:59:44.937616,2174486,708,1526,1068,-1033,-569,-316,-26,164,-184
51179,2131,0,2023-03-01T18:59:44.943863,2174492,708,1526,1068,-1033,-569,-316,-26,164,-184
51180,2132,0,2023-03-01T18:59:44.949124,2174497,708,1526,1068,-1033,-569,-316,-26,164,-184
51181,2133,0,2023-03-01T18:59:44.955351,2174503,708,1526,1068,-1033,-569,-316,-26,164,-184
51182,2134,0,2023-03-01T18:59:44.960485,2174509,703,1526,1066,-1036,-574,-312,-26,164,-184
51183,2135,0,2023-03-01T18:59:44.966009,2174515,703,1526,1066,-1036,-574,-312,-26,164,-184
51184,2136,0,2023-03-01T18:59:44.970480,2174520,703,1526,1066,-1036,-574,-312,-26,164,-184
51185,2137,0,2023-03-01T18:59:44.976248,2174525,703,1526,1066,-1036,-574,-312,-26,164,-184
51186,2138,0,2023-03-01T18:59:44.981219,2174530,705,1529,1068,-1031,-573,-317,-26,164,-184
51187,2139,0,2023-03-01T18:59:44.986990,2174536,705,1529,1068,-1031,-573,-317,-26,164,-184
51188,2140,0,2023-03-01T18:59:44.991840,2174540,705,1529,1068,-1031,-573,-317,-26,164,-184
51189,2141,0,2023-03-01T18:59:44.997677,2174545,707,1528,1061,-1033,-578,-319,-26,164,-184
51190,2142,0,2023-03-01T18:59:45.004107,2174553,707,1528,1061,-1033,-578,-319,-26,164,-184
51191,2143,0,2023-03-01T18:59:45.009132,2174558,707,1528,1061,-1033,-578,-319,-26,164,-184
51192,2144,0,2023-03-01T18:59:45.014041,2174563,707,1528,1061,-1033,-578,-319,-26,164,-184
51193,2145,0,2023-03-01T18:59:45.019023,2174568,704,1528,1059,-1028,-575,-323,-26,164,-184
51194,2146,0,2023-03-01T18:59:45.025344,2174574,704,1528,1059,-1028,-575,-323,-26,164,-184
51195,2147,0,2023-03-01T18:59:45.030468,2174579,704,1528,1059,-1028,-575,-323,-26,164,-184
51196,2148,0,2023-03-01T18:59:45.036455,2174585,704,1528,1059,-1028,-575,-323,-26,164,-184
51197,2149,0,2023-03-01T18:59:45.041691,2174589,703,1524,1060,-1034,-576,-322,-26,164,-184
51198,2150,0,2023-03-01T18:59:45.047902,2174597,703,1524,1060,-1034,-576,-322,-26,164,-184
51199,2151,0,2023-03-01T18:59:45.053055,2174602,703,1524,1060,-1034,-576,-322,-26,164,-184
51200,2152,0,2023-03-01T18:59:45.059173,2174608,704,1530,1061,-1034,-566,-322,-20,172,-184
51201,2153,0,2023-03-01T18:59:45.065008,2174614,704,1530,1061,-1034,-566,-322,-20,172,-184
51202,2154,0,2023-03-01T18:59:45.070686,2174619,704,1530,1061,-1034,-566,-322,-20,172,-184
51203,2155,0,2023-03-01T18:59:45.076141,2174625,704,1530,1061,-1034,-566,-322,-20,172,-184
51204,2156,0,2023-03-01T18:59:45.081162,2174629,705,1531,1060,-1033,-576,-320,-20,172,-184
51205,2157,0,2023-03-01T18:59:45.086683,2174636,705,1531,1060,-1033,-576,-320,-20,172,-184
51206,2158,0,2023-03-01T18:59:45.092594,2174641,705,1531,1060,-1033,-576,-320,-20,172,-184
51207,2159,0,2023-03-01T18:59:45.098321,2174647,703,1526,1057,-1035,-575,-318,-20,172,-184
51208,2160,0,2023-03-01T18:59:45.103679,2174652,703,1526,1057,-1035,-575,-318,-20,172,-184
51209,2161,0,2023-03-01T18:59:45.108760,2174657,703,1526,1057,-1035,-575,-318,-20,172,-184
51210,2162,0,2023-03-01T18:59:45.113749,2174662,703,1526,1057,-1035,-575,-318,-20,172,-184
51211,2163,0,2023-03-01T18:59:45.119050,2174668,707,1526,1064,-1033,-574,-318,-20,172,-184
51212,2164,0,2023-03-01T18:59:45.124459,2174673,707,1526,1064,-1033,-574,-318,-20,172,-184
51213,2165,0,2023-03-01T18:59:45.130031,2174679,707,1526,1064,-1033,-574,-318,-20,172,-184
51214,2166,0,2023-03-01T18:59:45.135449,2174685,707,1526,1064,-1033,-574,-318,-20,172,-184
51215,2167,0,2023-03-01T18:59:45.140197,2174689,705,1526,1060,-1031,-562,-324,-20,172,-184
51216,2168,0,2023-03-01T18:59:45.145725,2174694,705,1526,1060,-1031,-562,-324,-20,172,-184
51217,2169,0,2023-03-01T18:59:45.150911,2174699,705,1526,1060,-1031,-562,-324,-20,172,-184
51218,2170,0,2023-03-01T18:59:45.156773,2174705,705,1526,1060,-1031,-562,-324,-20,172,-184
51219,2171,0,2023-03-01T18:59:45.161495,2174710,708,1528,1055,-1035,-568,-325,-20,172,-184
51220,2172,0,2023-03-01T18:59:45.167313,2174715,708,1528,1055,-1035,-568,-325,-20,172,-184
51221,2173,0,2023-03-01T18:59:45.171995,2174721,708,1528,1055,-1035,-568,-325,-20,172,-184
51222,2174,0,2023-03-01T18:59:45.177881,2174727,706,1526,1057,-1026,-574,-328,-20,172,-184
51223,2175,0,2023-03-01T18:59:45.183326,2174732,706,1526,1057,-1026,-574,-328,-20,172,-184
51224,2176,0,2023-03-01T18:59:45.188173,2174737,706,1526,1057,-1026,-574,-328,-20,172,-184
51225,2177,0,2023-03-01T18:59:45.192686,2174741,706,1526,1057,-1026,-574,-328,-20,172,-184
51226,2178,0,2023-03-01T18:59:45.198482,2174747,702,1531,1059,-1027,-565,-330,-17,155,-187
51227,2179,0,2023-03-01T18:59:45.203318,2174752,702,1531,1059,-1027,-565,-330,-17,155,-187
51228,2180,0,2023-03-01T18:59:45.208060,2174756,702,1531,1059,-1027,-565,-330,-17,155,-187
51229,2181,0,2023-03-01T18:59:45.212876,2174761,702,1531,1059,-1027,-565,-330,-17,155,-187
51230,2182,0,2023-03-01T18:59:45.218671,2174768,704,1530,1063,-1031,-570,-321,-17,155,-187
51231,2183,0,2023-03-01T18:59:45.224335,2174773,704,1530,1063,-1031,-570,-321,-17,155,-187
51232,2184,0,2023-03-01T18:59:45.229575,2174778,704,1530,1063,-1031,-570,-321,-17,155,-187
51233,2185,0,2023-03-01T18:59:45.234951,2174784,704,1530,1063,-1031,-570,-321,-17,155,-187
51234,2186,0,2023-03-01T18:59:45.239975,2174788,705,1528,1058,-1034,-567,-321,-17,155,-187
51235,2187,0,2023-03-01T18:59:45.245512,2174794,705,1528,1058,-1034,-567,-321,-17,155,-187
51236,2188,0,2023-03-01T18:59:45.251519,2174800,705,1528,1058,-1034,-567,-321,-17,155,-187
51237,2189,0,2023-03-01T18:59:45.257199,2174806,701,1529,1064,-1029,-564,-323,-17,155,-187
51238,2190,0,2023-03-01T18:59:45.263911,2174813,701,1529,1064,-1029,-564,-323,-17,155,-187
51239,2191,0,2023-03-01T18:59:45.269096,2174818,701,1529,1064,-1029,-564,-323,-17,155,-187
51240,2192,0,2023-03-01T18:59:45.274961,2174824,701,1529,1064,-1029,-564,-323,-17,155,-187
51241,2193,0,2023-03-01T18:59:45.280086,2174829,706,1530,1059,-1027,-575,-323,-17,155,-187
51242,2194,0,2023-03-01T18:59:45.285982,2174834,706,1530,1059,-1027,-575,-323,-17,155,-187
51243,2195,0,2023-03-01T18:59:45.291342,2174840,706,1530,1059,-1027,-575,-323,-17,155,-187
51244,2196,0,2023-03-01T18:59:45.297058,2174845,706,1530,1059,-1027,-575,-323,-17,155,-187
51245,2197,0,2023-03-01T18:59:45.302166,2174851,705,1530,1058,-1027,-573,-326,-17,155,-187
51246,2198,0,2023-03-01T18:59:45.307424,2174856,705,1530,1058,-1027,-573,-326,-17,155,-187
51247,2199,0,2023-03-01T18:59:45.312907,2174862,705,1530,1058,-1027,-573,-326,-17,155,-187
51248,2200,0,2023-03-01T18:59:45.319318,2174867,708,1530,1063,-1027,-570,-321,-27,165,-191
51249,2201,0,2023-03-01T18:59:45.325202,2174873,708,1530,1063,-1027,-570,-321,-27,165,-191
51250,2202,0,2023-03-01T18:59:45.330701,2174879,708,1530,1063,-1027,-570,-321,-27,165,-191
51251,2203,0,2023-03-01T18:59:45.336888,2174884,708,1530,1063,-1027,-570,-321,-27,165,-191
51252,2204,0,2023-03-01T18:59:45.342049,2174891,705,1529,1062,-1035,-573,-318,-27,165,-191
51253,2205,0,2023-03-01T18:59:45.347477,2174897,705,1529,1062,-1035,-573,-318,-27,165,-191
51254,2206,0,2023-03-01T18:59:45.353154,2174902,705,1529,1062,-1035,-573,-318,-27,165,-191
51255,2207,0,2023-03-01T18:59:45.359217,2174908,706,1532,1059,-1035,-578,-319,-27,165,-191
51256,2208,0,2023-03-01T18:59:45.364868,2174913,706,1532,1059,-1035,-578,-319,-27,165,-191
51257,2209,0,2023-03-01T18:59:45.370501,2174919,706,1532,1059,-1035,-578,-319,-27,165,-191
51258,2210,0,2023-03-01T18:59:45.376179,2174925,706,1532,1059,-1035,-578,-319,-27,165,-191
51259,2211,0,2023-03-01T18:59:45.381434,2174930,707,1528,1064,-1031,-577,-320,-27,165,-191
51260,2212,0,2023-03-01T18:59:45.387939,2174936,707,1528,1064,-1031,-577,-320,-27,165,-191
51261,2213,0,2023-03-01T18:59:45.393256,2174942,707,1528,1064,-1031,-577,-320,-27,165,-191
51262,2214,0,2023-03-01T18:59:45.399086,2174948,708,1529,1059,-1032,-573,-316,-27,165,-191
51263,2215,0,2023-03-01T18:59:45.404497,2174953,708,1529,1059,-1032,-573,-316,-27,165,-191
51264,2216,0,2023-03-01T18:59:45.409499,2174958,708,1529,1059,-1032,-573,-316,-27,165,-191
51265,2217,0,2023-03-01T18:59:45.415256,2174963,708,1529,1059,-1032,-573,-316,-27,165,-191
51266,2218,0,2023-03-01T18:59:45.420322,2174969,707,1531,1056,-1032,-573,-325,-27,165,-191
51267,2219,0,2023-03-01T18:59:45.425881,2174974,707,1531,1056,-1032,-573,-325,-27,165,-191
51268,2220,0,2023-03-01T18:59:45.431310,2174980,707,1531,1056,-1032,-573,-325,-27,165,-191
51269,2221,0,2023-03-01T18:59:45.436936,2174986,707,1531,1056,-1032,-573,-325,-27,165,-191
51270,2222,0,2023-03-01T18:59:45.441946,2174991,705,1527,1063,-1039,-569,-324,-24,162,-186
51271,2223,0,2023-03-01T18:59:45.448010,2174996,705,1527,1063,-1039,-569,-324,-24,162,-186
51272,2224,0,2023-03-01T18:59:45.453760,2175002,705,1527,1063,-1039,-569,-324,-24,162,-186
51273,2225,0,2023-03-01T18:59:45.459309,2175008,705,1528,1060,-1029,-577,-322,-24,162,-186
51274,2226,0,2023-03-01T18:59:45.464611,2175013,705,1528,1060,-1029,-577,-322,-24,162,-186
51275,2227,0,2023-03-01T18:59:45.469448,2175017,705,1528,1060,-1029,-577,-322,-24,162,-186
51276,2228,0,2023-03-01T18:59:45.475478,2175024,705,1528,1060,-1029,-577,-322,-24,162,-186
51277,2229,0,2023-03-01T18:59:45.480944,2175029,703,1529,1061,-1030,-572,-324,-24,162,-186
51278,2230,0,2023-03-01T18:59:45.487497,2175036,703,1529,1061,-1030,-572,-324,-24,162,-186
51279,2231,0,2023-03-01T18:59:45.492335,2175041,703,1529,1061,-1030,-572,-324,-24,162,-186
51280,2232,0,2023-03-01T18:59:45.497918,2175046,706,1527,1062,-1033,-569,-323,-24,162,-186
51281,2233,0,2023-03-01T18:59:45.504003,2175052,706,1527,1062,-1033,-569,-323,-24,162,-186
51282,2234,0,2023-03-01T18:59:45.508885,2175057,706,1527,1062,-1033,-569,-323,-24,162,-186
51283,2235,0,2023-03-01T18:59:45.514410,2175064,706,1527,1062,-1033,-569,-323,-24,162,-186
51284,2236,0,2023-03-01T18:59:45.519575,2175069,709,1529,1056,-1032,-570,-321,-24,162,-186
51285,2237,0,2023-03-01T18:59:45.525280,2175074,709,1529,1056,-1032,-570,-321,-24,162,-186
51286,2238,0,2023-03-01T18:59:45.531100,2175080,709,1529,1056,-1032,-570,-321,-24,162,-186
51287,2239,0,2023-03-01T18:59:45.536875,2175086,709,1529,1056,-1032,-570,-321,-24,162,-186
51288,2240,0,2023-03-01T18:59:45.541502,2175090,706,1529,1062,-1035,-571,-314,-24,162,-186
51289,2241,0,2023-03-01T18:59:45.546915,2175095,706,1529,1062,-1035,-571,-314,-24,162,-186
51290,2242,0,2023-03-01T18:59:45.552169,2175101,706,1529,1062,-1035,-571,-314,-24,162,-186
51291,2243,0,2023-03-01T18:59:45.557881,2175107,708,1526,1060,-1026,-568,-320,-24,162,-186
51292,2244,0,2023-03-01T18:59:45.562553,2175112,708,1526,1060,-1026,-568,-320,-24,162,-186
51293,2245,0,2023-03-01T18:59:45.567289,2175116,708,1526,1060,-1026,-568,-320,-24,162,-186
51294,2246,0,2023-03-01T18:59:45.572119,2175121,708,1526,1060,-1026,-568,-320,-24,162,-186
51295,2247,0,2023-03-01T18:59:45.577507,2175126,705,1531,1058,-1032,-567,-326,-24,162,-186
51296,2248,0,2023-03-01T18:59:45.583605,2175132,705,1531,1058,-1032,-567,-326,-19,165,-181
51297,2249,0,2023-03-01T18:59:45.588939,2175137,705,1531,1058,-1032,-567,-326,-19,165,-181
51298,2250,0,2023-03-01T18:59:45.593745,2175142,705,1531,1058,-1032,-567,-326,-19,165,-181
51299,2251,0,2023-03-01T18:59:45.599462,2175149,708,1527,1065,-1024,-566,-326,-19,165,-181
51300,2252,0,2023-03-01T18:59:45.604765,2175154,708,1527,1065,-1024,-566,-326,-19,165,-181
51301,2253,0,2023-03-01T18:59:45.609918,2175159,708,1527,1065,-1024,-566,-326,-19,165,-181
51302,2254,0,2023-03-01T18:59:45.615296,2175164,708,1527,1065,-1024,-566,-326,-19,165,-181
51303,2255,0,2023-03-01T18:59:45.620133,2175169,707,1525,1062,-1034,-570,-322,-19,165,-181
51304,2256,0,2023-03-01T18:59:45.625457,2175174,707,1525,1062,-1034,-570,-322,-19,165,-181
51305,2257,0,2023-03-01T18:59:45.630655,2175179,707,1525,1062,-1034,-570,-322,-19,165,-181
51306,2258,0,2023-03-01T18:59:45.636373,2175184,707,1525,1062,-1034,-570,-322,-19,165,-181
51307,2259,0,2023-03-01T18:59:45.641388,2175190,706,1530,1062,-1025,-572,-321,-19,165,-181
51308,2260,0,2023-03-01T18:59:45.646951,2175196,706,1530,1062,-1025,-572,-321,-19,165,-181
51309,2261,0,2023-03-01T18:59:45.651619,2175201,706,1530,1062,-1025,-572,-321,-19,165,-181
51310,2262,0,2023-03-01T18:59:45.657361,2175206,706,1530,1062,-1025,-572,-321,-19,165,-181
51311,2263,0,2023-03-01T18:59:45.662173,2175211,707,1528,1056,-1032,-577,-326,-19,165,-181
51312,2264,0,2023-03-01T18:59:45.667661,2175216,707,1528,1056,-1032,-577,-326,-19,165,-181
51313,2265,0,2023-03-01T18:59:45.673431,2175222,707,1528,1056,-1032,-577,-326,-19,165,-181
51314,2266,0,2023-03-01T18:59:45.679212,2175228,703,1530,1061,-1036,-571,-325,-19,165,-181
51315,2267,0,2023-03-01T18:59:45.684674,2175234,703,1530,1061,-1036,-571,-325,-19,165,-181
51316,2268,0,2023-03-01T18:59:45.689743,2175239,703,1530,1061,-1036,-571,-325,-19,165,-181
51317,2269,0,2023-03-01T18:59:45.694930,2175244,703,1530,1061,-1036,-571,-325,-19,165,-181
51318,2270,0,2023-03-01T18:59:45.699660,2175248,704,1529,1059,-1030,-575,-314,-29,161,-179
51319,2271,0,2023-03-01T18:59:45.705662,2175254,704,1529,1059,-1030,-575,-314,-29,161,-179
51320,2272,0,2023-03-01T18:59:45.711514,2175260,704,1529,1059,-1030,-575,-314,-29,161,-179
51321,2273,0,2023-03-01T18:59:45.716868,2175265,704,1529,1059,-1030,-575,-314,-29,161,-179
51322,2274,0,2023-03-01T18:59:45.721456,2175270,711,1528,1062,-1023,-576,-321,-29,161,-179
51323,2275,0,2023-03-01T18:59:45.726951,2175276,711,1528,1062,-1023,-576,-321,-29,161,-179
51324,2276,0,2023-03-01T18:59:45.732831,2175282,711,1528,1062,-1023,-576,-321,-29,161,-179
51325,2277,0,2023-03-01T18:59:45.738306,2175287,705,1527,1068,-1031,-575,-320,-29,161,-179
51326,2278,0,2023-03-01T18:59:45.743478,2175292,705,1527,1068,-1031,-575,-320,-29,161,-179
51327,2279,0,2023-03-01T18:59:45.748664,2175297,705,1527,1068,-1031,-575,-320,-29,161,-179
51328,2280,0,2023-03-01T18:59:45.755194,2175304,705,1527,1068,-1031,-575,-320,-29,161,-179
51329,2281,0,2023-03-01T18:59:45.760541,2175309,702,1527,1061,-1033,-574,-320,-29,161,-179
51330,2282,0,2023-03-01T18:59:45.766272,2175314,702,1527,1061,-1033,-574,-320,-29,161,-179
51331,2283,0,2023-03-01T18:59:45.771118,2175320,702,1527,1061,-1033,-574,-320,-29,161,-179
51332,2284,0,2023-03-01T18:59:45.776501,2175325,702,1527,1061,-1033,-574,-320,-29,161,-179
51333,2285,0,2023-03-01T18:59:45.781698,2175330,706,1528,1058,-1027,-573,-318,-29,161,-179
51334,2286,0,2023-03-01T18:59:45.787540,2175336,706,1528,1058,-1027,-573,-318,-29,161,-179
51335,2287,0,2023-03-01T18:59:45.792253,2175341,706,1528,1058,-1027,-573,-318,-29,161,-179
51336,2288,0,2023-03-01T18:59:45.797319,2175346,706,1528,1058,-1027,-573,-318,-29,161,-179
51337,2289,0,2023-03-01T18:59:45.802212,2175351,702,1526,1061,-1030,-569,-319,-29,161,-179
51338,2290,0,2023-03-01T18:59:45.808091,2175356,702,1526,1061,-1030,-569,-319,-29,161,-179
51339,2291,0,2023-03-01T18:59:45.813220,2175362,702,1526,1061,-1030,-569,-319,-29,161,-179
51340,2292,0,2023-03-01T18:59:45.819038,2175368,704,1530,1062,-1032,-571,-317,-29,161,-179
51341,2293,0,2023-03-01T18:59:45.824875,2175373,704,1530,1062,-1032,-571,-317,-29,161,-179
51342,2294,0,2023-03-01T18:59:45.829438,2175378,704,1530,1062,-1032,-571,-317,-29,161,-179
51343,2295,0,2023-03-01T18:59:45.835049,2175384,704,1530,1062,-1032,-571,-317,-29,161,-179
51344,2296,0,2023-03-01T18:59:45.840262,2175388,706,1525,1059,-1028,-574,-318,-18,170,-182
51345,2297,0,2023-03-01T18:59:45.845867,2175394,706,1525,1059,-1028,-574,-318,-18,170,-182
51346,2298,0,2023-03-01T18:59:45.850633,2175399,706,1525,1059,-1028,-574,-318,-18,170,-182
51347,2299,0,2023-03-01T18:59:45.856304,2175405,706,1525,1059,-1028,-574,-318,-18,170,-182
51348,2300,0,2023-03-01T18:59:45.861326,2175410,704,1526,1060,-1028,-571,-313,-18,170,-182
51349,2301,0,2023-03-01T18:59:45.867042,2175416,704,1526,1060,-1028,-571,-313,-18,170,-182
51350,2302,0,2023-03-01T18:59:45.872014,2175421,704,1526,1060,-1028,-571,-313,-18,170,-182
51351,2303,0,2023-03-01T18:59:45.877696,2175426,704,1526,1060,-1028,-571,-313,-18,170,-182
51352,2304,0,2023-03-01T18:59:45.882795,2175431,708,1529,1060,-1030,-576,-320,-18,170,-182
51353,2305,0,2023-03-01T18:59:45.888320,2175437,708,1529,1060,-1030,-576,-320,-18,170,-182
51354,2306,0,2023-03-01T18:59:45.894148,2175442,708,1529,1060,-1030,-576,-320,-18,170,-182
51355,2307,0,2023-03-01T18:59:45.899704,2175449,708,1529,1060,-1030,-576,-320,-18,170,-182
51356,2308,0,2023-03-01T18:59:45.904369,2175453,708,1529,1060,-1030,-576,-320,-18,170,-182
51357,2309,0,2023-03-01T18:59:45.909410,2175458,708,1529,1060,-1030,-576,-320,-18,170,-182
51358,2310,0,2023-03-01T18:59:45.914360,2175463,708,1529,1060,-1030,-576,-320,-18,170,-182
51359,2311,0,2023-03-01T18:59:45.920314,2175469,706,1529,1057,-1035,-577,-321,-18,170,-182
51360,2312,0,2023-03-01T18:59:45.926379,2175475,706,1529,1057,-1035,-577,-321,-18,170,-182
51361,2313,0,2023-03-01T18:59:45.931274,2175480,706,1529,1057,-1035,-577,-321,-18,170,-182
51362,2314,0,2023-03-01T18:59:45.937007,2175485,706,1529,1057,-1035,-577,-321,-18,170,-182
51363,2315,0,2023-03-01T18:59:45.942211,2175491,708,1528,1062,-1035,-575,-318,-18,170,-182
51364,2316,0,2023-03-01T18:59:45.947947,2175497,708,1528,1062,-1035,-575,-318,-18,170,-182
51365,2317,0,2023-03-01T18:59:45.953579,2175502,708,1528,1062,-1035,-575,-318,-18,170,-182
51366,2318,0,2023-03-01T18:59:45.959498,2175508,707,1527,1064,-1029,-574,-324,-16,166,-188
51367,2319,0,2023-03-01T18:59:45.965242,2175514,707,1527,1064,-1029,-574,-324,-16,166,-188
51368,2320,0,2023-03-01T18:59:45.971405,2175519,707,1527,1064,-1029,-574,-324,-16,166,-188
51369,2321,0,2023-03-01T18:59:45.977378,2175526,707,1527,1064,-1029,-574,-324,-16,166,-188
51370,2322,0,2023-03-01T18:59:45.982471,2175532,707,1525,1063,-1032,-570,-319,-16,166,-188
51371,2323,0,2023-03-01T18:59:45.988462,2175537,707,1525,1063,-1032,-570,-319,-16,166,-188
51372,2324,0,2023-03-01T18:59:45.994262,2175543,707,1525,1063,-1032,-570,-319,-16,166,-188
51373,2325,0,2023-03-01T18:59:46.001665,2175549,708,1529,1064,-1024,-569,-320,-16,166,-188
51374,2326,0,2023-03-01T18:59:46.006618,2175555,708,1529,1064,-1024,-569,-320,-16,166,-188
51375,2327,0,2023-03-01T18:59:46.011117,2175560,708,1529,1064,-1024,-569,-320,-16,166,-188
51376,2328,0,2023-03-01T18:59:46.016817,2175565,708,1529,1064,-1024,-569,-320,-16,166,-188
51377,2329,0,2023-03-01T18:59:46.022168,2175570,703,1529,1065,-1024,-569,-317,-16,166,-188
51378,2330,0,2023-03-01T18:59:46.027832,2175577,703,1529,1065,-1024,-569,-317,-16,166,-188
51379,2331,0,2023-03-01T18:59:46.034086,2175583,703,1529,1065,-1024,-569,-317,-16,166,-188
51380,2332,0,2023-03-01T18:59:46.039799,2175589,707,1530,1064,-1029,-582,-327,-16,166,-188
51381,2333,0,2023-03-01T18:59:46.045220,2175594,707,1530,1064,-1029,-582,-327,-16,166,-188
51382,2334,0,2023-03-01T18:59:46.050739,2175599,707,1530,1064,-1029,-582,-327,-16,166,-188
51383,2335,0,2023-03-01T18:59:46.056319,2175605,707,1530,1064,-1029,-582,-327,-16,166,-188
51384,2336,0,2023-03-01T18:59:46.061377,2175610,707,1527,1057,-1032,-581,-322,-16,166,-188
51385,2337,0,2023-03-01T18:59:46.067364,2175616,707,1527,1057,-1032,-581,-322,-16,166,-188
51386,2338,0,2023-03-01T18:59:46.073069,2175622,707,1527,1057,-1032,-581,-322,-16,166,-188
51387,2339,0,2023-03-01T18:59:46.078460,2175627,707,1528,1056,-1033,-578,-319,-16,166,-188
51388,2340,0,2023-03-01T18:59:46.084402,2175633,707,1528,1056,-1033,-578,-319,-16,166,-188
51389,2341,0,2023-03-01T18:59:46.089065,2175638,707,1528,1056,-1033,-578,-319,-16,166,-188
51390,2342,0,2023-03-01T18:59:46.095142,2175644,707,1528,1056,-1033,-578,-319,-16,166,-188
51391,2343,0,2023-03-01T18:59:46.100556,2175649,707,1528,1063,-1028,-573,-326,-20,166,-184
51392,2344,0,2023-03-01T18:59:46.106517,2175655,707,1528,1063,-1028,-573,-326,-20,166,-184
51393,2345,0,2023-03-01T18:59:46.112388,2175661,707,1528,1063,-1028,-573,-326,-20,166,-184
51394,2346,0,2023-03-01T18:59:46.117947,2175667,707,1528,1063,-1028,-573,-326,-20,166,-184
51395,2347,0,2023-03-01T18:59:46.123513,2175672,707,1530,1064,-1035,-576,-321,-20,166,-184
51396,2348,0,2023-03-01T18:59:46.129084,2175678,707,1530,1064,-1035,-576,-321,-20,166,-184
51397,2349,0,2023-03-01T18:59:46.134834,2175683,707,1530,1064,-1035,-576,-321,-20,166,-184
51398,2350,0,2023-03-01T18:59:46.140565,2175689,705,1529,1060,-1036,-573,-324,-20,166,-184
51399,2351,0,2023-03-01T18:59:46.148866,2175697,705,1529,1060,-1036,-573,-324,-20,166,-184
51400,2352,0,2023-03-01T18:59:46.153846,2175703,705,1529,1060,-1036,-573,-324,-20,166,-184
51401,2353,0,2023-03-01T18:59:46.159529,2175708,707,1529,1060,-1028,-570,-316,-20,166,-184
51402,2354,0,2023-03-01T18:59:46.164510,2175713,707,1529,1060,-1028,-570,-316,-20,166,-184
51403,2355,0,2023-03-01T18:59:46.169190,2175718,707,1529,1060,-1028,-570,-316,-20,166,-184
51404,2356,0,2023-03-01T18:59:46.174007,2175723,707,1529,1060,-1028,-570,-316,-20,166,-184
51405,2357,0,2023-03-01T18:59:46.179260,2175727,706,1528,1062,-1032,-571,-318,-20,166,-184
51406,2358,0,2023-03-01T18:59:46.184776,2175733,706,1528,1062,-1032,-571,-318,-20,166,-184
51407,2359,0,2023-03-01T18:59:46.189818,2175738,706,1528,1062,-1032,-571,-318,-20,166,-184
51408,2360,0,2023-03-01T18:59:46.195898,2175745,706,1528,1062,-1032,-571,-318,-20,166,-184
51409,2361,0,2023-03-01T18:59:46.200718,2175750,707,1529,1058,-1032,-569,-320,-20,166,-184
51410,2362,0,2023-03-01T18:59:46.206103,2175755,707,1529,1058,-1032,-569,-320,-20,166,-184
51411,2363,0,2023-03-01T18:59:46.210750,2175760,707,1529,1058,-1032,-569,-320,-20,166,-184
51412,2364,0,2023-03-01T18:59:46.216073,2175765,707,1529,1058,-1032,-569,-320,-20,166,-184
51413,2365,0,2023-03-01T18:59:46.221488,2175770,703,1526,1060,-1031,-570,-320,-30,164,-192
51414,2366,0,2023-03-01T18:59:46.227549,2175776,703,1526,1060,-1031,-570,-320,-30,164,-192
51415,2367,0,2023-03-01T18:59:46.232909,2175781,703,1526,1060,-1031,-570,-320,-30,164,-192
51416,2368,0,2023-03-01T18:59:46.238266,2175787,703,1526,1060,-1031,-570,-320,-30,164,-192
51417,2369,0,2023-03-01T18:59:46.243026,2175792,705,1529,1063,-1022,-574,-321,-30,164,-192
51418,2370,0,2023-03-01T18:59:46.249011,2175798,705,1529,1063,-1022,-574,-321,-30,164,-192
51419,2371,0,2023-03-01T18:59:46.254136,2175803,705,1529,1063,-1022,-574,-321,-30,164,-192
51420,2372,0,2023-03-01T18:59:46.260074,2175809,708,1529,1056,-1032,-575,-324,-30,164,-192
51421,2373,0,2023-03-01T18:59:46.265750,2175814,708,1529,1056,-1032,-575,-324,-30,164,-192
51422,2374,0,2023-03-01T18:59:46.271569,2175820,708,1529,1056,-1032,-575,-324,-30,164,-192
51423,2375,0,2023-03-01T18:59:46.277012,2175825,708,1529,1056,-1032,-575,-324,-30,164,-192
51424,2376,0,2023-03-01T18:59:46.281946,2175831,706,1529,1065,-1032,-571,-323,-30,164,-192
51425,2377,0,2023-03-01T18:59:46.287695,2175837,706,1529,1065,-1032,-571,-323,-30,164,-192
51426,2378,0,2023-03-01T18:59:46.292600,2175841,706,1529,1065,-1032,-571,-323,-30,164,-192
51427,2379,0,2023-03-01T18:59:46.298248,2175847,706,1529,1065,-1032,-571,-323,-30,164,-192
51428,2380,0,2023-03-01T18:59:46.303800,2175852,705,1529,1060,-1027,-566,-325,-30,164,-192
51429,2381,0,2023-03-01T18:59:46.309337,2175858,705,1529,1060,-1027,-566,-325,-30,164,-192
51430,2382,0,2023-03-01T18:59:46.314971,2175864,705,1529,1060,-1027,-566,-325,-30,164,-192
51431,2383,0,2023-03-01T18:59:46.320057,2175868,707,1530,1059,-1032,-568,-332,-30,164,-192
51432,2384,0,2023-03-01T18:59:46.325611,2175875,707,1530,1059,-1032,-568,-332,-30,164,-192
51433,2385,0,2023-03-01T18:59:46.331518,2175880,707,1530,1059,-1032,-568,-332,-30,164,-192
51434,2386,0,2023-03-01T18:59:46.337392,2175886,707,1530,1059,-1032,-568,-332,-30,164,-192
51435,2387,0,2023-03-01T18:59:46.342319,2175891,705,1528,1060,-1030,-569,-324,-27,165,-183
51436,2388,0,2023-03-01T18:59:46.347705,2175896,705,1528,1060,-1030,-569,-324,-27,165,-183
51437,2389,0,2023-03-01T18:59:46.352317,2175901,705,1528,1060,-1030,-569,-324,-27,165,-183
51438,2390,0,2023-03-01T18:59:46.358243,2175906,705,1528,1060,-1030,-569,-324,-27,165,-183
51439,2391,0,2023-03-01T18:59:46.363226,2175912,704,1529,1064,-1034,-571,-325,-27,165,-183
51440,2392,0,2023-03-01T18:59:46.368831,2175918,704,1529,1064,-1034,-571,-325,-27,165,-183
51441,2393,0,2023-03-01T18:59:46.373568,2175923,704,1529,1064,-1034,-571,-325,-27,165,-183
51442,2394,0,2023-03-01T18:59:46.379513,2175928,703,1529,1061,-1037,-571,-320,-27,165,-183
51443,2395,0,2023-03-01T18:59:46.385420,2175934,703,1529,1061,-1037,-571,-320,-27,165,-183
51444,2396,0,2023-03-01T18:59:46.392166,2175940,703,1529,1061,-1037,-571,-320,-27,165,-183
51445,2397,0,2023-03-01T18:59:46.397441,2175946,703,1529,1061,-1037,-571,-320,-27,165,-183
51446,2398,0,2023-03-01T18:59:46.402244,2175950,705,1527,1066,-1038,-573,-315,-27,165,-183
51447,2399,0,2023-03-01T18:59:46.407867,2175956,705,1527,1066,-1038,-573,-315,-27,165,-183
51448,2400,0,2023-03-01T18:59:46.412721,2175962,705,1527,1066,-1038,-573,-315,-27,165,-183
51449,2401,0,2023-03-01T18:59:46.418280,2175967,705,1527,1066,-1038,-573,-315,-27,165,-183
51450,2402,0,2023-03-01T18:59:46.423050,2175972,706,1527,1055,-1035,-574,-317,-27,165,-183
51451,2403,0,2023-03-01T18:59:46.428826,2175977,706,1527,1055,-1035,-574,-317,-27,165,-183
51452,2404,0,2023-03-01T18:59:46.434563,2175983,706,1527,1055,-1035,-574,-317,-27,165,-183
51453,2405,0,2023-03-01T18:59:46.440324,2175989,707,1526,1067,-1037,-573,-321,-27,165,-183
51454,2406,0,2023-03-01T18:59:46.447082,2175995,707,1526,1067,-1037,-573,-321,-27,165,-183
51455,2407,0,2023-03-01T18:59:46.452156,2176001,707,1526,1067,-1037,-573,-321,-27,165,-183
51456,2408,0,2023-03-01T18:59:46.457786,2176007,707,1526,1067,-1037,-573,-321,-27,165,-183
51457,2409,0,2023-03-01T18:59:46.463334,2176012,708,1528,1060,-1029,-570,-328,-27,165,-183
51458,2410,0,2023-03-01T18:59:46.470082,2176018,708,1528,1060,-1029,-570,-328,-27,165,-183
51459,2411,0,2023-03-01T18:59:46.476105,2176024,708,1528,1060,-1029,-570,-328,-27,165,-183
51460,2412,0,2023-03-01T18:59:46.482129,2176031,704,1529,1064,-1027,-567,-320,-19,171,-187
51461,2413,0,2023-03-01T18:59:46.487882,2176036,704,1529,1064,-1027,-567,-320,-19,171,-187
51462,2414,0,2023-03-01T18:59:46.494613,2176044,704,1529,1064,-1027,-567,-320,-19,171,-187
51463,2415,0,2023-03-01T18:59:46.500397,2176049,704,1529,1064,-1027,-567,-320,-19,171,-187
51464,2416,0,2023-03-01T18:59:46.505355,2176054,704,1529,1064,-1027,-567,-320,-19,171,-187
51465,2417,0,2023-03-01T18:59:46.510297,2176059,704,1529,1064,-1027,-567,-320,-19,171,-187
51466,2418,0,2023-03-01T18:59:46.515403,2176064,704,1529,1064,-1027,-567,-320,-19,171,-187
51467,2419,0,2023-03-01T18:59:46.520600,2176069,701,1531,1062,-1033,-571,-315,-19,171,-187
51468,2420,0,2023-03-01T18:59:46.526250,2176075,701,1531,1062,-1033,-571,-315,-19,171,-187
51469,2421,0,2023-03-01T18:59:46.531572,2176080,701,1531,1062,-1033,-571,-315,-19,171,-187
51470,2422,0,2023-03-01T18:59:46.536498,2176086,701,1531,1062,-1033,-571,-315,-19,171,-187
51471,2423,0,2023-03-01T18:59:46.541008,2176090,705,1529,1063,-1037,-577,-313,-19,171,-187
51472,2424,0,2023-03-01T18:59:46.546202,2176095,705,1529,1063,-1037,-577,-313,-19,171,-187
51473,2425,0,2023-03-01T18:59:46.552146,2176101,705,1529,1063,-1037,-577,-313,-19,171,-187
51474,2426,0,2023-03-01T18:59:46.557995,2176107,705,1529,1063,-1037,-577,-313,-19,171,-187
51475,2427,0,2023-03-01T18:59:46.563152,2176112,709,1527,1055,-1034,-570,-318,-19,171,-187
51476,2428,0,2023-03-01T18:59:46.568586,2176117,709,1527,1055,-1034,-570,-318,-19,171,-187
51477,2429,0,2023-03-01T18:59:46.573921,2176122,709,1527,1055,-1034,-570,-318,-19,171,-187
51478,2430,0,2023-03-01T18:59:46.579365,2176129,704,1528,1060,-1039,-573,-321,-19,171,-187
51479,2431,0,2023-03-01T18:59:46.585250,2176134,704,1528,1060,-1039,-573,-321,-19,171,-187
51480,2432,0,2023-03-01T18:59:46.590392,2176139,704,1528,1060,-1039,-573,-321,-19,171,-187
51481,2433,0,2023-03-01T18:59:46.596576,2176146,704,1528,1060,-1039,-573,-321,-19,171,-187
51482,2434,0,2023-03-01T18:59:46.601465,2176150,707,1526,1063,-1035,-573,-323,-24,166,-190
51483,2435,0,2023-03-01T18:59:46.607255,2176156,707,1526,1063,-1035,-573,-323,-24,166,-190
51484,2436,0,2023-03-01T18:59:46.612537,2176161,707,1526,1063,-1035,-573,-323,-24,166,-190
51485,2437,0,2023-03-01T18:59:46.617788,2176166,707,1526,1063,-1035,-573,-323,-24,166,-190
51486,2438,0,2023-03-01T18:59:46.622267,2176172,706,1525,1067,-1024,-573,-323,-24,166,-190
51487,2439,0,2023-03-01T18:59:46.627818,2176177,706,1525,1067,-1024,-573,-323,-24,166,-190
51488,2440,0,2023-03-01T18:59:46.632810,2176182,706,1525,1067,-1024,-573,-323,-24,166,-190
51489,2441,0,2023-03-01T18:59:46.638758,2176187,706,1525,1067,-1024,-573,-323,-24,166,-190
51490,2442,0,2023-03-01T18:59:46.644082,2176192,704,1530,1059,-1032,-573,-320,-24,166,-190
51491,2443,0,2023-03-01T18:59:46.649640,2176198,704,1530,1059,-1032,-573,-320,-24,166,-190
51492,2444,0,2023-03-01T18:59:46.655582,2176204,704,1530,1059,-1032,-573,-320,-24,166,-190
51493,2445,0,2023-03-01T18:59:46.660574,2176209,704,1528,1062,-1030,-566,-328,-24,166,-190
51494,2446,0,2023-03-01T18:59:46.666197,2176215,704,1528,1062,-1030,-566,-328,-24,166,-190
51495,2447,0,2023-03-01T18:59:46.671971,2176221,704,1528,1062,-1030,-566,-328,-24,166,-190
51496,2448,0,2023-03-01T18:59:46.677860,2176227,704,1528,1062,-1030,-566,-328,-24,166,-190
51497,2449,0,2023-03-01T18:59:46.682769,2176232,706,1528,1067,-1029,-573,-328,-24,166,-190
51498,2450,0,2023-03-01T18:59:46.687932,2176237,706,1528,1067,-1029,-573,-328,-24,166,-190
51499,2451,0,2023-03-01T18:59:46.693432,2176241,706,1528,1067,-1029,-573,-328,-24,166,-190
51500,2452,0,2023-03-01T18:59:46.700195,2176248,704,1526,1065,-1032,-572,-326,-24,166,-190
51501,2453,0,2023-03-01T18:59:46.705982,2176254,704,1526,1065,-1032,-572,-326,-24,166,-190
51502,2454,0,2023-03-01T18:59:46.711728,2176261,704,1526,1065,-1032,-572,-326,-24,166,-190
51503,2455,0,2023-03-01T18:59:46.717638,2176267,704,1526,1065,-1032,-572,-326,-24,166,-190
51504,2456,0,2023-03-01T18:59:46.722777,2176271,705,1530,1060,-1034,-579,-323,-24,166,-190
51505,2457,0,2023-03-01T18:59:46.728218,2176277,705,1530,1060,-1034,-579,-323,-24,166,-190
51506,2458,0,2023-03-01T18:59:46.733727,2176282,705,1530,1060,-1034,-579,-323,-24,166,-190
51507,2459,0,2023-03-01T18:59:46.739072,2176288,707,1528,1068,-1030,-571,-323,-24,166,-190
51508,2460,0,2023-03-01T18:59:46.744340,2176293,707,1528,1068,-1030,-571,-323,-18,170,-176
51509,2461,0,2023-03-01T18:59:46.749128,2176297,707,1528,1068,-1030,-571,-323,-18,170,-176
51510,2462,0,2023-03-01T18:59:46.754876,2176304,707,1528,1068,-1030,-571,-323,-18,170,-176
51511,2463,0,2023-03-01T18:59:46.760985,2176310,707,1528,1060,-1029,-569,-328,-18,170,-176
51512,2464,0,2023-03-01T18:59:46.766425,2176315,707,1528,1060,-1029,-569,-328,-18,170,-176
51513,2465,0,2023-03-01T18:59:46.771551,2176320,707,1528,1060,-1029,-569,-328,-18,170,-176
51514,2466,0,2023-03-01T18:59:46.777132,2176326,707,1528,1060,-1029,-569,-328,-18,170,-176
51515,2467,0,2023-03-01T18:59:46.781996,2176330,707,1529,1061,-1024,-577,-323,-18,170,-176
51516,2468,0,2023-03-01T18:59:46.787950,2176336,707,1529,1061,-1024,-577,-323,-18,170,-176
51517,2469,0,2023-03-01T18:59:46.793863,2176343,707,1529,1061,-1024,-577,-323,-18,170,-176
51518,2470,0,2023-03-01T18:59:46.799293,2176348,705,1528,1055,-1029,-569,-322,-18,170,-176
51519,2471,0,2023-03-01T18:59:46.805020,2176354,705,1528,1055,-1029,-569,-322,-18,170,-176
51520,2472,0,2023-03-01T18:59:46.810598,2176359,705,1528,1055,-1029,-569,-322,-18,170,-176
51521,2473,0,2023-03-01T18:59:46.816621,2176365,705,1528,1055,-1029,-569,-322,-18,170,-176
51522,2474,0,2023-03-01T18:59:46.821535,2176370,704,1529,1062,-1036,-566,-323,-18,170,-176
51523,2475,0,2023-03-01T18:59:46.827054,2176375,704,1529,1062,-1036,-566,-323,-18,170,-176
51524,2476,0,2023-03-01T18:59:46.832407,2176381,704,1529,1062,-1036,-566,-323,-18,170,-176
51525,2477,0,2023-03-01T18:59:46.838103,2176387,704,1529,1062,-1036,-566,-323,-18,170,-176
51526,2478,0,2023-03-01T18:59:46.843522,2176392,707,1527,1062,-1034,-574,-324,-18,170,-176
51527,2479,0,2023-03-01T18:59:46.849203,2176398,707,1527,1062,-1034,-574,-324,-18,170,-176
51528,2480,0,2023-03-01T18:59:46.854133,2176403,707,1527,1062,-1034,-574,-324,-18,170,-176
51529,2481,0,2023-03-01T18:59:46.859770,2176408,706,1528,1060,-1032,-577,-327,-20,164,-186
51530,2482,0,2023-03-01T18:59:46.865271,2176414,706,1528,1060,-1032,-577,-327,-20,164,-186
51531,2483,0,2023-03-01T18:59:46.870643,2176419,706,1528,1060,-1032,-577,-327,-20,164,-186
51532,2484,0,2023-03-01T18:59:46.876962,2176425,706,1528,1060,-1032,-577,-327,-20,164,-186
51533,2485,0,2023-03-01T18:59:46.882381,2176431,704,1525,1063,-1029,-572,-323,-20,164,-186
51534,2486,0,2023-03-01T18:59:46.888029,2176437,704,1525,1063,-1029,-572,-323,-20,164,-186
51535,2487,0,2023-03-01T18:59:46.892626,2176442,704,1525,1063,-1029,-572,-323,-20,164,-186
51536,2488,0,2023-03-01T18:59:46.898236,2176446,704,1525,1063,-1029,-572,-323,-20,164,-186
51537,2489,0,2023-03-01T18:59:46.903516,2176452,705,1527,1062,-1030,-569,-330,-20,164,-186
51538,2490,0,2023-03-01T18:59:46.908924,2176457,705,1527,1062,-1030,-569,-330,-20,164,-186
51539,2491,0,2023-03-01T18:59:46.914544,2176462,705,1527,1062,-1030,-569,-330,-20,164,-186
51540,2492,0,2023-03-01T18:59:46.922001,2176471,707,1528,1061,-1032,-569,-321,-20,164,-186
51541,2493,0,2023-03-01T18:59:46.927892,2176477,707,1528,1061,-1032,-569,-321,-20,164,-186
51542,2494,0,2023-03-01T18:59:46.933475,2176482,707,1528,1061,-1032,-569,-321,-20,164,-186
51543,2495,0,2023-03-01T18:59:46.938689,2176488,707,1528,1061,-1032,-569,-321,-20,164,-186
51544,2496,0,2023-03-01T18:59:46.944158,2176492,708,1530,1061,-1023,-571,-322,-20,164,-186
51545,2497,0,2023-03-01T18:59:46.949814,2176498,708,1530,1061,-1023,-571,-322,-20,164,-186
51546,2498,0,2023-03-01T18:59:46.956239,2176504,708,1530,1061,-1023,-571,-322,-20,164,-186
51547,2499,0,2023-03-01T18:59:46.961634,2176510,707,1528,1062,-1028,-569,-320,-20,164,-186
51548,2500,0,2023-03-01T18:59:46.967257,2176516,707,1528,1062,-1028,-569,-320,-20,164,-186
51549,2501,0,2023-03-01T18:59:46.972689,2176522,707,1528,1062,-1028,-569,-320,-20,164,-186
51550,2502,0,2023-03-01T18:59:46.979645,2176528,707,1528,1062,-1028,-569,-320,-20,164,-186
51551,2503,0,2023-03-01T18:59:46.984891,2176534,702,1526,1055,-1030,-570,-317,-20,164,-186
51552,2504,0,2023-03-01T18:59:46.990411,2176539,702,1526,1055,-1030,-570,-317,-20,164,-186
51553,2505,0,2023-03-01T18:59:46.995379,2176544,702,1526,1055,-1030,-570,-317,-20,164,-186
51554,2506,0,2023-03-01T18:59:47.000551,2176549,707,1528,1061,-1025,-570,-320,-19,167,-193
51555,2507,0,2023-03-01T18:59:47.006307,2176555,707,1528,1061,-1025,-570,-320,-19,167,-193
51556,2508,0,2023-03-01T18:59:47.011644,2176560,707,1528,1061,-1025,-570,-320,-19,167,-193
51557,2509,0,2023-03-01T18:59:47.016880,2176566,707,1528,1061,-1025,-570,-320,-19,167,-193
51558,2510,0,2023-03-01T18:59:47.022296,2176571,705,1528,1063,-1032,-573,-318,-19,167,-193
51559,2511,0,2023-03-01T18:59:47.029064,2176577,705,1528,1063,-1032,-573,-318,-19,167,-193
51560,2512,0,2023-03-01T18:59:47.035345,2176583,705,1528,1063,-1032,-573,-318,-19,167,-193
51561,2513,0,2023-03-01T18:59:47.041405,2176590,705,1528,1058,-1031,-571,-318,-19,167,-193
51562,2514,0,2023-03-01T18:59:47.047036,2176595,705,1528,1058,-1031,-571,-318,-19,167,-193
51563,2515,0,2023-03-01T18:59:47.052906,2176602,705,1528,1058,-1031,-571,-318,-19,167,-193
51564,2516,0,2023-03-01T18:59:47.058686,2176607,705,1528,1058,-1031,-571,-318,-19,167,-193
51565,2517,0,2023-03-01T18:59:47.063326,2176612,702,1527,1060,-1032,-569,-322,-19,167,-193
51566,2518,0,2023-03-01T18:59:47.068668,2176618,702,1527,1060,-1032,-569,-322,-19,167,-193
51567,2519,0,2023-03-01T18:59:47.073742,2176622,702,1527,1060,-1032,-569,-322,-19,167,-193
51568,2520,0,2023-03-01T18:59:47.079090,2176628,702,1527,1060,-1032,-569,-322,-19,167,-193
