,Unnamed: 0,imu,server_time,arduino_time,ax,ay,az,gx,gy,gz,mx,my,mz
7142,8094,0,2023-03-01T18:55:39.800779,1929335,1366,1845,-593,-1041,-568,-320,-38,110,-250
7143,8095,0,2023-03-01T18:55:39.806006,1929341,1366,1845,-593,-1041,-568,-320,-38,110,-250
7144,8096,0,2023-03-01T18:55:39.811191,1929347,1364,1847,-599,-1044,-575,-321,-38,110,-250
7145,8097,0,2023-03-01T18:55:39.817320,1929352,1364,1847,-599,-1044,-575,-321,-38,110,-250
7146,8098,0,2023-03-01T18:55:39.822696,1929358,1364,1847,-599,-1044,-575,-321,-38,110,-250
7147,8099,0,2023-03-01T18:55:39.827835,1929363,1364,1847,-599,-1044,-575,-321,-38,110,-250
7148,8100,0,2023-03-01T18:55:39.834177,1929369,1366,1844,-597,-1042,-570,-317,-38,110,-250
7149,8101,0,2023-03-01T18:55:39.840839,1929376,1366,1844,-597,-1042,-570,-317,-38,110,-250
7150,8102,0,2023-03-01T18:55:39.846017,1929380,1366,1844,-597,-1042,-570,-317,-38,110,-250
7151,8103,0,2023-03-01T18:55:39.850942,1929385,1368,1843,-595,-1033,-568,-320,-38,110,-250
7152,8104,0,2023-03-01T18:55:39.857278,1929393,1368,1843,-595,-1033,-568,-320,-38,110,-250
7153,8105,0,2023-03-01T18:55:39.863326,1929399,1368,1843,-595,-1033,-568,-320,-38,110,-250
7154,8106,0,2023-03-01T18:55:39.868213,1929404,1368,1843,-595,-1033,-568,-320,-38,110,-250
7155,8107,0,2023-03-01T18:55:39.873626,1929409,1369,1844,-588,-1039,-573,-320,-38,110,-250
7156,8108,0,2023-03-01T18:55:39.879414,1929414,1369,1844,-588,-1039,-573,-320,-38,110,-250
7157,8109,0,2023-03-01T18:55:39.885878,1929420,1369,1844,-588,-1039,-573,-320,-38,110,-250
7158,8110,0,2023-03-01T18:55:39.890723,1929425,1365,1841,-590,-1037,-580,-328,-29,119,-243
7159,8111,0,2023-03-01T18:55:39.896915,1929432,1365,1841,-590,-1037,-580,-328,-29,119,-243
7160,8112,0,2023-03-01T18:55:39.902299,1929438,1365,1841,-590,-1037,-580,-328,-29,119,-243
7161,8113,0,2023-03-01T18:55:39.907758,1929443,1365,1841,-590,-1037,-580,-328,-29,119,-243
7162,8114,0,2023-03-01T18:55:39.913690,1929449,1366,1840,-595,-1040,-573,-327,-29,119,-243
7163,8115,0,2023-03-01T18:55:39.920619,1929456,1366,1840,-595,-1040,-573,-327,-29,119,-243
7164,8116,0,2023-03-01T18:55:39.925625,1929460,1366,1840,-595,-1040,-573,-327,-29,119,-243
7165,8117,0,2023-03-01T18:55:39.930642,1929465,1364,1845,-590,-1041,-573,-321,-29,119,-243
7166,8118,0,2023-03-01T18:55:39.936949,1929472,1364,1845,-590,-1041,-573,-321,-29,119,-243
7167,8119,0,2023-03-01T18:55:39.942528,1929478,1364,1845,-590,-1041,-573,-321,-29,119,-243
7168,8120,0,2023-03-01T18:55:39.947546,1929483,1364,1845,-590,-1041,-573,-321,-29,119,-243
7169,8121,0,2023-03-01T18:55:39.952775,1929488,1365,1846,-589,-1051,-574,-319,-29,119,-243
7170,8122,0,2023-03-01T18:55:39.958633,1929494,1365,1846,-589,-1051,-574,-319,-29,119,-243
7171,8123,0,2023-03-01T18:55:39.963584,1929498,1365,1846,-589,-1051,-574,-319,-29,119,-243
7172,8124,0,2023-03-01T18:55:39.968500,1929503,1365,1846,-589,-1051,-574,-319,-29,119,-243
7173,8125,0,2023-03-01T18:55:39.974980,1929509,1364,1844,-594,-1034,-576,-314,-29,119,-243
7174,8126,0,2023-03-01T18:55:39.980825,1929516,1364,1844,-594,-1034,-576,-314,-29,119,-243
7175,8127,0,2023-03-01T18:55:39.985687,1929521,1364,1844,-594,-1034,-576,-314,-29,119,-243
7176,8128,0,2023-03-01T18:55:39.990639,1929526,1366,1843,-594,-1029,-577,-315,-29,119,-243
7177,8129,0,2023-03-01T18:55:39.996397,1929532,1366,1843,-594,-1029,-577,-315,-29,119,-243
7178,8130,0,2023-03-01T18:55:40.002238,1929537,1366,1843,-594,-1029,-577,-315,-29,119,-243
7179,8131,0,2023-03-01T18:55:40.007429,1929542,1366,1843,-594,-1029,-577,-315,-29,119,-243
7180,8132,0,2023-03-01T18:55:40.012011,1929547,1368,1841,-588,-1038,-578,-322,-31,119,-247
7181,8133,0,2023-03-01T18:55:40.017862,1929552,1368,1841,-588,-1038,-578,-322,-31,119,-247
7182,8134,0,2023-03-01T18:55:40.023882,1929559,1368,1841,-588,-1038,-578,-322,-31,119,-247
7183,8135,0,2023-03-01T18:55:40.028672,1929564,1368,1841,-588,-1038,-578,-322,-31,119,-247
7184,8136,0,2023-03-01T18:55:40.033670,1929569,1365,1845,-593,-1044,-579,-330,-31,119,-247
7185,8137,0,2023-03-01T18:55:40.040802,1929576,1365,1845,-593,-1044,-579,-330,-31,119,-247
7186,8138,0,2023-03-01T18:55:40.045495,1929581,1365,1845,-593,-1044,-579,-330,-31,119,-247
7187,8139,0,2023-03-01T18:55:40.050869,1929586,1367,1845,-593,-1047,-571,-326,-31,119,-247
7188,8140,0,2023-03-01T18:55:40.057085,1929592,1367,1845,-593,-1047,-571,-326,-31,119,-247
7189,8141,0,2023-03-01T18:55:40.062681,1929597,1367,1845,-593,-1047,-571,-326,-31,119,-247
7190,8142,0,2023-03-01T18:55:40.068299,1929604,1367,1845,-593,-1047,-571,-326,-31,119,-247
7191,8143,0,2023-03-01T18:55:40.073807,1929609,1362,1845,-595,-1036,-575,-323,-31,119,-247
7192,8144,0,2023-03-01T18:55:40.079915,1929615,1362,1845,-595,-1036,-575,-323,-31,119,-247
7193,8145,0,2023-03-01T18:55:40.085575,1929620,1362,1845,-595,-1036,-575,-323,-31,119,-247
7194,8146,0,2023-03-01T18:55:40.090678,1929625,1363,1841,-590,-1035,-567,-320,-31,119,-247
7195,8147,0,2023-03-01T18:55:40.096521,1929632,1363,1841,-590,-1035,-567,-320,-31,119,-247
7196,8148,0,2023-03-01T18:55:40.102441,1929637,1363,1841,-590,-1035,-567,-320,-31,119,-247
7197,8149,0,2023-03-01T18:55:40.107026,1929643,1363,1841,-590,-1035,-567,-320,-31,119,-247
7198,8150,0,2023-03-01T18:55:40.112831,1929647,1365,1843,-596,-1040,-577,-317,-31,119,-247
7199,8151,0,2023-03-01T18:55:40.119068,1929654,1365,1843,-596,-1040,-577,-317,-31,119,-247
7200,8152,0,2023-03-01T18:55:40.124918,1929660,1365,1843,-596,-1040,-577,-317,-31,119,-247
7201,8153,0,2023-03-01T18:55:40.130421,1929665,1366,1841,-592,-1028,-579,-319,-31,119,-247
7202,8154,0,2023-03-01T18:55:40.136563,1929671,1366,1841,-592,-1028,-579,-319,-34,112,-246
7203,8155,0,2023-03-01T18:55:40.142276,1929677,1366,1841,-592,-1028,-579,-319,-34,112,-246
7204,8156,0,2023-03-01T18:55:40.147167,1929682,1366,1841,-592,-1028,-579,-319,-34,112,-246
7205,8157,0,2023-03-01T18:55:40.151903,1929688,1368,1843,-598,-1027,-576,-320,-34,112,-246
7206,8158,0,2023-03-01T18:55:40.157104,1929693,1368,1843,-598,-1027,-576,-320,-34,112,-246
7207,8159,0,2023-03-01T18:55:40.162589,1929698,1368,1843,-598,-1027,-576,-320,-34,112,-246
7208,8160,0,2023-03-01T18:55:40.167742,1929703,1368,1843,-598,-1027,-576,-320,-34,112,-246
7209,8161,0,2023-03-01T18:55:40.173096,1929708,1366,1844,-598,-1041,-566,-314,-34,112,-246
7210,8162,0,2023-03-01T18:55:40.178816,1929714,1366,1844,-598,-1041,-566,-314,-34,112,-246
7211,8163,0,2023-03-01T18:55:40.184316,1929719,1366,1844,-598,-1041,-566,-314,-34,112,-246
7212,8164,0,2023-03-01T18:55:40.189293,1929724,1366,1844,-598,-1041,-566,-314,-34,112,-246
7213,8165,0,2023-03-01T18:55:40.194930,1929730,1366,1847,-597,-1044,-566,-324,-34,112,-246
7214,8166,0,2023-03-01T18:55:40.201351,1929737,1366,1847,-597,-1044,-566,-324,-34,112,-246
7215,8167,0,2023-03-01T18:55:40.207047,1929742,1366,1847,-597,-1044,-566,-324,-34,112,-246
7216,8168,0,2023-03-01T18:55:40.212248,1929747,1364,1845,-593,-1034,-571,-324,-34,112,-246
7217,8169,0,2023-03-01T18:55:40.218412,1929753,1364,1845,-593,-1034,-571,-324,-34,112,-246
7218,8170,0,2023-03-01T18:55:40.224185,1929759,1364,1845,-593,-1034,-571,-324,-34,112,-246
7219,8171,0,2023-03-01T18:55:40.229154,1929764,1364,1845,-593,-1034,-571,-324,-34,112,-246
7220,8172,0,2023-03-01T18:55:40.234952,1929769,1368,1845,-589,-1043,-570,-321,-34,112,-246
7221,8173,0,2023-03-01T18:55:40.241059,1929777,1368,1845,-589,-1043,-570,-321,-34,112,-246
7222,8174,0,2023-03-01T18:55:40.245831,1929781,1368,1845,-589,-1043,-570,-321,-34,112,-246
7223,8175,0,2023-03-01T18:55:40.251179,1929786,1368,1847,-596,-1036,-571,-317,-34,112,-246
7224,8176,0,2023-03-01T18:55:40.257683,1929792,1368,1847,-596,-1036,-571,-317,-34,112,-246
7225,8177,0,2023-03-01T18:55:40.263508,1929798,1368,1847,-596,-1036,-571,-317,-34,112,-246
7226,8178,0,2023-03-01T18:55:40.268845,1929804,1368,1847,-596,-1036,-571,-317,-34,112,-246
7227,8179,0,2023-03-01T18:55:40.273640,1929808,1366,1842,-593,-1039,-576,-324,-31,113,-247
7228,8180,0,2023-03-01T18:55:40.279981,1929815,1366,1842,-593,-1039,-576,-324,-31,113,-247
7229,8181,0,2023-03-01T18:55:40.285239,1929820,1366,1842,-593,-1039,-576,-324,-31,113,-247
7230,8182,0,2023-03-01T18:55:40.290500,1929826,1368,1843,-591,-1038,-568,-324,-31,113,-247
7231,8183,0,2023-03-01T18:55:40.296259,1929831,1368,1843,-591,-1038,-568,-324,-31,113,-247
7232,8184,0,2023-03-01T18:55:40.301440,1929837,1368,1843,-591,-1038,-568,-324,-31,113,-247
7233,8185,0,2023-03-01T18:55:40.306137,1929841,1368,1843,-591,-1038,-568,-324,-31,113,-247
7234,8186,0,2023-03-01T18:55:40.311009,1929846,1363,1845,-590,-1033,-565,-321,-31,113,-247
7235,8187,0,2023-03-01T18:55:40.317901,1929852,1363,1845,-590,-1033,-565,-321,-31,113,-247
7236,8188,0,2023-03-01T18:55:40.323292,1929859,1363,1845,-590,-1033,-565,-321,-31,113,-247
7237,8189,0,2023-03-01T18:55:40.328137,1929864,1363,1845,-590,-1033,-565,-321,-31,113,-247
7238,8190,0,2023-03-01T18:55:40.333153,1929868,1366,1846,-594,-1037,-570,-324,-31,113,-247
7239,8191,0,2023-03-01T18:55:40.338954,1929874,1366,1846,-594,-1037,-570,-324,-31,113,-247
7240,8192,0,2023-03-01T18:55:40.344776,1929880,1366,1846,-594,-1037,-570,-324,-31,113,-247
7241,8193,0,2023-03-01T18:55:40.349391,1929884,1366,1846,-594,-1037,-570,-324,-31,113,-247
7242,8194,0,2023-03-01T18:55:40.354676,1929890,1364,1847,-593,-1033,-561,-314,-31,113,-247
7243,8195,0,2023-03-01T18:55:40.361135,1929895,1364,1847,-593,-1033,-561,-314,-31,113,-247
7244,8196,0,2023-03-01T18:55:40.366112,1929902,1364,1847,-593,-1033,-561,-314,-31,113,-247
7245,8197,0,2023-03-01T18:55:40.371134,1929906,1362,1845,-593,-1042,-568,-316,-31,113,-247
7246,8198,0,2023-03-01T18:55:40.377617,1929913,1362,1845,-593,-1042,-568,-316,-31,113,-247
7247,8199,0,2023-03-01T18:55:40.383145,1929918,1362,1845,-593,-1042,-568,-316,-31,113,-247
7248,8200,0,2023-03-01T18:55:40.387975,1929923,1362,1845,-593,-1042,-568,-316,-31,113,-247
7249,8201,0,2023-03-01T18:55:40.395279,1929930,1368,1846,-589,-1040,-572,-323,-31,115,-241
7250,8202,0,2023-03-01T18:55:40.402316,1929937,1368,1846,-589,-1040,-572,-323,-31,115,-241
7251,8203,0,2023-03-01T18:55:40.407396,1929943,1368,1846,-589,-1040,-572,-323,-31,115,-241
7252,8204,0,2023-03-01T18:55:40.411950,1929948,1365,1843,-595,-1038,-577,-323,-31,115,-241
7253,8205,0,2023-03-01T18:55:40.417493,1929953,1365,1843,-595,-1038,-577,-323,-31,115,-241
7254,8206,0,2023-03-01T18:55:40.423345,1929958,1365,1843,-595,-1038,-577,-323,-31,115,-241
7255,8207,0,2023-03-01T18:55:40.428565,1929963,1365,1843,-595,-1038,-577,-323,-31,115,-241
7256,8208,0,2023-03-01T18:55:40.433278,1929968,1365,1843,-595,-1037,-574,-323,-31,115,-241
7257,8209,0,2023-03-01T18:55:40.438922,1929974,1365,1843,-595,-1037,-574,-323,-31,115,-241
7258,8210,0,2023-03-01T18:55:40.444074,1929978,1365,1843,-595,-1037,-574,-323,-31,115,-241
7259,8211,0,2023-03-01T18:55:40.449110,1929985,1365,1843,-595,-1037,-574,-323,-31,115,-241
7260,8212,0,2023-03-01T18:55:40.454929,1929990,1364,1844,-589,-1036,-569,-319,-31,115,-241
7261,8213,0,2023-03-01T18:55:40.461047,1929996,1364,1844,-589,-1036,-569,-319,-31,115,-241
7262,8214,0,2023-03-01T18:55:40.465882,1930001,1364,1844,-589,-1036,-569,-319,-31,115,-241
7263,8215,0,2023-03-01T18:55:40.470694,1930006,1366,1847,-596,-1037,-578,-327,-31,115,-241
7264,8216,0,2023-03-01T18:55:40.476492,1930011,1366,1847,-596,-1037,-578,-327,-31,115,-241
7265,8217,0,2023-03-01T18:55:40.482127,1930017,1366,1847,-596,-1037,-578,-327,-31,115,-241
7266,8218,0,2023-03-01T18:55:40.488241,1930022,1366,1847,-596,-1037,-578,-327,-31,115,-241
7267,8219,0,2023-03-01T18:55:40.493427,1930029,1369,1843,-593,-1032,-571,-321,-31,115,-241
7268,8220,0,2023-03-01T18:55:40.500682,1930035,1369,1843,-593,-1032,-571,-321,-31,115,-241
7269,8221,0,2023-03-01T18:55:40.506511,1930041,1369,1843,-593,-1032,-571,-321,-31,115,-241
7270,8222,0,2023-03-01T18:55:40.511780,1930047,1365,1844,-595,-1041,-564,-313,-31,115,-241
7271,8223,0,2023-03-01T18:55:40.517339,1930052,1365,1844,-595,-1041,-564,-313,-31,115,-241
7272,8224,0,2023-03-01T18:55:40.522090,1930057,1365,1844,-595,-1041,-564,-313,-31,115,-241
7273,8225,0,2023-03-01T18:55:40.526849,1930062,1365,1844,-595,-1041,-564,-313,-31,115,-241
7274,8226,0,2023-03-01T18:55:40.531625,1930066,1369,1844,-590,-1043,-570,-309,-42,120,-244
7275,8227,0,2023-03-01T18:55:40.538099,1930074,1369,1844,-590,-1043,-570,-309,-42,120,-244
7276,8228,0,2023-03-01T18:55:40.544435,1930080,1369,1844,-590,-1043,-570,-309,-42,120,-244
7277,8229,0,2023-03-01T18:55:40.549666,1930085,1369,1844,-590,-1043,-570,-309,-42,120,-244
7278,8230,0,2023-03-01T18:55:40.554689,1930090,1367,1841,-597,-1046,-576,-316,-42,120,-244
7279,8231,0,2023-03-01T18:55:40.560850,1930096,1367,1841,-597,-1046,-576,-316,-42,120,-244
7280,8232,0,2023-03-01T18:55:40.565987,1930101,1367,1841,-597,-1046,-576,-316,-42,120,-244
7281,8233,0,2023-03-01T18:55:40.571437,1930106,1366,1845,-590,-1043,-574,-318,-42,120,-244
7282,8234,0,2023-03-01T18:55:40.578065,1930113,1366,1845,-590,-1043,-574,-318,-42,120,-244
7283,8235,0,2023-03-01T18:55:40.583455,1930119,1366,1845,-590,-1043,-574,-318,-42,120,-244
7284,8236,0,2023-03-01T18:55:40.588470,1930124,1366,1845,-590,-1043,-574,-318,-42,120,-244
7285,8237,0,2023-03-01T18:55:40.593642,1930129,1365,1845,-594,-1032,-574,-321,-42,120,-244
7286,8238,0,2023-03-01T18:55:40.600171,1930135,1365,1845,-594,-1032,-574,-321,-42,120,-244
7287,8239,0,2023-03-01T18:55:40.604849,1930140,1365,1845,-594,-1032,-574,-321,-42,120,-244
7288,8240,0,2023-03-01T18:55:40.609971,1930145,1365,1845,-594,-1032,-574,-321,-42,120,-244
7289,8241,0,2023-03-01T18:55:40.614878,1930149,1366,1843,-596,-1042,-579,-314,-42,120,-244
7290,8242,0,2023-03-01T18:55:40.621188,1930157,1366,1843,-596,-1042,-579,-314,-42,120,-244
7291,8243,0,2023-03-01T18:55:40.626293,1930162,1366,1843,-596,-1042,-579,-314,-42,120,-244
7292,8244,0,2023-03-01T18:55:40.631253,1930167,1363,1846,-598,-1045,-576,-320,-42,120,-244
7293,8245,0,2023-03-01T18:55:40.637133,1930172,1363,1846,-598,-1045,-576,-320,-42,120,-244
7294,8246,0,2023-03-01T18:55:40.642868,1930178,1363,1846,-598,-1045,-576,-320,-42,120,-244
7295,8247,0,2023-03-01T18:55:40.648227,1930183,1363,1846,-598,-1045,-576,-320,-42,120,-244
7296,8248,0,2023-03-01T18:55:40.653178,1930188,1366,1846,-584,-1037,-579,-316,-31,119,-245
7297,8249,0,2023-03-01T18:55:40.658632,1930193,1366,1846,-584,-1037,-579,-316,-31,119,-245
7298,8250,0,2023-03-01T18:55:40.663500,1930199,1366,1846,-584,-1037,-579,-316,-31,119,-245
7299,8251,0,2023-03-01T18:55:40.668482,1930204,1366,1846,-584,-1037,-579,-316,-31,119,-245
7300,8252,0,2023-03-01T18:55:40.673369,1930209,1366,1845,-585,-1037,-571,-321,-31,119,-245
7301,8253,0,2023-03-01T18:55:40.678528,1930214,1366,1845,-585,-1037,-571,-321,-31,119,-245
7302,8254,0,2023-03-01T18:55:40.684152,1930219,1366,1845,-585,-1037,-571,-321,-31,119,-245
7303,8255,0,2023-03-01T18:55:40.689480,1930224,1366,1845,-585,-1037,-571,-321,-31,119,-245
7304,8256,0,2023-03-01T18:55:40.694442,1930229,1366,1845,-590,-1032,-573,-319,-31,119,-245
7305,8257,0,2023-03-01T18:55:40.700386,1930235,1366,1845,-590,-1032,-573,-319,-31,119,-245
7306,8258,0,2023-03-01T18:55:40.705658,1930241,1366,1845,-590,-1032,-573,-319,-31,119,-245
7307,8259,0,2023-03-01T18:55:40.710732,1930246,1369,1844,-593,-1034,-575,-320,-31,119,-245
7308,8260,0,2023-03-01T18:55:40.716807,1930252,1369,1844,-593,-1034,-575,-320,-31,119,-245
7309,8261,0,2023-03-01T18:55:40.723118,1930258,1369,1844,-593,-1034,-575,-320,-31,119,-245
7310,8262,0,2023-03-01T18:55:40.728329,1930263,1369,1844,-593,-1034,-575,-320,-31,119,-245
7311,8263,0,2023-03-01T18:55:40.733103,1930268,1370,1845,-591,-1040,-574,-317,-31,119,-245
7312,8264,0,2023-03-01T18:55:40.738485,1930273,1370,1845,-591,-1040,-574,-317,-31,119,-245
7313,8265,0,2023-03-01T18:55:40.744908,1930279,1370,1845,-591,-1040,-574,-317,-31,119,-245
7314,8266,0,2023-03-01T18:55:40.750307,1930286,1370,1845,-591,-1040,-574,-317,-31,119,-245
7315,8267,0,2023-03-01T18:55:40.755941,1930291,1364,1845,-594,-1036,-573,-323,-31,119,-245
7316,8268,0,2023-03-01T18:55:40.762307,1930297,1364,1845,-594,-1036,-573,-323,-31,119,-245
7317,8269,0,2023-03-01T18:55:40.767377,1930303,1364,1845,-594,-1036,-573,-323,-31,119,-245
7318,8270,0,2023-03-01T18:55:40.772892,1930308,1368,1844,-598,-1038,-575,-323,-31,119,-245
7319,8271,0,2023-03-01T18:55:40.778961,1930314,1368,1844,-598,-1038,-575,-323,-31,119,-245
7320,8272,0,2023-03-01T18:55:40.784753,1930319,1368,1844,-598,-1038,-575,-323,-31,119,-245
7321,8273,0,2023-03-01T18:55:40.789972,1930324,1368,1844,-598,-1038,-575,-323,-31,119,-245
7322,8274,0,2023-03-01T18:55:40.795429,1930331,1368,1844,-588,-1039,-571,-316,-30,126,-244
7323,8275,0,2023-03-01T18:55:40.801436,1930337,1368,1844,-588,-1039,-571,-316,-30,126,-244
7324,8276,0,2023-03-01T18:55:40.806299,1930341,1368,1844,-588,-1039,-571,-316,-30,126,-244
7325,8277,0,2023-03-01T18:55:40.811195,1930346,1367,1844,-589,-1041,-567,-320,-30,126,-244
7326,8278,0,2023-03-01T18:55:40.817097,1930352,1367,1844,-589,-1041,-567,-320,-30,126,-244
7327,8279,0,2023-03-01T18:55:40.822947,1930358,1367,1844,-589,-1041,-567,-320,-30,126,-244
7328,8280,0,2023-03-01T18:55:40.829065,1930364,1367,1844,-589,-1041,-567,-320,-30,126,-244
7329,8281,0,2023-03-01T18:55:40.835422,1930370,1366,1844,-594,-1029,-573,-324,-30,126,-244
7330,8282,0,2023-03-01T18:55:40.841582,1930377,1366,1844,-594,-1029,-573,-324,-30,126,-244
7331,8283,0,2023-03-01T18:55:40.846525,1930382,1366,1844,-594,-1029,-573,-324,-30,126,-244
7332,8284,0,2023-03-01T18:55:40.851716,1930387,1367,1846,-592,-1039,-571,-331,-30,126,-244
7333,8285,0,2023-03-01T18:55:40.857600,1930393,1367,1846,-592,-1039,-571,-331,-30,126,-244
7334,8286,0,2023-03-01T18:55:40.862664,1930398,1367,1846,-592,-1039,-571,-331,-30,126,-244
7335,8287,0,2023-03-01T18:55:40.868011,1930403,1367,1846,-592,-1039,-571,-331,-30,126,-244
7336,8288,0,2023-03-01T18:55:40.872973,1930408,1367,1847,-600,-1043,-576,-322,-30,126,-244
7337,8289,0,2023-03-01T18:55:40.879210,1930415,1367,1847,-600,-1043,-576,-322,-30,126,-244
7338,8290,0,2023-03-01T18:55:40.884506,1930420,1367,1847,-600,-1043,-576,-322,-30,126,-244
7339,8291,0,2023-03-01T18:55:40.890345,1930425,1367,1847,-600,-1043,-576,-322,-30,126,-244
7340,8292,0,2023-03-01T18:55:40.896090,1930431,1367,1846,-591,-1037,-578,-315,-30,126,-244
7341,8293,0,2023-03-01T18:55:40.902675,1930437,1367,1846,-591,-1037,-578,-315,-30,126,-244
7342,8294,0,2023-03-01T18:55:40.907357,1930442,1367,1846,-591,-1037,-578,-315,-30,126,-244
7343,8295,0,2023-03-01T18:55:40.912094,1930447,1367,1846,-590,-1035,-578,-319,-29,119,-247
7344,8296,0,2023-03-01T18:55:40.917858,1930452,1367,1846,-590,-1035,-578,-319,-29,119,-247
7345,8297,0,2023-03-01T18:55:40.922921,1930459,1367,1846,-590,-1035,-578,-319,-29,119,-247
7346,8298,0,2023-03-01T18:55:40.927940,1930463,1367,1846,-590,-1035,-578,-319,-29,119,-247
7347,8299,0,2023-03-01T18:55:40.933965,1930468,1368,1843,-591,-1039,-576,-324,-29,119,-247
7348,8300,0,2023-03-01T18:55:40.940928,1930476,1368,1843,-591,-1039,-576,-324,-29,119,-247
7349,8301,0,2023-03-01T18:55:40.946730,1930481,1368,1843,-591,-1039,-576,-324,-29,119,-247
7350,8302,0,2023-03-01T18:55:40.952061,1930487,1367,1844,-596,-1033,-570,-316,-29,119,-247
7351,8303,0,2023-03-01T18:55:40.958639,1930493,1367,1844,-596,-1033,-570,-316,-29,119,-247
7352,8304,0,2023-03-01T18:55:40.964095,1930500,1367,1844,-596,-1033,-570,-316,-29,119,-247
7353,8305,0,2023-03-01T18:55:40.969151,1930505,1367,1844,-596,-1033,-570,-316,-29,119,-247
7354,8306,0,2023-03-01T18:55:40.974054,1930509,1364,1842,-593,-1035,-571,-314,-29,119,-247
7355,8307,0,2023-03-01T18:55:40.980061,1930515,1364,1842,-593,-1035,-571,-314,-29,119,-247
7356,8308,0,2023-03-01T18:55:40.984858,1930520,1364,1842,-593,-1035,-571,-314,-29,119,-247
7357,8309,0,2023-03-01T18:55:40.989936,1930525,1364,1842,-593,-1035,-571,-314,-29,119,-247
7358,8310,0,2023-03-01T18:55:40.994522,1930529,1366,1846,-594,-1036,-574,-322,-29,119,-247
7359,8311,0,2023-03-01T18:55:41.001555,1930536,1366,1846,-594,-1036,-574,-322,-29,119,-247
7360,8312,0,2023-03-01T18:55:41.006492,1930542,1366,1846,-594,-1036,-574,-322,-29,119,-247
7361,8313,0,2023-03-01T18:55:41.011754,1930547,1368,1844,-594,-1025,-575,-328,-29,119,-247
7362,8314,0,2023-03-01T18:55:41.018043,1930553,1368,1844,-594,-1025,-575,-328,-29,119,-247
7363,8315,0,2023-03-01T18:55:41.023467,1930559,1368,1844,-594,-1025,-575,-328,-29,119,-247
7364,8316,0,2023-03-01T18:55:41.028647,1930564,1368,1844,-594,-1025,-575,-328,-29,119,-247
7365,8317,0,2023-03-01T18:55:41.033430,1930569,1363,1843,-591,-1043,-573,-321,-32,116,-244
7366,8318,0,2023-03-01T18:55:41.040251,1930575,1363,1843,-591,-1043,-573,-321,-32,116,-244
7367,8319,0,2023-03-01T18:55:41.047088,1930582,1363,1843,-591,-1043,-573,-321,-32,116,-244
7368,8320,0,2023-03-01T18:55:41.052227,1930588,1365,1843,-587,-1038,-577,-322,-32,116,-244
7369,8321,0,2023-03-01T18:55:41.057965,1930593,1365,1843,-587,-1038,-577,-322,-32,116,-244
7370,8322,0,2023-03-01T18:55:41.063372,1930599,1365,1843,-587,-1038,-577,-322,-32,116,-244
7371,8323,0,2023-03-01T18:55:41.068421,1930604,1365,1843,-587,-1038,-577,-322,-32,116,-244
7372,8324,0,2023-03-01T18:55:41.073681,1930608,1368,1847,-594,-1038,-573,-331,-32,116,-244
7373,8325,0,2023-03-01T18:55:41.080100,1930615,1368,1847,-594,-1038,-573,-331,-32,116,-244
7374,8326,0,2023-03-01T18:55:41.084997,1930620,1368,1847,-594,-1038,-573,-331,-32,116,-244
7375,8327,0,2023-03-01T18:55:41.089769,1930626,1368,1847,-594,-1038,-573,-331,-32,116,-244
7376,8328,0,2023-03-01T18:55:41.095270,1930631,1369,1843,-593,-1034,-571,-318,-32,116,-244
7377,8329,0,2023-03-01T18:55:41.101453,1930637,1369,1843,-593,-1034,-571,-318,-32,116,-244
7378,8330,0,2023-03-01T18:55:41.106864,1930642,1369,1843,-593,-1034,-571,-318,-32,116,-244
7379,8331,0,2023-03-01T18:55:41.111742,1930647,1366,1840,-597,-1038,-571,-325,-32,116,-244
7380,8332,0,2023-03-01T18:55:41.117356,1930652,1366,1840,-597,-1038,-571,-325,-32,116,-244
7381,8333,0,2023-03-01T18:55:41.122563,1930657,1366,1840,-597,-1038,-571,-325,-32,116,-244
7382,8334,0,2023-03-01T18:55:41.127621,1930662,1366,1840,-597,-1038,-571,-325,-32,116,-244
7383,8335,0,2023-03-01T18:55:41.132583,1930668,1364,1846,-595,-1034,-569,-334,-32,116,-244
7384,8336,0,2023-03-01T18:55:41.139677,1930675,1364,1846,-595,-1034,-569,-334,-32,116,-244
7385,8337,0,2023-03-01T18:55:41.145841,1930681,1364,1846,-595,-1034,-569,-334,-32,116,-244
7386,8338,0,2023-03-01T18:55:41.151398,1930686,1364,1846,-595,-1034,-569,-334,-32,116,-244
7387,8339,0,2023-03-01T18:55:41.158000,1930693,1366,1848,-592,-1039,-572,-319,-32,116,-244
7388,8340,0,2023-03-01T18:55:41.163892,1930699,1366,1848,-592,-1039,-572,-319,-32,116,-244
7389,8341,0,2023-03-01T18:55:41.168997,1930704,1366,1848,-592,-1039,-572,-319,-32,116,-244
7390,8342,0,2023-03-01T18:55:41.175041,1930710,1363,1846,-587,-1043,-578,-322,-30,116,-242
7391,8343,0,2023-03-01T18:55:41.181417,1930717,1363,1846,-587,-1043,-578,-322,-30,116,-242
7392,8344,0,2023-03-01T18:55:41.186041,1930722,1363,1846,-587,-1043,-578,-322,-30,116,-242
7393,8345,0,2023-03-01T18:55:41.190590,1930726,1363,1846,-587,-1043,-578,-322,-30,116,-242
7394,8346,0,2023-03-01T18:55:41.196154,1930731,1368,1846,-587,-1037,-573,-329,-30,116,-242
7395,8347,0,2023-03-01T18:55:41.202720,1930738,1368,1846,-587,-1037,-573,-329,-30,116,-242
7396,8348,0,2023-03-01T18:55:41.208482,1930743,1368,1846,-587,-1037,-573,-329,-30,116,-242
7397,8349,0,2023-03-01T18:55:41.213690,1930748,1366,1844,-597,-1040,-568,-326,-30,116,-242
7398,8350,0,2023-03-01T18:55:41.220156,1930756,1366,1844,-597,-1040,-568,-326,-30,116,-242
7399,8351,0,2023-03-01T18:55:41.225509,1930761,1366,1844,-597,-1040,-568,-326,-30,116,-242
7400,8352,0,2023-03-01T18:55:41.230762,1930766,1366,1844,-597,-1040,-568,-326,-30,116,-242
7401,8353,0,2023-03-01T18:55:41.236702,1930772,1370,1844,-590,-1040,-569,-325,-30,116,-242
7402,8354,0,2023-03-01T18:55:41.243087,1930778,1370,1844,-590,-1040,-569,-325,-30,116,-242
7403,8355,0,2023-03-01T18:55:41.248047,1930783,1370,1844,-590,-1040,-569,-325,-30,116,-242
7404,8356,0,2023-03-01T18:55:41.253062,1930788,1367,1842,-599,-1039,-570,-322,-30,116,-242
7405,8357,0,2023-03-01T18:55:41.259601,1930795,1367,1842,-599,-1039,-570,-322,-30,116,-242
7406,8358,0,2023-03-01T18:55:41.267217,1930802,1367,1842,-599,-1039,-570,-322,-30,116,-242
7407,8359,0,2023-03-01T18:55:41.272495,1930808,1365,1842,-598,-1038,-574,-327,-30,116,-242
7408,8360,0,2023-03-01T18:55:41.278429,1930814,1365,1842,-598,-1038,-574,-327,-30,116,-242
7409,8361,0,2023-03-01T18:55:41.284352,1930819,1365,1842,-598,-1038,-574,-327,-30,116,-242
7410,8362,0,2023-03-01T18:55:41.289572,1930824,1365,1842,-598,-1038,-574,-327,-30,116,-242
7411,8363,0,2023-03-01T18:55:41.295296,1930830,1367,1849,-590,-1036,-572,-326,-30,114,-246
7412,8364,0,2023-03-01T18:55:41.301572,1930836,1367,1849,-590,-1036,-572,-326,-30,114,-246
7413,8365,0,2023-03-01T18:55:41.306902,1930842,1367,1849,-590,-1036,-572,-326,-30,114,-246
7414,8366,0,2023-03-01T18:55:41.311761,1930847,1365,1847,-594,-1036,-573,-318,-30,114,-246
7415,8367,0,2023-03-01T18:55:41.317160,1930852,1365,1847,-594,-1036,-573,-318,-30,114,-246
7416,8368,0,2023-03-01T18:55:41.323210,1930858,1365,1847,-594,-1036,-573,-318,-30,114,-246
7417,8369,0,2023-03-01T18:55:41.328126,1930863,1365,1847,-594,-1036,-573,-318,-30,114,-246
7418,8370,0,2023-03-01T18:55:41.333352,1930868,1363,1844,-592,-1043,-573,-327,-30,114,-246
7419,8371,0,2023-03-01T18:55:41.339537,1930874,1363,1844,-592,-1043,-573,-327,-30,114,-246
7420,8372,0,2023-03-01T18:55:41.346008,1930881,1363,1844,-592,-1043,-573,-327,-30,114,-246
7421,8373,0,2023-03-01T18:55:41.350937,1930887,1363,1844,-592,-1043,-573,-327,-30,114,-246
7422,8374,0,2023-03-01T18:55:41.355756,1930891,1368,1843,-599,-1045,-570,-321,-30,114,-246
7423,8375,0,2023-03-01T18:55:41.362487,1930897,1368,1843,-599,-1045,-570,-321,-30,114,-246
7424,8376,0,2023-03-01T18:55:41.368030,1930903,1368,1843,-599,-1045,-570,-321,-30,114,-246
7425,8377,0,2023-03-01T18:55:41.373580,1930908,1366,1843,-595,-1037,-574,-326,-30,114,-246
7426,8378,0,2023-03-01T18:55:41.379468,1930914,1366,1843,-595,-1037,-574,-326,-30,114,-246
7427,8379,0,2023-03-01T18:55:41.385054,1930920,1366,1843,-595,-1037,-574,-326,-30,114,-246
7428,8380,0,2023-03-01T18:55:41.389962,1930925,1366,1843,-595,-1037,-574,-326,-30,114,-246
7429,8381,0,2023-03-01T18:55:41.395041,1930930,1363,1848,-591,-1041,-575,-321,-30,114,-246
7430,8382,0,2023-03-01T18:55:41.401830,1930937,1363,1848,-591,-1041,-575,-321,-30,114,-246
7431,8383,0,2023-03-01T18:55:41.406799,1930942,1363,1848,-591,-1041,-575,-321,-30,114,-246
7432,8384,0,2023-03-01T18:55:41.411826,1930947,1369,1844,-595,-1042,-580,-321,-30,114,-246
7433,8385,0,2023-03-01T18:55:41.418742,1930953,1369,1844,-595,-1042,-580,-321,-30,114,-246
7434,8386,0,2023-03-01T18:55:41.424619,1930959,1369,1844,-595,-1042,-580,-321,-30,114,-246
7435,8387,0,2023-03-01T18:55:41.430258,1930966,1369,1844,-595,-1042,-580,-321,-30,114,-246
7436,8388,0,2023-03-01T18:55:41.436056,1930971,1368,1847,-588,-1035,-577,-321,-22,112,-240
7437,8389,0,2023-03-01T18:55:41.441828,1930977,1368,1847,-588,-1035,-577,-321,-22,112,-240
7438,8390,0,2023-03-01T18:55:41.446439,1930982,1368,1847,-588,-1035,-577,-321,-22,112,-240
7439,8391,0,2023-03-01T18:55:41.451391,1930986,1368,1847,-588,-1035,-577,-321,-22,112,-240
7440,8392,0,2023-03-01T18:55:41.457529,1930992,1366,1845,-591,-1035,-574,-318,-22,112,-240
7441,8393,0,2023-03-01T18:55:41.463642,1930999,1366,1845,-591,-1035,-574,-318,-22,112,-240
7442,8394,0,2023-03-01T18:55:41.469077,1931003,1366,1845,-591,-1035,-574,-318,-22,112,-240
7443,8395,0,2023-03-01T18:55:41.474843,1931010,1368,1844,-593,-1041,-576,-315,-22,112,-240
7444,8396,0,2023-03-01T18:55:41.482597,1931017,1368,1844,-593,-1041,-576,-315,-22,112,-240
7445,8397,0,2023-03-01T18:55:41.488354,1931024,1368,1844,-593,-1041,-576,-315,-22,112,-240
7446,8398,0,2023-03-01T18:55:41.493341,1931028,1365,1845,-590,-1040,-570,-318,-22,112,-240
7447,8399,0,2023-03-01T18:55:41.498825,1931034,1365,1845,-590,-1040,-570,-318,-22,112,-240
7448,8400,0,2023-03-01T18:55:41.504152,1931039,1365,1845,-590,-1040,-570,-318,-22,112,-240
7449,8401,0,2023-03-01T18:55:41.509432,1931044,1365,1845,-590,-1040,-570,-318,-22,112,-240
7450,8402,0,2023-03-01T18:55:41.515163,1931051,1367,1842,-597,-1037,-568,-306,-22,112,-240
7451,8403,0,2023-03-01T18:55:41.521002,1931056,1367,1842,-597,-1037,-568,-306,-22,112,-240
7452,8404,0,2023-03-01T18:55:41.525960,1931061,1367,1842,-597,-1037,-568,-306,-22,112,-240
7453,8405,0,2023-03-01T18:55:41.530968,1931066,1367,1842,-597,-1037,-568,-306,-22,112,-240
7454,8406,0,2023-03-01T18:55:41.537374,1931072,1364,1840,-592,-1027,-569,-318,-22,112,-240
7455,8407,0,2023-03-01T18:55:41.543430,1931078,1364,1840,-592,-1027,-569,-318,-22,112,-240
7456,8408,0,2023-03-01T18:55:41.549350,1931084,1364,1840,-592,-1027,-569,-318,-22,112,-240
7457,8409,0,2023-03-01T18:55:41.555739,1931090,1367,1844,-589,-1034,-573,-331,-35,115,-253
7458,8410,0,2023-03-01T18:55:41.562034,1931098,1367,1844,-589,-1034,-573,-331,-35,115,-253
7459,8411,0,2023-03-01T18:55:41.566822,1931102,1367,1844,-589,-1034,-573,-331,-35,115,-253
7460,8412,0,2023-03-01T18:55:41.571533,1931107,1367,1844,-589,-1034,-573,-331,-35,115,-253
7461,8413,0,2023-03-01T18:55:41.576376,1931111,1367,1844,-593,-1047,-567,-322,-35,115,-253
7462,8414,0,2023-03-01T18:55:41.582704,1931118,1367,1844,-593,-1047,-567,-322,-35,115,-253
7463,8415,0,2023-03-01T18:55:41.588328,1931123,1367,1844,-593,-1047,-567,-322,-35,115,-253
7464,8416,0,2023-03-01T18:55:41.595211,1931130,1366,1842,-589,-1044,-584,-322,-35,115,-253
7465,8417,0,2023-03-01T18:55:41.602051,1931138,1366,1842,-589,-1044,-584,-322,-35,115,-253
7466,8418,0,2023-03-01T18:55:41.607340,1931142,1366,1842,-589,-1044,-584,-322,-35,115,-253
7467,8419,0,2023-03-01T18:55:41.612778,1931148,1368,1844,-591,-1041,-577,-323,-35,115,-253
7468,8420,0,2023-03-01T18:55:41.619160,1931154,1368,1844,-591,-1041,-577,-323,-35,115,-253
7469,8421,0,2023-03-01T18:55:41.624611,1931160,1368,1844,-591,-1041,-577,-323,-35,115,-253
7470,8422,0,2023-03-01T18:55:41.629398,1931165,1368,1844,-591,-1041,-577,-323,-35,115,-253
7471,8423,0,2023-03-01T18:55:41.634805,1931170,1367,1842,-597,-1045,-571,-324,-35,115,-253
7472,8424,0,2023-03-01T18:55:41.640663,1931175,1367,1842,-597,-1045,-571,-324,-35,115,-253
7473,8425,0,2023-03-01T18:55:41.646064,1931181,1367,1842,-597,-1045,-571,-324,-35,115,-253
7474,8426,0,2023-03-01T18:55:41.650989,1931186,1367,1842,-597,-1045,-571,-324,-35,115,-253
7475,8427,0,2023-03-01T18:55:41.656374,1931192,1365,1842,-594,-1042,-571,-327,-35,115,-253
7476,8428,0,2023-03-01T18:55:41.662009,1931197,1365,1842,-594,-1042,-571,-327,-35,115,-253
7477,8429,0,2023-03-01T18:55:41.667411,1931202,1365,1842,-594,-1042,-571,-327,-35,115,-253
7478,8430,0,2023-03-01T18:55:41.672429,1931207,1368,1844,-594,-1040,-576,-326,-35,115,-253
7479,8431,0,2023-03-01T18:55:41.678607,1931214,1368,1844,-594,-1040,-576,-326,-35,115,-253
7480,8432,0,2023-03-01T18:55:41.683841,1931219,1368,1844,-594,-1040,-576,-326,-35,115,-253
7481,8433,0,2023-03-01T18:55:41.689042,1931224,1368,1844,-594,-1040,-576,-326,-35,115,-253
7482,8434,0,2023-03-01T18:55:41.694599,1931230,1365,1842,-592,-1034,-581,-324,-39,113,-249
7483,8435,0,2023-03-01T18:55:41.702878,1931238,1365,1842,-592,-1034,-581,-324,-39,113,-249
7484,8436,0,2023-03-01T18:55:41.707992,1931243,1365,1842,-592,-1034,-581,-324,-39,113,-249
7485,8437,0,2023-03-01T18:55:41.713094,1931248,1366,1843,-594,-1040,-583,-322,-39,113,-249
7486,8438,0,2023-03-01T18:55:41.719760,1931254,1366,1843,-594,-1040,-583,-322,-39,113,-249
7487,8439,0,2023-03-01T18:55:41.725547,1931260,1366,1843,-594,-1040,-583,-322,-39,113,-249
7488,8440,0,2023-03-01T18:55:41.730626,1931266,1366,1843,-594,-1040,-583,-322,-39,113,-249
7489,8441,0,2023-03-01T18:55:41.735408,1931271,1364,1846,-596,-1036,-575,-331,-39,113,-249
7490,8442,0,2023-03-01T18:55:41.741465,1931277,1364,1846,-596,-1036,-575,-331,-39,113,-249
7491,8443,0,2023-03-01T18:55:41.747076,1931282,1364,1846,-596,-1036,-575,-331,-39,113,-249
7492,8444,0,2023-03-01T18:55:41.752289,1931287,1364,1846,-596,-1036,-575,-331,-39,113,-249
7493,8445,0,2023-03-01T18:55:41.758311,1931293,1366,1844,-593,-1040,-579,-329,-39,113,-249
7494,8446,0,2023-03-01T18:55:41.764614,1931299,1366,1844,-593,-1040,-579,-329,-39,113,-249
7495,8447,0,2023-03-01T18:55:41.769581,1931304,1366,1844,-593,-1040,-579,-329,-39,113,-249
7496,8448,0,2023-03-01T18:55:41.774363,1931310,1362,1845,-593,-1039,-575,-320,-39,113,-249
7497,8449,0,2023-03-01T18:55:41.780176,1931316,1362,1845,-593,-1039,-575,-320,-39,113,-249
7498,8450,0,2023-03-01T18:55:41.785414,1931320,1362,1845,-593,-1039,-575,-320,-39,113,-249
7499,8451,0,2023-03-01T18:55:41.790979,1931326,1362,1845,-593,-1039,-575,-320,-39,113,-249
7500,8452,0,2023-03-01T18:55:41.796953,1931332,1368,1842,-588,-1030,-565,-322,-39,113,-249
7501,8453,0,2023-03-01T18:55:41.803282,1931338,1368,1842,-588,-1030,-565,-322,-39,113,-249
7502,8454,0,2023-03-01T18:55:41.808376,1931343,1368,1842,-588,-1030,-565,-322,-39,113,-249
7503,8455,0,2023-03-01T18:55:41.815374,1931351,1365,1846,-592,-1031,-563,-321,-30,116,-250
7504,8456,0,2023-03-01T18:55:41.821601,1931357,1365,1846,-592,-1031,-563,-321,-30,116,-250
7505,8457,0,2023-03-01T18:55:41.827521,1931362,1365,1846,-592,-1031,-563,-321,-30,116,-250
7506,8458,0,2023-03-01T18:55:41.832788,1931368,1365,1845,-589,-1037,-571,-327,-30,116,-250
7507,8459,0,2023-03-01T18:55:41.839548,1931374,1365,1845,-589,-1037,-571,-327,-30,116,-250
7508,8460,0,2023-03-01T18:55:41.845470,1931380,1365,1845,-589,-1037,-571,-327,-30,116,-250
7509,8461,0,2023-03-01T18:55:41.850319,1931385,1365,1845,-589,-1037,-571,-327,-30,116,-250
7510,8462,0,2023-03-01T18:55:41.855504,1931390,1368,1844,-591,-1038,-570,-317,-30,116,-250
7511,8463,0,2023-03-01T18:55:41.862014,1931397,1368,1844,-591,-1038,-570,-317,-30,116,-250
7512,8464,0,2023-03-01T18:55:41.867808,1931403,1368,1844,-591,-1038,-570,-317,-30,116,-250
7513,8465,0,2023-03-01T18:55:41.872870,1931408,1367,1843,-593,-1041,-574,-322,-30,116,-250
7514,8466,0,2023-03-01T18:55:41.878878,1931414,1367,1843,-593,-1041,-574,-322,-30,116,-250
7515,8467,0,2023-03-01T18:55:41.884783,1931420,1367,1843,-593,-1041,-574,-322,-30,116,-250
7516,8468,0,2023-03-01T18:55:41.889659,1931424,1367,1843,-593,-1041,-574,-322,-30,116,-250
7517,8469,0,2023-03-01T18:55:41.896475,1931431,1368,1841,-589,-1035,-572,-323,-30,116,-250
7518,8470,0,2023-03-01T18:55:41.903460,1931439,1368,1841,-589,-1035,-572,-323,-30,116,-250
7519,8471,0,2023-03-01T18:55:41.908250,1931444,1368,1841,-589,-1035,-572,-323,-30,116,-250
7520,8472,0,2023-03-01T18:55:41.913749,1931449,1366,1844,-593,-1036,-574,-327,-30,116,-250
7521,8473,0,2023-03-01T18:55:41.920436,1931455,1366,1844,-593,-1036,-574,-327,-30,116,-250
7522,8474,0,2023-03-01T18:55:41.926272,1931461,1366,1844,-593,-1036,-574,-327,-30,116,-250
7523,8475,0,2023-03-01T18:55:41.931341,1931466,1366,1844,-593,-1036,-574,-327,-30,116,-250
7524,8476,0,2023-03-01T18:55:41.936445,1931471,1366,1842,-585,-1040,-571,-322,-24,108,-244
7525,8477,0,2023-03-01T18:55:41.942706,1931478,1366,1842,-585,-1040,-571,-322,-24,108,-244
7526,8478,0,2023-03-01T18:55:41.947902,1931483,1366,1842,-585,-1040,-571,-322,-24,108,-244
7527,8479,0,2023-03-01T18:55:41.953030,1931488,1365,1842,-593,-1033,-567,-320,-24,108,-244
7528,8480,0,2023-03-01T18:55:41.958885,1931494,1365,1842,-593,-1033,-567,-320,-24,108,-244
7529,8481,0,2023-03-01T18:55:41.964090,1931499,1365,1842,-593,-1033,-567,-320,-24,108,-244
7530,8482,0,2023-03-01T18:55:41.969323,1931504,1365,1842,-593,-1033,-567,-320,-24,108,-244
7531,8483,0,2023-03-01T18:55:41.974225,1931509,1365,1844,-597,-1031,-569,-326,-24,108,-244
7532,8484,0,2023-03-01T18:55:41.980069,1931515,1365,1844,-597,-1031,-569,-326,-24,108,-244
7533,8485,0,2023-03-01T18:55:41.985371,1931521,1365,1844,-597,-1031,-569,-326,-24,108,-244
7534,8486,0,2023-03-01T18:55:41.990383,1931526,1365,1844,-597,-1031,-569,-326,-24,108,-244
7535,8487,0,2023-03-01T18:55:41.995689,1931531,1364,1842,-592,-1044,-579,-327,-24,108,-244
7536,8488,0,2023-03-01T18:55:42.002292,1931537,1364,1842,-592,-1044,-579,-327,-24,108,-244
7537,8489,0,2023-03-01T18:55:42.007048,1931542,1364,1842,-592,-1044,-579,-327,-24,108,-244
7538,8490,0,2023-03-01T18:55:42.011943,1931547,1364,1842,-592,-1044,-579,-327,-24,108,-244
7539,8491,0,2023-03-01T18:55:42.016426,1931552,1364,1842,-591,-1039,-574,-323,-24,108,-244
7540,8492,0,2023-03-01T18:55:42.022392,1931557,1364,1842,-591,-1039,-574,-323,-24,108,-244
7541,8493,0,2023-03-01T18:55:42.027508,1931563,1364,1842,-591,-1039,-574,-323,-24,108,-244
7542,8494,0,2023-03-01T18:55:42.032912,1931568,1367,1843,-589,-1035,-564,-330,-24,108,-244
7543,8495,0,2023-03-01T18:55:42.040619,1931576,1367,1843,-589,-1035,-564,-330,-24,108,-244
7544,8496,0,2023-03-01T18:55:42.046183,1931582,1367,1843,-589,-1035,-564,-330,-24,108,-244
7545,8497,0,2023-03-01T18:55:42.051096,1931586,1367,1843,-589,-1035,-564,-330,-24,108,-244
7546,8498,0,2023-03-01T18:55:42.056030,1931591,1368,1843,-600,-1045,-580,-322,-24,108,-244
7547,8499,0,2023-03-01T18:55:42.061831,1931597,1368,1843,-600,-1045,-580,-322,-24,108,-244
7548,8500,0,2023-03-01T18:55:42.067031,1931602,1368,1843,-600,-1045,-580,-322,-24,108,-244
7549,8501,0,2023-03-01T18:55:42.071928,1931608,1368,1843,-600,-1045,-580,-322,-24,108,-244
7550,8502,0,2023-03-01T18:55:42.077416,1931613,1365,1844,-597,-1044,-577,-324,-25,111,-243
7551,8503,0,2023-03-01T18:55:42.082949,1931618,1365,1844,-597,-1044,-577,-324,-25,111,-243
7552,8504,0,2023-03-01T18:55:42.087853,1931623,1365,1844,-597,-1044,-577,-324,-25,111,-243
7553,8505,0,2023-03-01T18:55:42.093160,1931628,1364,1843,-591,-1040,-577,-319,-25,111,-243
7554,8506,0,2023-03-01T18:55:42.097961,1931633,1364,1843,-591,-1040,-577,-319,-25,111,-243
7555,8507,0,2023-03-01T18:55:42.103173,1931638,1364,1843,-591,-1040,-577,-319,-25,111,-243
7556,8508,0,2023-03-01T18:55:42.108237,1931643,1364,1843,-591,-1040,-577,-319,-25,111,-243
7557,8509,0,2023-03-01T18:55:42.113544,1931649,1366,1845,-594,-1028,-569,-321,-25,111,-243
7558,8510,0,2023-03-01T18:55:42.120091,1931656,1366,1845,-594,-1028,-569,-321,-25,111,-243
7559,8511,0,2023-03-01T18:55:42.125790,1931661,1366,1845,-594,-1028,-569,-321,-25,111,-243
7560,8512,0,2023-03-01T18:55:42.130854,1931666,1366,1845,-594,-1028,-569,-321,-25,111,-243
7561,8513,0,2023-03-01T18:55:42.136043,1931671,1371,1842,-596,-1041,-570,-332,-25,111,-243
7562,8514,0,2023-03-01T18:55:42.142425,1931677,1371,1842,-596,-1041,-570,-332,-25,111,-243
7563,8515,0,2023-03-01T18:55:42.147455,1931682,1371,1842,-596,-1041,-570,-332,-25,111,-243
7564,8516,0,2023-03-01T18:55:42.152562,1931687,1371,1842,-596,-1041,-570,-332,-25,111,-243
7565,8517,0,2023-03-01T18:55:42.157377,1931693,1370,1844,-594,-1044,-572,-327,-25,111,-243
7566,8518,0,2023-03-01T18:55:42.163438,1931699,1370,1844,-594,-1044,-572,-327,-25,111,-243
7567,8519,0,2023-03-01T18:55:42.168536,1931704,1370,1844,-594,-1044,-572,-327,-25,111,-243
7568,8520,0,2023-03-01T18:55:42.173622,1931709,1366,1842,-598,-1038,-567,-330,-25,111,-243
7569,8521,0,2023-03-01T18:55:42.180071,1931715,1366,1842,-598,-1038,-567,-330,-25,111,-243
7570,8522,0,2023-03-01T18:55:42.185915,1931721,1366,1842,-598,-1038,-567,-330,-25,111,-243
7571,8523,0,2023-03-01T18:55:42.190934,1931726,1366,1842,-598,-1038,-567,-330,-25,111,-243
7572,8524,0,2023-03-01T18:55:42.196820,1931731,1366,1845,-596,-1040,-574,-321,-34,118,-244
7573,8525,0,2023-03-01T18:55:42.203267,1931739,1366,1845,-596,-1040,-574,-321,-34,118,-244
7574,8526,0,2023-03-01T18:55:42.208437,1931744,1366,1845,-596,-1040,-574,-321,-34,118,-244
7575,8527,0,2023-03-01T18:55:42.213437,1931749,1367,1846,-590,-1046,-572,-322,-34,118,-244
7576,8528,0,2023-03-01T18:55:42.219820,1931755,1367,1846,-590,-1046,-572,-322,-34,118,-244
7577,8529,0,2023-03-01T18:55:42.226149,1931761,1367,1846,-590,-1046,-572,-322,-34,118,-244
7578,8530,0,2023-03-01T18:55:42.231159,1931766,1367,1846,-590,-1046,-572,-322,-34,118,-244
7579,8531,0,2023-03-01T18:55:42.236118,1931771,1366,1845,-597,-1042,-576,-320,-34,118,-244
7580,8532,0,2023-03-01T18:55:42.242044,1931778,1366,1845,-597,-1042,-576,-320,-34,118,-244
7581,8533,0,2023-03-01T18:55:42.247145,1931782,1366,1845,-597,-1042,-576,-320,-34,118,-244
7582,8534,0,2023-03-01T18:55:42.252386,1931788,1366,1845,-597,-1042,-576,-320,-34,118,-244
7583,8535,0,2023-03-01T18:55:42.259254,1931793,1363,1843,-594,-1045,-567,-327,-34,118,-244
7584,8536,0,2023-03-01T18:55:42.265686,1931801,1363,1843,-594,-1045,-567,-327,-34,118,-244
7585,8537,0,2023-03-01T18:55:42.270422,1931806,1363,1843,-594,-1045,-567,-327,-34,118,-244
7586,8538,0,2023-03-01T18:55:42.275904,1931810,1366,1839,-598,-1034,-570,-323,-34,118,-244
7587,8539,0,2023-03-01T18:55:42.282780,1931817,1366,1839,-598,-1034,-570,-323,-34,118,-244
7588,8540,0,2023-03-01T18:55:42.287779,1931823,1366,1839,-598,-1034,-570,-323,-34,118,-244
7589,8541,0,2023-03-01T18:55:42.292802,1931828,1364,1843,-594,-1033,-575,-328,-34,118,-244
7590,8542,0,2023-03-01T18:55:42.298994,1931834,1364,1843,-594,-1033,-575,-328,-34,118,-244
7591,8543,0,2023-03-01T18:55:42.304556,1931840,1364,1843,-594,-1033,-575,-328,-34,118,-244
7592,8544,0,2023-03-01T18:55:42.309456,1931844,1364,1843,-594,-1033,-575,-328,-34,118,-244
7593,8545,0,2023-03-01T18:55:42.314790,1931850,1368,1842,-597,-1033,-572,-325,-34,118,-244
7594,8546,0,2023-03-01T18:55:42.321844,1931857,1368,1842,-597,-1033,-572,-325,-34,118,-244
7595,8547,0,2023-03-01T18:55:42.327050,1931862,1368,1842,-597,-1033,-572,-325,-34,118,-244
7596,8548,0,2023-03-01T18:55:42.332690,1931868,1368,1842,-597,-1033,-572,-325,-34,118,-244
7597,8549,0,2023-03-01T18:55:42.339005,1931874,1365,1844,-591,-1030,-571,-327,-26,116,-244
7598,8550,0,2023-03-01T18:55:42.346101,1931881,1365,1844,-591,-1030,-571,-327,-26,116,-244
7599,8551,0,2023-03-01T18:55:42.351217,1931886,1365,1844,-591,-1030,-571,-327,-26,116,-244
7600,8552,0,2023-03-01T18:55:42.356283,1931891,1364,1842,-594,-1038,-575,-322,-26,116,-244
7601,8553,0,2023-03-01T18:55:42.363174,1931898,1364,1842,-594,-1038,-575,-322,-26,116,-244
7602,8554,0,2023-03-01T18:55:42.368907,1931904,1364,1842,-594,-1038,-575,-322,-26,116,-244
7603,8555,0,2023-03-01T18:55:42.374157,1931910,1369,1847,-595,-1038,-579,-330,-26,116,-244
7604,8556,0,2023-03-01T18:55:42.380336,1931916,1369,1847,-595,-1038,-579,-330,-26,116,-244
7605,8557,0,2023-03-01T18:55:42.385314,1931921,1369,1847,-595,-1038,-579,-330,-26,116,-244
7606,8558,0,2023-03-01T18:55:42.390575,1931925,1369,1847,-595,-1038,-579,-330,-26,116,-244
7607,8559,0,2023-03-01T18:55:42.395331,1931931,1366,1841,-593,-1046,-568,-327,-26,116,-244
7608,8560,0,2023-03-01T18:55:42.402246,1931937,1366,1841,-593,-1046,-568,-327,-26,116,-244
7609,8561,0,2023-03-01T18:55:42.407459,1931942,1366,1841,-593,-1046,-568,-327,-26,116,-244
7610,8562,0,2023-03-01T18:55:42.412637,1931948,1366,1841,-593,-1046,-568,-327,-26,116,-244
7611,8563,0,2023-03-01T18:55:42.418416,1931954,1366,1843,-597,-1039,-570,-328,-26,116,-244
7612,8564,0,2023-03-01T18:55:42.424439,1931960,1366,1843,-597,-1039,-570,-328,-26,116,-244
7613,8565,0,2023-03-01T18:55:42.429768,1931965,1366,1843,-597,-1039,-570,-328,-26,116,-244
7614,8566,0,2023-03-01T18:55:42.435327,1931971,1366,1846,-592,-1037,-567,-320,-26,116,-244
7615,8567,0,2023-03-01T18:55:42.440692,1931975,1366,1846,-592,-1037,-567,-320,-26,116,-244
7616,8568,0,2023-03-01T18:55:42.445737,1931980,1366,1846,-592,-1037,-567,-320,-26,116,-244
7617,8569,0,2023-03-01T18:55:42.450759,1931986,1366,1846,-592,-1037,-567,-320,-26,116,-244
7618,8570,0,2023-03-01T18:55:42.457006,1931992,1368,1845,-590,-1039,-570,-317,-32,110,-242
7619,8571,0,2023-03-01T18:55:42.463703,1931999,1368,1845,-590,-1039,-570,-317,-32,110,-242
7620,8572,0,2023-03-01T18:55:42.469344,1932004,1368,1845,-590,-1039,-570,-317,-32,110,-242
7621,8573,0,2023-03-01T18:55:42.474138,1932009,1366,1845,-591,-1040,-573,-321,-32,110,-242
7622,8574,0,2023-03-01T18:55:42.480677,1932016,1366,1845,-591,-1040,-573,-321,-32,110,-242
7623,8575,0,2023-03-01T18:55:42.485656,1932021,1366,1845,-591,-1040,-573,-321,-32,110,-242
7624,8576,0,2023-03-01T18:55:42.490640,1932026,1366,1845,-591,-1040,-573,-321,-32,110,-242
7625,8577,0,2023-03-01T18:55:42.495430,1932030,1365,1843,-597,-1047,-573,-327,-32,110,-242
7626,8578,0,2023-03-01T18:55:42.501747,1932037,1365,1843,-597,-1047,-573,-327,-32,110,-242
7627,8579,0,2023-03-01T18:55:42.507163,1932042,1365,1843,-597,-1047,-573,-327,-32,110,-242
7628,8580,0,2023-03-01T18:55:42.511962,1932048,1365,1843,-597,-1047,-573,-327,-32,110,-242
7629,8581,0,2023-03-01T18:55:42.516482,1932052,1367,1845,-595,-1037,-572,-322,-32,110,-242
7630,8582,0,2023-03-01T18:55:42.522307,1932057,1367,1845,-595,-1037,-572,-322,-32,110,-242
7631,8583,0,2023-03-01T18:55:42.527017,1932062,1367,1845,-595,-1037,-572,-322,-32,110,-242
7632,8584,0,2023-03-01T18:55:42.531862,1932067,1367,1845,-595,-1037,-572,-322,-32,110,-242
7633,8585,0,2023-03-01T18:55:42.537935,1932072,1368,1846,-596,-1039,-575,-321,-32,110,-242
7634,8586,0,2023-03-01T18:55:42.543650,1932079,1368,1846,-596,-1039,-575,-321,-32,110,-242
7635,8587,0,2023-03-01T18:55:42.548869,1932084,1368,1846,-596,-1039,-575,-321,-32,110,-242
7636,8588,0,2023-03-01T18:55:42.554270,1932090,1368,1841,-598,-1037,-577,-318,-32,110,-242
7637,8589,0,2023-03-01T18:55:42.561661,1932097,1368,1841,-598,-1037,-577,-318,-32,110,-242
7638,8590,0,2023-03-01T18:55:42.566474,1932102,1368,1841,-598,-1037,-577,-318,-32,110,-242
7639,8591,0,2023-03-01T18:55:42.571084,1932106,1368,1841,-598,-1037,-577,-318,-32,110,-242
7640,8592,0,2023-03-01T18:55:42.577622,1932111,1367,1844,-595,-1034,-572,-322,-32,110,-242
7641,8593,0,2023-03-01T18:55:42.584170,1932119,1367,1844,-595,-1034,-572,-322,-32,110,-242
7642,8594,0,2023-03-01T18:55:42.589499,1932125,1367,1844,-595,-1034,-572,-322,-32,110,-242
7643,8595,0,2023-03-01T18:55:42.594497,1932130,1368,1844,-592,-1030,-573,-321,-32,112,-248
7644,8596,0,2023-03-01T18:55:42.600085,1932136,1368,1844,-592,-1030,-573,-321,-32,112,-248
7645,8597,0,2023-03-01T18:55:42.604951,1932140,1368,1844,-592,-1030,-573,-321,-32,112,-248
7646,8598,0,2023-03-01T18:55:42.609617,1932145,1368,1844,-592,-1030,-573,-321,-32,112,-248
7647,8599,0,2023-03-01T18:55:42.614467,1932149,1368,1844,-596,-1042,-575,-316,-32,112,-248
7648,8600,0,2023-03-01T18:55:42.620821,1932156,1368,1844,-596,-1042,-575,-316,-32,112,-248
7649,8601,0,2023-03-01T18:55:42.625702,1932161,1368,1844,-596,-1042,-575,-316,-32,112,-248
7650,8602,0,2023-03-01T18:55:42.630788,1932166,1368,1844,-596,-1042,-575,-316,-32,112,-248
7651,8603,0,2023-03-01T18:55:42.635936,1932171,1367,1845,-590,-1039,-572,-319,-32,112,-248
7652,8604,0,2023-03-01T18:55:42.642629,1932178,1367,1845,-590,-1039,-572,-319,-32,112,-248
7653,8605,0,2023-03-01T18:55:42.647820,1932183,1367,1845,-590,-1039,-572,-319,-32,112,-248
7654,8606,0,2023-03-01T18:55:42.652974,1932188,1367,1845,-590,-1039,-572,-319,-32,112,-248
7655,8607,0,2023-03-01T18:55:42.658947,1932194,1366,1844,-593,-1034,-569,-317,-32,112,-248
7656,8608,0,2023-03-01T18:55:42.664677,1932199,1366,1844,-593,-1034,-569,-317,-32,112,-248
7657,8609,0,2023-03-01T18:55:42.669947,1932206,1366,1844,-593,-1034,-569,-317,-32,112,-248
7658,8610,0,2023-03-01T18:55:42.674687,1932210,1366,1846,-596,-1025,-582,-323,-32,112,-248
7659,8611,0,2023-03-01T18:55:42.680958,1932216,1366,1846,-596,-1025,-582,-323,-32,112,-248
7660,8612,0,2023-03-01T18:55:42.686567,1932221,1366,1846,-596,-1025,-582,-323,-32,112,-248
7661,8613,0,2023-03-01T18:55:42.693444,1932228,1366,1846,-596,-1025,-582,-323,-32,112,-248
7662,8614,0,2023-03-01T18:55:42.699691,1932234,1366,1841,-596,-1040,-566,-330,-32,112,-248
7663,8615,0,2023-03-01T18:55:42.706396,1932241,1366,1841,-596,-1040,-566,-330,-32,112,-248
7664,8616,0,2023-03-01T18:55:42.711093,1932247,1366,1841,-596,-1040,-566,-330,-32,112,-248
7665,8617,0,2023-03-01T18:55:42.716130,1932251,1371,1845,-593,-1048,-569,-322,-35,113,-245
7666,8618,0,2023-03-01T18:55:42.722123,1932257,1371,1845,-593,-1048,-569,-322,-35,113,-245
7667,8619,0,2023-03-01T18:55:42.728204,1932263,1371,1845,-593,-1048,-569,-322,-35,113,-245
7668,8620,0,2023-03-01T18:55:42.733616,1932269,1368,1842,-593,-1034,-570,-320,-35,113,-245
7669,8621,0,2023-03-01T18:55:42.739935,1932275,1368,1842,-593,-1034,-570,-320,-35,113,-245
7670,8622,0,2023-03-01T18:55:42.745761,1932280,1368,1842,-593,-1034,-570,-320,-35,113,-245
7671,8623,0,2023-03-01T18:55:42.751330,1932286,1368,1842,-593,-1034,-570,-320,-35,113,-245
7672,8624,0,2023-03-01T18:55:42.757456,1932292,1370,1843,-590,-1041,-564,-325,-35,113,-245
7673,8625,0,2023-03-01T18:55:42.763602,1932299,1370,1843,-590,-1041,-564,-325,-35,113,-245
7674,8626,0,2023-03-01T18:55:42.768748,1932304,1370,1843,-590,-1041,-564,-325,-35,113,-245
7675,8627,0,2023-03-01T18:55:42.773807,1932309,1368,1842,-599,-1037,-568,-315,-35,113,-245
7676,8628,0,2023-03-01T18:55:42.780229,1932315,1368,1842,-599,-1037,-568,-315,-35,113,-245
7677,8629,0,2023-03-01T18:55:42.786427,1932321,1368,1842,-599,-1037,-568,-315,-35,113,-245
7678,8630,0,2023-03-01T18:55:42.791895,1932326,1368,1842,-599,-1037,-568,-315,-35,113,-245
7679,8631,0,2023-03-01T18:55:42.798215,1932333,1367,1848,-600,-1048,-571,-323,-35,113,-245
7680,8632,0,2023-03-01T18:55:42.805520,1932341,1367,1848,-600,-1048,-571,-323,-35,113,-245
7681,8633,0,2023-03-01T18:55:42.811051,1932346,1367,1848,-600,-1048,-571,-323,-35,113,-245
7682,8634,0,2023-03-01T18:55:42.817038,1932352,1368,1845,-594,-1031,-566,-327,-35,113,-245
7683,8635,0,2023-03-01T18:55:42.823574,1932359,1368,1845,-594,-1031,-566,-327,-35,113,-245
7684,8636,0,2023-03-01T18:55:42.828572,1932364,1368,1845,-594,-1031,-566,-327,-35,113,-245
7685,8637,0,2023-03-01T18:55:42.834192,1932368,1368,1843,-589,-1045,-567,-320,-32,122,-242
7686,8638,0,2023-03-01T18:55:42.840660,1932376,1368,1843,-589,-1045,-567,-320,-32,122,-242
7687,8639,0,2023-03-01T18:55:42.847212,1932382,1368,1843,-589,-1045,-567,-320,-32,122,-242
7688,8640,0,2023-03-01T18:55:42.852400,1932388,1368,1843,-589,-1045,-567,-320,-32,122,-242
7689,8641,0,2023-03-01T18:55:42.858126,1932393,1368,1843,-584,-1045,-569,-324,-32,122,-242
7690,8642,0,2023-03-01T18:55:42.864713,1932399,1368,1843,-584,-1045,-569,-324,-32,122,-242
7691,8643,0,2023-03-01T18:55:42.870076,1932405,1368,1843,-584,-1045,-569,-324,-32,122,-242
7692,8644,0,2023-03-01T18:55:42.875101,1932410,1368,1845,-590,-1032,-572,-324,-32,122,-242
7693,8645,0,2023-03-01T18:55:42.881001,1932417,1368,1845,-590,-1032,-572,-324,-32,122,-242
7694,8646,0,2023-03-01T18:55:42.886187,1932422,1368,1845,-590,-1032,-572,-324,-32,122,-242
7695,8647,0,2023-03-01T18:55:42.891471,1932427,1368,1845,-590,-1032,-572,-324,-32,122,-242
7696,8648,0,2023-03-01T18:55:42.897737,1932433,1365,1846,-596,-1034,-575,-322,-32,122,-242
7697,8649,0,2023-03-01T18:55:42.904482,1932439,1365,1846,-596,-1034,-575,-322,-32,122,-242
7698,8650,0,2023-03-01T18:55:42.909543,1932445,1365,1846,-596,-1034,-575,-322,-32,122,-242
7699,8651,0,2023-03-01T18:55:42.914665,1932450,1363,1849,-596,-1040,-574,-319,-32,122,-242
7700,8652,0,2023-03-01T18:55:42.921451,1932456,1363,1849,-596,-1040,-574,-319,-32,122,-242
7701,8653,0,2023-03-01T18:55:42.926762,1932462,1363,1849,-596,-1040,-574,-319,-32,122,-242
7702,8654,0,2023-03-01T18:55:42.932390,1932468,1363,1849,-596,-1040,-574,-319,-32,122,-242
7703,8655,0,2023-03-01T18:55:42.938170,1932474,1367,1846,-598,-1042,-581,-329,-32,122,-242
7704,8656,0,2023-03-01T18:55:42.944611,1932480,1367,1846,-598,-1042,-581,-329,-32,122,-242
7705,8657,0,2023-03-01T18:55:42.949440,1932485,1367,1846,-598,-1042,-581,-329,-32,122,-242
7706,8658,0,2023-03-01T18:55:42.955236,1932490,1367,1843,-596,-1042,-570,-321,-32,122,-242
7707,8659,0,2023-03-01T18:55:42.962065,1932497,1367,1843,-596,-1042,-570,-321,-32,122,-242
7708,8660,0,2023-03-01T18:55:42.967547,1932503,1367,1843,-596,-1042,-570,-321,-32,122,-242
7709,8661,0,2023-03-01T18:55:42.973062,1932508,1367,1843,-596,-1042,-570,-321,-32,122,-242
7710,8662,0,2023-03-01T18:55:42.978861,1932514,1364,1845,-592,-1034,-568,-322,-33,101,-243
7711,8663,0,2023-03-01T18:55:42.985706,1932521,1364,1845,-592,-1034,-568,-322,-33,101,-243
7712,8664,0,2023-03-01T18:55:42.990418,1932526,1364,1845,-592,-1034,-568,-322,-33,101,-243
7713,8665,0,2023-03-01T18:55:42.995697,1932531,1366,1843,-589,-1036,-565,-323,-33,101,-243
7714,8666,0,2023-03-01T18:55:43.002138,1932537,1366,1843,-589,-1036,-565,-323,-33,101,-243
7715,8667,0,2023-03-01T18:55:43.007883,1932542,1366,1843,-589,-1036,-565,-323,-33,101,-243
7716,8668,0,2023-03-01T18:55:43.013428,1932549,1366,1843,-589,-1036,-565,-323,-33,101,-243
7717,8669,0,2023-03-01T18:55:43.019895,1932555,1370,1843,-586,-1032,-576,-320,-33,101,-243
7718,8670,0,2023-03-01T18:55:43.026181,1932561,1370,1843,-586,-1032,-576,-320,-33,101,-243
7719,8671,0,2023-03-01T18:55:43.031603,1932566,1370,1843,-586,-1032,-576,-320,-33,101,-243
7720,8672,0,2023-03-01T18:55:43.037448,1932573,1367,1842,-591,-1051,-574,-319,-33,101,-243
7721,8673,0,2023-03-01T18:55:43.043598,1932579,1367,1842,-591,-1051,-574,-319,-33,101,-243
7722,8674,0,2023-03-01T18:55:43.048443,1932583,1367,1842,-591,-1051,-574,-319,-33,101,-243
7723,8675,0,2023-03-01T18:55:43.053847,1932589,1369,1847,-595,-1041,-569,-326,-33,101,-243
7724,8676,0,2023-03-01T18:55:43.060721,1932596,1369,1847,-595,-1041,-569,-326,-33,101,-243
7725,8677,0,2023-03-01T18:55:43.066503,1932602,1369,1847,-595,-1041,-569,-326,-33,101,-243
7726,8678,0,2023-03-01T18:55:43.071400,1932607,1369,1847,-595,-1041,-569,-326,-33,101,-243
7727,8679,0,2023-03-01T18:55:43.076483,1932612,1364,1843,-592,-1039,-569,-323,-33,101,-243
7728,8680,0,2023-03-01T18:55:43.083367,1932618,1364,1843,-592,-1039,-569,-323,-33,101,-243
7729,8681,0,2023-03-01T18:55:43.088881,1932624,1364,1843,-592,-1039,-569,-323,-33,101,-243
7730,8682,0,2023-03-01T18:55:43.094425,1932630,1366,1844,-592,-1033,-570,-329,-34,114,-246
7731,8683,0,2023-03-01T18:55:43.101799,1932637,1366,1844,-592,-1033,-570,-329,-34,114,-246
7732,8684,0,2023-03-01T18:55:43.107214,1932643,1366,1844,-592,-1033,-570,-329,-34,114,-246
7733,8685,0,2023-03-01T18:55:43.112151,1932648,1366,1844,-592,-1033,-570,-329,-34,114,-246
7734,8686,0,2023-03-01T18:55:43.117835,1932653,1367,1845,-590,-1032,-571,-321,-34,114,-246
7735,8687,0,2023-03-01T18:55:43.125160,1932660,1367,1845,-590,-1032,-571,-321,-34,114,-246
7736,8688,0,2023-03-01T18:55:43.130523,1932665,1367,1845,-590,-1032,-571,-321,-34,114,-246
7737,8689,0,2023-03-01T18:55:43.135864,1932670,1367,1844,-590,-1036,-571,-321,-34,114,-246
7738,8690,0,2023-03-01T18:55:43.142497,1932678,1367,1844,-590,-1036,-571,-321,-34,114,-246
7739,8691,0,2023-03-01T18:55:43.147608,1932683,1367,1844,-590,-1036,-571,-321,-34,114,-246
7740,8692,0,2023-03-01T18:55:43.152185,1932688,1367,1844,-590,-1036,-571,-321,-34,114,-246
7741,8693,0,2023-03-01T18:55:43.157659,1932693,1365,1843,-593,-1032,-570,-321,-34,114,-246
7742,8694,0,2023-03-01T18:55:43.163456,1932699,1365,1843,-593,-1032,-570,-321,-34,114,-246
7743,8695,0,2023-03-01T18:55:43.168354,1932703,1365,1843,-593,-1032,-570,-321,-34,114,-246
7744,8696,0,2023-03-01T18:55:43.173320,1932708,1365,1843,-593,-1032,-570,-321,-34,114,-246
7745,8697,0,2023-03-01T18:55:43.178673,1932715,1365,1844,-590,-1040,-574,-318,-34,114,-246
7746,8698,0,2023-03-01T18:55:43.184734,1932720,1365,1844,-590,-1040,-574,-318,-34,114,-246
7747,8699,0,2023-03-01T18:55:43.189497,1932725,1365,1844,-590,-1040,-574,-318,-34,114,-246
7748,8700,0,2023-03-01T18:55:43.194743,1932730,1368,1844,-595,-1034,-568,-325,-34,114,-246
7749,8701,0,2023-03-01T18:55:43.202321,1932737,1368,1844,-595,-1034,-568,-325,-34,114,-246
7750,8702,0,2023-03-01T18:55:43.207027,1932742,1368,1844,-595,-1034,-568,-325,-34,114,-246
7751,8703,0,2023-03-01T18:55:43.211963,1932747,1368,1844,-595,-1034,-568,-325,-34,114,-246
7752,8704,0,2023-03-01T18:55:43.217946,1932752,1367,1845,-599,-1038,-572,-323,-34,114,-246
7753,8705,0,2023-03-01T18:55:43.225726,1932761,1367,1845,-599,-1038,-572,-323,-34,114,-246
7754,8706,0,2023-03-01T18:55:43.230931,1932766,1367,1845,-599,-1038,-572,-323,-34,114,-246
7755,8707,0,2023-03-01T18:55:43.236088,1932771,1367,1846,-589,-1033,-575,-330,-33,117,-245
7756,8708,0,2023-03-01T18:55:43.242311,1932778,1367,1846,-589,-1033,-575,-330,-33,117,-245
7757,8709,0,2023-03-01T18:55:43.247318,1932782,1367,1846,-589,-1033,-575,-330,-33,117,-245
7758,8710,0,2023-03-01T18:55:43.252092,1932787,1367,1846,-589,-1033,-575,-330,-33,117,-245
7759,8711,0,2023-03-01T18:55:43.256653,1932792,1365,1843,-595,-1039,-576,-325,-33,117,-245
7760,8712,0,2023-03-01T18:55:43.262777,1932798,1365,1843,-595,-1039,-576,-325,-33,117,-245
7761,8713,0,2023-03-01T18:55:43.267557,1932803,1365,1843,-595,-1039,-576,-325,-33,117,-245
7762,8714,0,2023-03-01T18:55:43.272500,1932808,1365,1843,-595,-1039,-576,-325,-33,117,-245
7763,8715,0,2023-03-01T18:55:43.277564,1932813,1366,1845,-592,-1033,-570,-330,-33,117,-245
7764,8716,0,2023-03-01T18:55:43.283743,1932819,1366,1845,-592,-1033,-570,-330,-33,117,-245
7765,8717,0,2023-03-01T18:55:43.288793,1932824,1366,1845,-592,-1033,-570,-330,-33,117,-245
7766,8718,0,2023-03-01T18:55:43.293948,1932829,1366,1845,-592,-1033,-570,-330,-33,117,-245
7767,8719,0,2023-03-01T18:55:43.298961,1932834,1366,1842,-591,-1040,-571,-324,-33,117,-245
7768,8720,0,2023-03-01T18:55:43.304667,1932839,1366,1842,-591,-1040,-571,-324,-33,117,-245
7769,8721,0,2023-03-01T18:55:43.309986,1932845,1366,1842,-591,-1040,-571,-324,-33,117,-245
7770,8722,0,2023-03-01T18:55:43.315811,1932851,1370,1845,-597,-1040,-576,-327,-33,117,-245
7771,8723,0,2023-03-01T18:55:43.323076,1932858,1370,1845,-597,-1040,-576,-327,-33,117,-245
7772,8724,0,2023-03-01T18:55:43.328345,1932863,1370,1845,-597,-1040,-576,-327,-33,117,-245
7773,8725,0,2023-03-01T18:55:43.333880,1932869,1370,1845,-597,-1040,-576,-327,-33,117,-245
7774,8726,0,2023-03-01T18:55:43.339881,1932875,1368,1845,-595,-1041,-569,-326,-33,117,-245
7775,8727,0,2023-03-01T18:55:43.346758,1932881,1368,1845,-595,-1041,-569,-326,-33,117,-245
7776,8728,0,2023-03-01T18:55:43.352002,1932888,1368,1845,-595,-1041,-569,-326,-33,117,-245
7777,8729,0,2023-03-01T18:55:43.356742,1932892,1364,1844,-589,-1035,-566,-327,-32,116,-244
7778,8730,0,2023-03-01T18:55:43.362868,1932898,1364,1844,-589,-1035,-566,-327,-32,116,-244
7779,8731,0,2023-03-01T18:55:43.367765,1932903,1364,1844,-589,-1035,-566,-327,-32,116,-244
7780,8732,0,2023-03-01T18:55:43.372604,1932908,1364,1844,-589,-1035,-566,-327,-32,116,-244
7781,8733,0,2023-03-01T18:55:43.378863,1932914,1365,1845,-591,-1038,-564,-331,-32,116,-244
7782,8734,0,2023-03-01T18:55:43.383591,1932919,1365,1845,-591,-1038,-564,-331,-32,116,-244
7783,8735,0,2023-03-01T18:55:43.388247,1932923,1365,1845,-591,-1038,-564,-331,-32,116,-244
7784,8736,0,2023-03-01T18:55:43.393465,1932929,1365,1845,-591,-1038,-564,-331,-32,116,-244
7785,8737,0,2023-03-01T18:55:43.399388,1932935,1366,1846,-592,-1040,-568,-326,-32,116,-244
7786,8738,0,2023-03-01T18:55:43.406050,1932941,1366,1846,-592,-1040,-568,-326,-32,116,-244
7787,8739,0,2023-03-01T18:55:43.411051,1932946,1366,1846,-592,-1040,-568,-326,-32,116,-244
7788,8740,0,2023-03-01T18:55:43.416152,1932951,1365,1847,-590,-1045,-572,-325,-32,116,-244
7789,8741,0,2023-03-01T18:55:43.421884,1932957,1365,1847,-590,-1045,-572,-325,-32,116,-244
7790,8742,0,2023-03-01T18:55:43.426920,1932962,1365,1847,-590,-1045,-572,-325,-32,116,-244
7791,8743,0,2023-03-01T18:55:43.432691,1932967,1365,1847,-590,-1045,-572,-325,-32,116,-244
7792,8744,0,2023-03-01T18:55:43.438445,1932974,1362,1841,-592,-1046,-576,-319,-32,116,-244
7793,8745,0,2023-03-01T18:55:43.444827,1932980,1362,1841,-592,-1046,-576,-319,-32,116,-244
7794,8746,0,2023-03-01T18:55:43.449789,1932985,1362,1841,-592,-1046,-576,-319,-32,116,-244
7795,8747,0,2023-03-01T18:55:43.455229,1932990,1364,1845,-592,-1040,-570,-317,-32,116,-244
7796,8748,0,2023-03-01T18:55:43.462564,1932998,1364,1845,-592,-1040,-570,-317,-32,116,-244
7797,8749,0,2023-03-01T18:55:43.467815,1933003,1364,1845,-592,-1040,-570,-317,-32,116,-244
7798,8750,0,2023-03-01T18:55:43.472655,1933008,1364,1845,-592,-1040,-570,-317,-32,116,-244
7799,8751,0,2023-03-01T18:55:43.477731,1933012,1368,1846,-600,-1034,-576,-324,-29,113,-253
7800,8752,0,2023-03-01T18:55:43.484261,1933020,1368,1846,-600,-1034,-576,-324,-29,113,-253
7801,8753,0,2023-03-01T18:55:43.489853,1933025,1368,1846,-600,-1034,-576,-324,-29,113,-253
7802,8754,0,2023-03-01T18:55:43.494827,1933030,1364,1842,-593,-1037,-575,-327,-29,113,-253
7803,8755,0,2023-03-01T18:55:43.501179,1933036,1364,1842,-593,-1037,-575,-327,-29,113,-253
7804,8756,0,2023-03-01T18:55:43.505922,1933041,1364,1842,-593,-1037,-575,-327,-29,113,-253
7805,8757,0,2023-03-01T18:55:43.510682,1933046,1364,1842,-593,-1037,-575,-327,-29,113,-253
7806,8758,0,2023-03-01T18:55:43.515214,1933050,1369,1848,-597,-1038,-570,-326,-29,113,-253
7807,8759,0,2023-03-01T18:55:43.521945,1933057,1369,1848,-597,-1038,-570,-326,-29,113,-253
7808,8760,0,2023-03-01T18:55:43.526806,1933062,1369,1848,-597,-1038,-570,-326,-29,113,-253
7809,8761,0,2023-03-01T18:55:43.531946,1933067,1369,1848,-597,-1038,-570,-326,-29,113,-253
7810,8762,0,2023-03-01T18:55:43.536555,1933072,1366,1843,-590,-1039,-568,-316,-29,113,-253
7811,8763,0,2023-03-01T18:55:43.542677,1933078,1366,1843,-590,-1039,-568,-316,-29,113,-253
7812,8764,0,2023-03-01T18:55:43.548637,1933083,1366,1843,-590,-1039,-568,-316,-29,113,-253
7813,8765,0,2023-03-01T18:55:43.553474,1933089,1366,1843,-590,-1039,-568,-316,-29,113,-253
7814,8766,0,2023-03-01T18:55:43.557951,1933093,1365,1846,-592,-1043,-565,-328,-29,113,-253
7815,8767,0,2023-03-01T18:55:43.564670,1933100,1365,1846,-592,-1043,-565,-328,-29,113,-253
7816,8768,0,2023-03-01T18:55:43.570152,1933106,1365,1846,-592,-1043,-565,-328,-29,113,-253
7817,8769,0,2023-03-01T18:55:43.574888,1933111,1366,1845,-594,-1049,-577,-323,-29,113,-253
7818,8770,0,2023-03-01T18:55:43.580946,1933116,1366,1845,-594,-1049,-577,-323,-29,113,-253
7819,8771,0,2023-03-01T18:55:43.585983,1933121,1366,1845,-594,-1049,-577,-323,-29,113,-253
7820,8772,0,2023-03-01T18:55:43.590558,1933126,1366,1845,-594,-1049,-577,-323,-29,113,-253
7821,8773,0,2023-03-01T18:55:43.595405,1933130,1366,1842,-593,-1042,-572,-330,-29,113,-253
7822,8774,0,2023-03-01T18:55:43.602510,1933137,1366,1842,-593,-1042,-572,-330,-29,113,-253
7823,8775,0,2023-03-01T18:55:43.607798,1933144,1366,1842,-593,-1042,-572,-330,-29,113,-253
7824,8776,0,2023-03-01T18:55:43.612759,1933148,1366,1842,-593,-1042,-572,-330,-29,113,-253
7825,8777,0,2023-03-01T18:55:43.617541,1933153,1365,1842,-594,-1039,-574,-326,-29,119,-247
7826,8778,0,2023-03-01T18:55:43.624031,1933159,1365,1842,-594,-1039,-574,-326,-29,119,-247
7827,8779,0,2023-03-01T18:55:43.628767,1933164,1365,1842,-594,-1039,-574,-326,-29,119,-247
7828,8780,0,2023-03-01T18:55:43.633397,1933169,1365,1842,-594,-1039,-574,-326,-29,119,-247
7829,8781,0,2023-03-01T18:55:43.638917,1933174,1367,1844,-590,-1037,-571,-333,-29,119,-247
7830,8782,0,2023-03-01T18:55:43.646142,1933180,1367,1844,-590,-1037,-571,-333,-29,119,-247
7831,8783,0,2023-03-01T18:55:43.651300,1933187,1367,1844,-590,-1037,-571,-333,-29,119,-247
7832,8784,0,2023-03-01T18:55:43.656664,1933192,1365,1841,-592,-1039,-572,-330,-29,119,-247
7833,8785,0,2023-03-01T18:55:43.662866,1933198,1365,1841,-592,-1039,-572,-330,-29,119,-247
7834,8786,0,2023-03-01T18:55:43.667905,1933203,1365,1841,-592,-1039,-572,-330,-29,119,-247
7835,8787,0,2023-03-01T18:55:43.673197,1933208,1365,1841,-592,-1039,-572,-330,-29,119,-247
7836,8788,0,2023-03-01T18:55:43.678915,1933213,1368,1845,-597,-1042,-569,-323,-29,119,-247
7837,8789,0,2023-03-01T18:55:43.685311,1933220,1368,1845,-597,-1042,-569,-323,-29,119,-247
7838,8790,0,2023-03-01T18:55:43.690456,1933225,1368,1845,-597,-1042,-569,-323,-29,119,-247
7839,8791,0,2023-03-01T18:55:43.695908,1933231,1368,1846,-596,-1041,-571,-322,-29,119,-247
7840,8792,0,2023-03-01T18:55:43.702213,1933238,1368,1846,-596,-1041,-571,-322,-29,119,-247
7841,8793,0,2023-03-01T18:55:43.707394,1933243,1368,1846,-596,-1041,-571,-322,-29,119,-247
7842,8794,0,2023-03-01T18:55:43.712528,1933248,1368,1846,-596,-1041,-571,-322,-29,119,-247
7843,8795,0,2023-03-01T18:55:43.717324,1933253,1368,1843,-590,-1042,-577,-321,-29,119,-247
7844,8796,0,2023-03-01T18:55:43.722934,1933258,1368,1843,-590,-1042,-577,-321,-29,119,-247
7845,8797,0,2023-03-01T18:55:43.728081,1933263,1368,1843,-590,-1042,-577,-321,-29,119,-247
7846,8798,0,2023-03-01T18:55:43.732967,1933268,1368,1843,-590,-1042,-577,-321,-29,119,-247
7847,8799,0,2023-03-01T18:55:43.737742,1933273,1366,1843,-595,-1042,-573,-321,-41,117,-247
7848,8800,0,2023-03-01T18:55:43.743607,1933279,1366,1843,-595,-1042,-573,-321,-41,117,-247
7849,8801,0,2023-03-01T18:55:43.750382,1933284,1366,1843,-595,-1042,-573,-321,-41,117,-247
7850,8802,0,2023-03-01T18:55:43.755151,1933290,1364,1844,-589,-1046,-569,-328,-41,117,-247
7851,8803,0,2023-03-01T18:55:43.761302,1933297,1364,1844,-589,-1046,-569,-328,-41,117,-247
7852,8804,0,2023-03-01T18:55:43.766703,1933301,1364,1844,-589,-1046,-569,-328,-41,117,-247
7853,8805,0,2023-03-01T18:55:43.771986,1933307,1364,1844,-589,-1046,-569,-328,-41,117,-247
7854,8806,0,2023-03-01T18:55:43.777486,1933313,1363,1844,-585,-1038,-569,-323,-41,117,-247
7855,8807,0,2023-03-01T18:55:43.785833,1933321,1363,1844,-585,-1038,-569,-323,-41,117,-247
7856,8808,0,2023-03-01T18:55:43.791012,1933326,1363,1844,-585,-1038,-569,-323,-41,117,-247
7857,8809,0,2023-03-01T18:55:43.796774,1933332,1366,1842,-591,-1035,-577,-323,-41,117,-247
7858,8810,0,2023-03-01T18:55:43.802974,1933338,1366,1842,-591,-1035,-577,-323,-41,117,-247
7859,8811,0,2023-03-01T18:55:43.808353,1933343,1366,1842,-591,-1035,-577,-323,-41,117,-247
7860,8812,0,2023-03-01T18:55:43.813907,1933349,1366,1842,-591,-1035,-577,-323,-41,117,-247
7861,8813,0,2023-03-01T18:55:43.819627,1933355,1365,1846,-589,-1030,-568,-324,-41,117,-247
7862,8814,0,2023-03-01T18:55:43.825777,1933361,1365,1846,-589,-1030,-568,-324,-41,117,-247
7863,8815,0,2023-03-01T18:55:43.830729,1933366,1365,1846,-589,-1030,-568,-324,-41,117,-247
7864,8816,0,2023-03-01T18:55:43.836080,1933371,1369,1840,-595,-1035,-567,-324,-41,117,-247
7865,8817,0,2023-03-01T18:55:43.843048,1933378,1369,1840,-595,-1035,-567,-324,-41,117,-247
7866,8818,0,2023-03-01T18:55:43.848091,1933383,1369,1840,-595,-1035,-567,-324,-41,117,-247
7867,8819,0,2023-03-01T18:55:43.853212,1933388,1369,1840,-595,-1035,-567,-324,-41,117,-247
7868,8820,0,2023-03-01T18:55:43.857981,1933393,1367,1845,-597,-1033,-572,-329,-41,117,-247
7869,8821,0,2023-03-01T18:55:43.864229,1933400,1367,1845,-597,-1033,-572,-329,-41,117,-247
7870,8822,0,2023-03-01T18:55:43.869352,1933405,1367,1845,-597,-1033,-572,-329,-41,117,-247
7871,8823,0,2023-03-01T18:55:43.874812,1933410,1367,1845,-597,-1033,-572,-329,-41,117,-247
7872,8824,0,2023-03-01T18:55:43.880900,1933416,1366,1846,-589,-1036,-573,-328,-34,122,-242
7873,8825,0,2023-03-01T18:55:43.887598,1933422,1366,1846,-589,-1036,-573,-328,-34,122,-242
7874,8826,0,2023-03-01T18:55:43.893930,1933429,1366,1846,-589,-1036,-573,-328,-34,122,-242
7875,8827,0,2023-03-01T18:55:43.900100,1933435,1362,1843,-590,-1038,-568,-322,-34,122,-242
7876,8828,0,2023-03-01T18:55:43.906367,1933442,1362,1843,-590,-1038,-568,-322,-34,122,-242
7877,8829,0,2023-03-01T18:55:43.912272,1933448,1362,1843,-590,-1038,-568,-322,-34,122,-242
7878,8830,0,2023-03-01T18:55:43.917953,1933453,1366,1845,-590,-1037,-568,-320,-34,122,-242
7879,8831,0,2023-03-01T18:55:43.924892,1933460,1366,1845,-590,-1037,-568,-320,-34,122,-242
7880,8832,0,2023-03-01T18:55:43.930444,1933466,1366,1845,-590,-1037,-568,-320,-34,122,-242
7881,8833,0,2023-03-01T18:55:43.935736,1933471,1366,1848,-592,-1039,-568,-324,-34,122,-242
7882,8834,0,2023-03-01T18:55:43.942530,1933477,1366,1848,-592,-1039,-568,-324,-34,122,-242
7883,8835,0,2023-03-01T18:55:43.948099,1933484,1366,1848,-592,-1039,-568,-324,-34,122,-242
7884,8836,0,2023-03-01T18:55:43.953543,1933489,1366,1848,-592,-1039,-568,-324,-34,122,-242
7885,8837,0,2023-03-01T18:55:43.959220,1933494,1364,1844,-594,-1040,-576,-326,-34,122,-242
7886,8838,0,2023-03-01T18:55:43.966452,1933501,1364,1844,-594,-1040,-576,-326,-34,122,-242
7887,8839,0,2023-03-01T18:55:43.971777,1933507,1364,1844,-594,-1040,-576,-326,-34,122,-242
7888,8840,0,2023-03-01T18:55:43.977214,1933512,1366,1845,-589,-1042,-578,-325,-34,122,-242
7889,8841,0,2023-03-01T18:55:43.983788,1933518,1366,1845,-589,-1042,-578,-325,-34,122,-242
7890,8842,0,2023-03-01T18:55:43.989172,1933524,1366,1845,-589,-1042,-578,-325,-34,122,-242
7891,8843,0,2023-03-01T18:55:43.994923,1933530,1366,1845,-589,-1042,-578,-325,-34,122,-242
7892,8844,0,2023-03-01T18:55:44.002679,1933538,1368,1845,-587,-1035,-578,-324,-38,114,-246
7893,8845,0,2023-03-01T18:55:44.008802,1933544,1368,1845,-587,-1035,-578,-324,-38,114,-246
7894,8846,0,2023-03-01T18:55:44.013931,1933549,1368,1845,-587,-1035,-578,-324,-38,114,-246
7895,8847,0,2023-03-01T18:55:44.019847,1933555,1364,1844,-590,-1037,-574,-320,-38,114,-246
7896,8848,0,2023-03-01T18:55:44.026489,1933561,1364,1844,-590,-1037,-574,-320,-38,114,-246
7897,8849,0,2023-03-01T18:55:44.031545,1933566,1364,1844,-590,-1037,-574,-320,-38,114,-246
7898,8850,0,2023-03-01T18:55:44.036927,1933572,1365,1844,-593,-1039,-573,-323,-38,114,-246
7899,8851,0,2023-03-01T18:55:44.042976,1933579,1365,1844,-593,-1039,-573,-323,-38,114,-246
7900,8852,0,2023-03-01T18:55:44.047959,1933583,1365,1844,-593,-1039,-573,-323,-38,114,-246
7901,8853,0,2023-03-01T18:55:44.052885,1933588,1365,1844,-593,-1039,-573,-323,-38,114,-246
7902,8854,0,2023-03-01T18:55:44.057622,1933593,1366,1844,-597,-1038,-569,-323,-38,114,-246
7903,8855,0,2023-03-01T18:55:44.063772,1933599,1366,1844,-597,-1038,-569,-323,-38,114,-246
7904,8856,0,2023-03-01T18:55:44.068978,1933604,1366,1844,-597,-1038,-569,-323,-38,114,-246
7905,8857,0,2023-03-01T18:55:44.074121,1933609,1366,1844,-597,-1038,-569,-323,-38,114,-246
7906,8858,0,2023-03-01T18:55:44.079326,1933615,1364,1846,-595,-1047,-568,-323,-38,114,-246
7907,8859,0,2023-03-01T18:55:44.086068,1933621,1364,1846,-595,-1047,-568,-323,-38,114,-246
7908,8860,0,2023-03-01T18:55:44.091090,1933626,1364,1846,-595,-1047,-568,-323,-38,114,-246
7909,8861,0,2023-03-01T18:55:44.096098,1933631,1364,1843,-591,-1046,-576,-329,-38,114,-246
7910,8862,0,2023-03-01T18:55:44.102818,1933638,1364,1843,-591,-1046,-576,-329,-38,114,-246
7911,8863,0,2023-03-01T18:55:44.107799,1933643,1364,1843,-591,-1046,-576,-329,-38,114,-246
7912,8864,0,2023-03-01T18:55:44.112669,1933647,1364,1843,-591,-1046,-576,-329,-38,114,-246
7913,8865,0,2023-03-01T18:55:44.118980,1933654,1365,1844,-593,-1037,-579,-320,-38,114,-246
7914,8866,0,2023-03-01T18:55:44.125554,1933661,1365,1844,-593,-1037,-579,-320,-38,114,-246
7915,8867,0,2023-03-01T18:55:44.131403,1933667,1365,1844,-593,-1037,-579,-320,-38,114,-246
7916,8868,0,2023-03-01T18:55:44.136337,1933672,1364,1841,-592,-1037,-584,-322,-37,113,-247
7917,8869,0,2023-03-01T18:55:44.142654,1933678,1364,1841,-592,-1037,-584,-322,-37,113,-247
7918,8870,0,2023-03-01T18:55:44.147661,1933683,1364,1841,-592,-1037,-584,-322,-37,113,-247
7919,8871,0,2023-03-01T18:55:44.152702,1933688,1364,1841,-592,-1037,-584,-322,-37,113,-247
7920,8872,0,2023-03-01T18:55:44.157625,1933692,1363,1843,-593,-1038,-577,-322,-37,113,-247
7921,8873,0,2023-03-01T18:55:44.163770,1933699,1363,1843,-593,-1038,-577,-322,-37,113,-247
7922,8874,0,2023-03-01T18:55:44.168818,1933704,1363,1843,-593,-1038,-577,-322,-37,113,-247
7923,8875,0,2023-03-01T18:55:44.174581,1933709,1363,1843,-593,-1038,-577,-322,-37,113,-247
7924,8876,0,2023-03-01T18:55:44.179789,1933715,1363,1844,-591,-1037,-574,-328,-37,113,-247
7925,8877,0,2023-03-01T18:55:44.186014,1933721,1363,1844,-591,-1037,-574,-328,-37,113,-247
7926,8878,0,2023-03-01T18:55:44.190934,1933726,1363,1844,-591,-1037,-574,-328,-37,113,-247
7927,8879,0,2023-03-01T18:55:44.196452,1933731,1366,1846,-591,-1044,-575,-328,-37,113,-247
7928,8880,0,2023-03-01T18:55:44.203472,1933739,1366,1846,-591,-1044,-575,-328,-37,113,-247
7929,8881,0,2023-03-01T18:55:44.208919,1933744,1366,1846,-591,-1044,-575,-328,-37,113,-247
7930,8882,0,2023-03-01T18:55:44.213967,1933749,1366,1846,-591,-1044,-575,-328,-37,113,-247
7931,8883,0,2023-03-01T18:55:44.219534,1933754,1368,1844,-594,-1043,-576,-326,-37,113,-247
7932,8884,0,2023-03-01T18:55:44.225485,1933760,1368,1844,-594,-1043,-576,-326,-37,113,-247
7933,8885,0,2023-03-01T18:55:44.230969,1933766,1368,1844,-594,-1043,-576,-326,-37,113,-247
7934,8886,0,2023-03-01T18:55:44.236298,1933771,1367,1845,-594,-1037,-572,-324,-37,113,-247
7935,8887,0,2023-03-01T18:55:44.243573,1933778,1367,1845,-594,-1037,-572,-324,-37,113,-247
7936,8888,0,2023-03-01T18:55:44.248516,1933784,1367,1845,-594,-1037,-572,-324,-37,113,-247
7937,8889,0,2023-03-01T18:55:44.253614,1933789,1367,1845,-594,-1037,-572,-324,-37,113,-247
7938,8890,0,2023-03-01T18:55:44.258473,1933794,1369,1845,-588,-1032,-575,-322,-33,115,-245
7939,8891,0,2023-03-01T18:55:44.264819,1933800,1369,1845,-588,-1032,-575,-322,-33,115,-245
7940,8892,0,2023-03-01T18:55:44.269934,1933805,1369,1845,-588,-1032,-575,-322,-33,115,-245
7941,8893,0,2023-03-01T18:55:44.275601,1933811,1364,1841,-590,-1038,-578,-328,-33,115,-245
7942,8894,0,2023-03-01T18:55:44.281957,1933817,1364,1841,-590,-1038,-578,-328,-33,115,-245
7943,8895,0,2023-03-01T18:55:44.286909,1933822,1364,1841,-590,-1038,-578,-328,-33,115,-245
7944,8896,0,2023-03-01T18:55:44.292021,1933828,1364,1841,-590,-1038,-578,-328,-33,115,-245
7945,8897,0,2023-03-01T18:55:44.297485,1933833,1364,1845,-590,-1030,-573,-321,-33,115,-245
7946,8898,0,2023-03-01T18:55:44.303663,1933839,1364,1845,-590,-1030,-573,-321,-33,115,-245
7947,8899,0,2023-03-01T18:55:44.308835,1933844,1364,1845,-590,-1030,-573,-321,-33,115,-245
7948,8900,0,2023-03-01T18:55:44.313796,1933849,1364,1845,-590,-1030,-573,-321,-33,115,-245
7949,8901,0,2023-03-01T18:55:44.319490,1933854,1366,1845,-589,-1038,-574,-322,-33,115,-245
7950,8902,0,2023-03-01T18:55:44.327068,1933861,1366,1845,-589,-1038,-574,-322,-33,115,-245
7951,8903,0,2023-03-01T18:55:44.333063,1933869,1366,1845,-589,-1038,-574,-322,-33,115,-245
7952,8904,0,2023-03-01T18:55:44.338314,1933874,1369,1844,-586,-1043,-573,-323,-33,115,-245
7953,8905,0,2023-03-01T18:55:44.345359,1933881,1369,1844,-586,-1043,-573,-323,-33,115,-245
7954,8906,0,2023-03-01T18:55:44.350777,1933886,1369,1844,-586,-1043,-573,-323,-33,115,-245
7955,8907,0,2023-03-01T18:55:44.355934,1933891,1366,1843,-598,-1035,-577,-326,-33,115,-245
7956,8908,0,2023-03-01T18:55:44.362165,1933897,1366,1843,-598,-1035,-577,-326,-33,115,-245
7957,8909,0,2023-03-01T18:55:44.367325,1933902,1366,1843,-598,-1035,-577,-326,-33,115,-245
7958,8910,0,2023-03-01T18:55:44.372595,1933907,1366,1843,-598,-1035,-577,-326,-33,115,-245
7959,8911,0,2023-03-01T18:55:44.377848,1933913,1368,1841,-596,-1034,-575,-327,-33,113,-251
7960,8912,0,2023-03-01T18:55:44.384042,1933920,1368,1841,-596,-1034,-575,-327,-33,113,-251
7961,8913,0,2023-03-01T18:55:44.389255,1933925,1368,1841,-596,-1034,-575,-327,-33,113,-251
7962,8914,0,2023-03-01T18:55:44.394249,1933929,1368,1841,-596,-1034,-575,-327,-33,113,-251
7963,8915,0,2023-03-01T18:55:44.399277,1933934,1363,1842,-594,-1043,-578,-327,-33,113,-251
7964,8916,0,2023-03-01T18:55:44.405947,1933941,1363,1842,-594,-1043,-578,-327,-33,113,-251
7965,8917,0,2023-03-01T18:55:44.411046,1933946,1363,1842,-594,-1043,-578,-327,-33,113,-251
7966,8918,0,2023-03-01T18:55:44.416140,1933952,1365,1846,-596,-1031,-577,-324,-33,113,-251
7967,8919,0,2023-03-01T18:55:44.423465,1933959,1365,1846,-596,-1031,-577,-324,-33,113,-251
7968,8920,0,2023-03-01T18:55:44.428371,1933964,1365,1846,-596,-1031,-577,-324,-33,113,-251
7969,8921,0,2023-03-01T18:55:44.433411,1933969,1365,1846,-596,-1031,-577,-324,-33,113,-251
7970,8922,0,2023-03-01T18:55:44.438528,1933974,1367,1845,-593,-1040,-573,-324,-33,113,-251
7971,8923,0,2023-03-01T18:55:44.445438,1933980,1367,1845,-593,-1040,-573,-324,-33,113,-251
7972,8924,0,2023-03-01T18:55:44.450956,1933985,1367,1845,-593,-1040,-573,-324,-33,113,-251
7973,8925,0,2023-03-01T18:55:44.456106,1933991,1368,1845,-596,-1035,-571,-317,-33,113,-251
7974,8926,0,2023-03-01T18:55:44.462620,1933998,1368,1845,-596,-1035,-571,-317,-33,113,-251
7975,8927,0,2023-03-01T18:55:44.467669,1934003,1368,1845,-596,-1035,-571,-317,-33,113,-251
7976,8928,0,2023-03-01T18:55:44.472878,1934008,1368,1845,-596,-1035,-571,-317,-33,113,-251
7977,8929,0,2023-03-01T18:55:44.477754,1934013,1366,1844,-590,-1034,-579,-321,-33,113,-251
7978,8930,0,2023-03-01T18:55:44.484875,1934020,1366,1844,-590,-1034,-579,-321,-33,113,-251
7979,8931,0,2023-03-01T18:55:44.489627,1934025,1366,1844,-590,-1034,-579,-321,-33,113,-251
7980,8932,0,2023-03-01T18:55:44.494464,1934029,1366,1844,-590,-1034,-579,-321,-33,113,-251
7981,8933,0,2023-03-01T18:55:44.499501,1934034,1367,1844,-596,-1039,-576,-322,-33,113,-251
7982,8934,0,2023-03-01T18:55:44.506881,1934043,1367,1844,-596,-1039,-576,-322,-33,113,-251
7983,8935,0,2023-03-01T18:55:44.511623,1934047,1367,1844,-596,-1039,-576,-322,-33,113,-251
7984,8936,0,2023-03-01T18:55:44.517572,1934053,1363,1846,-588,-1045,-579,-314,-36,112,-248
7985,8937,0,2023-03-01T18:55:44.523553,1934059,1363,1846,-588,-1045,-579,-314,-36,112,-248
7986,8938,0,2023-03-01T18:55:44.528389,1934064,1363,1846,-588,-1045,-579,-314,-36,112,-248
7987,8939,0,2023-03-01T18:55:44.533361,1934068,1363,1846,-588,-1045,-579,-314,-36,112,-248
7988,8940,0,2023-03-01T18:55:44.539828,1934075,1367,1846,-582,-1046,-575,-317,-36,112,-248
7989,8941,0,2023-03-01T18:55:44.546759,1934082,1367,1846,-582,-1046,-575,-317,-36,112,-248
7990,8942,0,2023-03-01T18:55:44.552629,1934088,1367,1846,-582,-1046,-575,-317,-36,112,-248
7991,8943,0,2023-03-01T18:55:44.558869,1934094,1366,1845,-595,-1040,-575,-318,-36,112,-248
7992,8944,0,2023-03-01T18:55:44.565589,1934101,1366,1845,-595,-1040,-575,-318,-36,112,-248
7993,8945,0,2023-03-01T18:55:44.570410,1934106,1366,1845,-595,-1040,-575,-318,-36,112,-248
7994,8946,0,2023-03-01T18:55:44.575169,1934110,1366,1845,-595,-1040,-575,-318,-36,112,-248
7995,8947,0,2023-03-01T18:55:44.581382,1934116,1364,1842,-594,-1037,-577,-326,-36,112,-248
7996,8948,0,2023-03-01T18:55:44.587894,1934123,1364,1842,-594,-1037,-577,-326,-36,112,-248
7997,8949,0,2023-03-01T18:55:44.592868,1934129,1364,1842,-594,-1037,-577,-326,-36,112,-248
7998,8950,0,2023-03-01T18:55:44.598768,1934134,1367,1847,-597,-1034,-581,-324,-36,112,-248
7999,8951,0,2023-03-01T18:55:44.603426,1934139,1367,1847,-597,-1034,-581,-324,-36,112,-248
8000,8952,0,2023-03-01T18:55:44.608468,1934144,1367,1847,-597,-1034,-581,-324,-36,112,-248
8001,8953,0,2023-03-01T18:55:44.613614,1934149,1367,1847,-597,-1034,-581,-324,-36,112,-248
8002,8954,0,2023-03-01T18:55:44.619452,1934154,1363,1845,-592,-1040,-574,-320,-36,112,-248
8003,8955,0,2023-03-01T18:55:44.625851,1934161,1363,1845,-592,-1040,-574,-320,-36,112,-248
8004,8956,0,2023-03-01T18:55:44.630665,1934166,1363,1845,-592,-1040,-574,-320,-36,112,-248
8005,8957,0,2023-03-01T18:55:44.635585,1934171,1367,1847,-595,-1044,-573,-317,-36,112,-248
8006,8958,0,2023-03-01T18:55:44.642691,1934178,1367,1847,-595,-1044,-573,-317,-26,112,-254
8007,8959,0,2023-03-01T18:55:44.648127,1934183,1367,1847,-595,-1044,-573,-317,-26,112,-254
8008,8960,0,2023-03-01T18:55:44.653155,1934189,1367,1847,-595,-1044,-573,-317,-26,112,-254
8009,8961,0,2023-03-01T18:55:44.659118,1934194,1364,1845,-593,-1038,-567,-310,-26,112,-254
8010,8962,0,2023-03-01T18:55:44.665043,1934200,1364,1845,-593,-1038,-567,-310,-26,112,-254
8011,8963,0,2023-03-01T18:55:44.670008,1934205,1364,1845,-593,-1038,-567,-310,-26,112,-254
8012,8964,0,2023-03-01T18:55:44.675583,1934211,1364,1845,-593,-1038,-567,-310,-26,112,-254
8013,8965,0,2023-03-01T18:55:44.681500,1934217,1369,1846,-596,-1039,-581,-323,-26,112,-254
8014,8966,0,2023-03-01T18:55:44.687006,1934223,1369,1846,-596,-1039,-581,-323,-26,112,-254
8015,8967,0,2023-03-01T18:55:44.691525,1934227,1369,1846,-596,-1039,-581,-323,-26,112,-254
8016,8968,0,2023-03-01T18:55:44.697199,1934233,1366,1843,-598,-1041,-570,-326,-26,112,-254
8017,8969,0,2023-03-01T18:55:44.703169,1934238,1366,1843,-598,-1041,-570,-326,-26,112,-254
8018,8970,0,2023-03-01T18:55:44.708236,1934243,1366,1843,-598,-1041,-570,-326,-26,112,-254
8019,8971,0,2023-03-01T18:55:44.713463,1934249,1366,1843,-598,-1041,-570,-326,-26,112,-254
8020,8972,0,2023-03-01T18:55:44.719226,1934255,1364,1841,-592,-1043,-566,-326,-26,112,-254
8021,8973,0,2023-03-01T18:55:44.725751,1934261,1364,1841,-592,-1043,-566,-326,-26,112,-254
8022,8974,0,2023-03-01T18:55:44.731190,1934266,1364,1841,-592,-1043,-566,-326,-26,112,-254
8023,8975,0,2023-03-01T18:55:44.736374,1934271,1365,1843,-591,-1038,-566,-323,-26,112,-254
8024,8976,0,2023-03-01T18:55:44.743932,1934278,1365,1843,-591,-1038,-566,-323,-26,112,-254
8025,8977,0,2023-03-01T18:55:44.748937,1934284,1365,1843,-591,-1038,-566,-323,-26,112,-254
8026,8978,0,2023-03-01T18:55:44.753975,1934289,1365,1843,-591,-1038,-566,-323,-26,112,-254
8027,8979,0,2023-03-01T18:55:44.759753,1934295,1366,1841,-598,-1044,-571,-313,-26,112,-254
8028,8980,0,2023-03-01T18:55:44.766896,1934302,1366,1841,-598,-1044,-571,-313,-26,112,-254
8029,8981,0,2023-03-01T18:55:44.771653,1934307,1366,1841,-598,-1044,-571,-313,-26,112,-254
8030,8982,0,2023-03-01T18:55:44.777356,1934312,1368,1843,-593,-1038,-569,-317,-30,114,-248
8031,8983,0,2023-03-01T18:55:44.783518,1934319,1368,1843,-593,-1038,-569,-317,-30,114,-248
8032,8984,0,2023-03-01T18:55:44.789276,1934324,1368,1843,-593,-1038,-569,-317,-30,114,-248
8033,8985,0,2023-03-01T18:55:44.793923,1934329,1368,1843,-593,-1038,-569,-317,-30,114,-248
8034,8986,0,2023-03-01T18:55:44.799256,1934334,1365,1846,-590,-1038,-570,-319,-30,114,-248
8035,8987,0,2023-03-01T18:55:44.805177,1934341,1365,1846,-590,-1038,-570,-319,-30,114,-248
8036,8988,0,2023-03-01T18:55:44.810001,1934346,1365,1846,-590,-1038,-570,-319,-30,114,-248
8037,8989,0,2023-03-01T18:55:44.815256,1934350,1365,1846,-590,-1038,-570,-319,-30,114,-248
8038,8990,0,2023-03-01T18:55:44.820477,1934356,1366,1843,-597,-1036,-567,-325,-30,114,-248
8039,8991,0,2023-03-01T18:55:44.826070,1934361,1366,1843,-597,-1036,-567,-325,-30,114,-248
8040,8992,0,2023-03-01T18:55:44.831029,1934366,1366,1843,-597,-1036,-567,-325,-30,114,-248
8041,8993,0,2023-03-01T18:55:44.835759,1934371,1366,1843,-597,-1036,-567,-325,-30,114,-248
8042,8994,0,2023-03-01T18:55:44.842141,1934377,1369,1841,-589,-1036,-572,-328,-30,114,-248
8043,8995,0,2023-03-01T18:55:44.847728,1934383,1369,1841,-589,-1036,-572,-328,-30,114,-248
8044,8996,0,2023-03-01T18:55:44.852455,1934388,1369,1841,-589,-1036,-572,-328,-30,114,-248
8045,8997,0,2023-03-01T18:55:44.857808,1934393,1365,1842,-589,-1041,-567,-322,-30,114,-248
8046,8998,0,2023-03-01T18:55:44.863961,1934399,1365,1842,-589,-1041,-567,-322,-30,114,-248
8047,8999,0,2023-03-01T18:55:44.869321,1934404,1365,1842,-589,-1041,-567,-322,-30,114,-248
8048,9000,0,2023-03-01T18:55:44.876075,1934411,1365,1842,-589,-1041,-567,-322,-30,114,-248
8049,9001,0,2023-03-01T18:55:44.883212,1934418,1365,1847,-594,-1037,-568,-323,-30,114,-248
8050,9002,0,2023-03-01T18:55:44.889183,1934425,1365,1847,-594,-1037,-568,-323,-30,114,-248
8051,9003,0,2023-03-01T18:55:44.894258,1934430,1365,1847,-594,-1037,-568,-323,-30,114,-248
8052,9004,0,2023-03-01T18:55:44.899373,1934435,1366,1845,-586,-1048,-573,-326,-28,114,-244
8053,9005,0,2023-03-01T18:55:44.905730,1934441,1366,1845,-586,-1048,-573,-326,-28,114,-244
8054,9006,0,2023-03-01T18:55:44.910603,1934446,1366,1845,-586,-1048,-573,-326,-28,114,-244
8055,9007,0,2023-03-01T18:55:44.915811,1934451,1366,1845,-586,-1048,-573,-326,-28,114,-244
8056,9008,0,2023-03-01T18:55:44.922970,1934457,1366,1844,-589,-1043,-570,-322,-28,114,-244
8057,9009,0,2023-03-01T18:55:44.928128,1934464,1366,1844,-589,-1043,-570,-322,-28,114,-244
8058,9010,0,2023-03-01T18:55:44.933165,1934469,1366,1844,-589,-1043,-570,-322,-28,114,-244
8059,9011,0,2023-03-01T18:55:44.938556,1934474,1365,1846,-590,-1043,-573,-316,-28,114,-244
8060,9012,0,2023-03-01T18:55:44.945230,1934480,1365,1846,-590,-1043,-573,-316,-28,114,-244
8061,9013,0,2023-03-01T18:55:44.950411,1934486,1365,1846,-590,-1043,-573,-316,-28,114,-244
8062,9014,0,2023-03-01T18:55:44.956614,1934491,1365,1846,-590,-1043,-573,-316,-28,114,-244
8063,9015,0,2023-03-01T18:55:44.962082,1934497,1366,1842,-600,-1040,-577,-317,-28,114,-244
8064,9016,0,2023-03-01T18:55:44.967777,1934503,1366,1842,-600,-1040,-577,-317,-28,114,-244
8065,9017,0,2023-03-01T18:55:44.972834,1934509,1366,1842,-600,-1040,-577,-317,-28,114,-244
8066,9018,0,2023-03-01T18:55:44.978082,1934513,1364,1847,-597,-1044,-578,-324,-28,114,-244
8067,9019,0,2023-03-01T18:55:44.986011,1934521,1364,1847,-597,-1044,-578,-324,-28,114,-244
8068,9020,0,2023-03-01T18:55:44.990987,1934526,1364,1847,-597,-1044,-578,-324,-28,114,-244
8069,9021,0,2023-03-01T18:55:44.995914,1934531,1364,1847,-597,-1044,-578,-324,-28,114,-244
8070,9022,0,2023-03-01T18:55:45.002015,1934537,1366,1844,-593,-1050,-573,-323,-28,114,-244
8071,9023,0,2023-03-01T18:55:45.008250,1934543,1366,1844,-593,-1050,-573,-323,-28,114,-244
8072,9024,0,2023-03-01T18:55:45.013438,1934548,1366,1844,-593,-1050,-573,-323,-28,114,-244
8073,9025,0,2023-03-01T18:55:45.018934,1934555,1370,1846,-591,-1043,-575,-320,-28,114,-244
8074,9026,0,2023-03-01T18:55:45.024531,1934560,1370,1846,-591,-1043,-575,-320,-28,114,-244
8075,9027,0,2023-03-01T18:55:45.029436,1934565,1370,1846,-591,-1043,-575,-320,-28,114,-244
8076,9028,0,2023-03-01T18:55:45.034610,1934570,1370,1846,-591,-1043,-575,-320,-28,114,-244
8077,9029,0,2023-03-01T18:55:45.039652,1934575,1366,1846,-587,-1043,-579,-328,-26,102,-248
8078,9030,0,2023-03-01T18:55:45.046387,1934581,1366,1846,-587,-1043,-579,-328,-26,102,-248
8079,9031,0,2023-03-01T18:55:45.051214,1934586,1366,1846,-587,-1043,-579,-328,-26,102,-248
8080,9032,0,2023-03-01T18:55:45.056316,1934592,1366,1845,-592,-1041,-572,-328,-26,102,-248
8081,9033,0,2023-03-01T18:55:45.062842,1934598,1366,1845,-592,-1041,-572,-328,-26,102,-248
8082,9034,0,2023-03-01T18:55:45.068488,1934603,1366,1845,-592,-1041,-572,-328,-26,102,-248
8083,9035,0,2023-03-01T18:55:45.073897,1934609,1366,1845,-592,-1041,-572,-328,-26,102,-248
8084,9036,0,2023-03-01T18:55:45.079868,1934615,1364,1845,-598,-1039,-574,-327,-26,102,-248
8085,9037,0,2023-03-01T18:55:45.085556,1934621,1364,1845,-598,-1039,-574,-327,-26,102,-248
8086,9038,0,2023-03-01T18:55:45.090661,1934626,1364,1845,-598,-1039,-574,-327,-26,102,-248
8087,9039,0,2023-03-01T18:55:45.095731,1934631,1364,1845,-598,-1039,-574,-327,-26,102,-248
8088,9040,0,2023-03-01T18:55:45.101839,1934638,1369,1847,-595,-1046,-576,-324,-26,102,-248
8089,9041,0,2023-03-01T18:55:45.107587,1934643,1369,1847,-595,-1046,-576,-324,-26,102,-248
8090,9042,0,2023-03-01T18:55:45.112895,1934649,1369,1847,-595,-1046,-576,-324,-26,102,-248
8091,9043,0,2023-03-01T18:55:45.117748,1934653,1367,1845,-597,-1041,-572,-320,-26,102,-248
8092,9044,0,2023-03-01T18:55:45.124093,1934659,1367,1845,-597,-1041,-572,-320,-26,102,-248
8093,9045,0,2023-03-01T18:55:45.128994,1934664,1367,1845,-597,-1041,-572,-320,-26,102,-248
8094,9046,0,2023-03-01T18:55:45.133715,1934669,1367,1845,-597,-1041,-572,-320,-26,102,-248
8095,9047,0,2023-03-01T18:55:45.138521,1934674,1367,1844,-595,-1042,-576,-319,-26,102,-248
8096,9048,0,2023-03-01T18:55:45.144769,1934680,1367,1844,-595,-1042,-576,-319,-26,102,-248
8097,9049,0,2023-03-01T18:55:45.149748,1934685,1367,1844,-595,-1042,-576,-319,-26,102,-248
8098,9050,0,2023-03-01T18:55:45.154465,1934690,1367,1844,-595,-1042,-576,-319,-26,102,-248
8099,9051,0,2023-03-01T18:55:45.160497,1934696,1368,1843,-595,-1041,-578,-325,-34,108,-238
8100,9052,0,2023-03-01T18:55:45.167356,1934702,1368,1843,-595,-1041,-578,-325,-34,108,-238
8101,9053,0,2023-03-01T18:55:45.172099,1934707,1368,1843,-595,-1041,-578,-325,-34,108,-238
8102,9054,0,2023-03-01T18:55:45.177348,1934712,1363,1845,-591,-1036,-567,-326,-34,108,-238
8103,9055,0,2023-03-01T18:55:45.183221,1934718,1363,1845,-591,-1036,-567,-326,-34,108,-238
8104,9056,0,2023-03-01T18:55:45.188576,1934724,1363,1845,-591,-1036,-567,-326,-34,108,-238
8105,9057,0,2023-03-01T18:55:45.193393,1934729,1363,1845,-591,-1036,-567,-326,-34,108,-238
8106,9058,0,2023-03-01T18:55:45.198623,1934734,1366,1844,-593,-1035,-578,-320,-34,108,-238
8107,9059,0,2023-03-01T18:55:45.205629,1934741,1366,1844,-593,-1035,-578,-320,-34,108,-238
8108,9060,0,2023-03-01T18:55:45.210528,1934746,1366,1844,-593,-1035,-578,-320,-34,108,-238
8109,9061,0,2023-03-01T18:55:45.215535,1934751,1366,1844,-593,-1035,-578,-320,-34,108,-238
8110,9062,0,2023-03-01T18:55:45.221283,1934756,1364,1841,-593,-1037,-574,-315,-34,108,-238
8111,9063,0,2023-03-01T18:55:45.226837,1934763,1364,1841,-593,-1037,-574,-315,-34,108,-238
8112,9064,0,2023-03-01T18:55:45.231620,1934767,1364,1841,-593,-1037,-574,-315,-34,108,-238
8113,9065,0,2023-03-01T18:55:45.237308,1934772,1368,1843,-597,-1037,-570,-322,-34,108,-238
8114,9066,0,2023-03-01T18:55:45.244014,1934779,1368,1843,-597,-1037,-570,-322,-34,108,-238
8115,9067,0,2023-03-01T18:55:45.248956,1934784,1368,1843,-597,-1037,-570,-322,-34,108,-238
8116,9068,0,2023-03-01T18:55:45.253688,1934789,1368,1843,-597,-1037,-570,-322,-34,108,-238
8117,9069,0,2023-03-01T18:55:45.258318,1934793,1364,1845,-588,-1038,-571,-326,-34,108,-238
8118,9070,0,2023-03-01T18:55:45.264170,1934799,1364,1845,-588,-1038,-571,-326,-34,108,-238
8119,9071,0,2023-03-01T18:55:45.269380,1934804,1364,1845,-588,-1038,-571,-326,-34,108,-238
8120,9072,0,2023-03-01T18:55:45.274870,1934810,1364,1845,-588,-1038,-571,-326,-34,108,-238
8121,9073,0,2023-03-01T18:55:45.280756,1934816,1370,1845,-594,-1036,-576,-320,-22,108,-242
8122,9074,0,2023-03-01T18:55:45.287009,1934822,1370,1845,-594,-1036,-576,-320,-22,108,-242
8123,9075,0,2023-03-01T18:55:45.292070,1934827,1370,1845,-594,-1036,-576,-320,-22,108,-242
8124,9076,0,2023-03-01T18:55:45.298237,1934833,1366,1845,-586,-1032,-574,-322,-22,108,-242
8125,9077,0,2023-03-01T18:55:45.304745,1934840,1366,1845,-586,-1032,-574,-322,-22,108,-242
8126,9078,0,2023-03-01T18:55:45.310456,1934845,1366,1845,-586,-1032,-574,-322,-22,108,-242
8127,9079,0,2023-03-01T18:55:45.315166,1934851,1366,1845,-586,-1032,-574,-322,-22,108,-242
8128,9080,0,2023-03-01T18:55:45.321218,1934857,1368,1842,-589,-1032,-575,-321,-22,108,-242
8129,9081,0,2023-03-01T18:55:45.326730,1934862,1368,1842,-589,-1032,-575,-321,-22,108,-242
8130,9082,0,2023-03-01T18:55:45.332164,1934868,1368,1842,-589,-1032,-575,-321,-22,108,-242
8131,9083,0,2023-03-01T18:55:45.337631,1934873,1365,1844,-596,-1045,-570,-317,-22,108,-242
8132,9084,0,2023-03-01T18:55:45.343596,1934879,1365,1844,-596,-1045,-570,-317,-22,108,-242
8133,9085,0,2023-03-01T18:55:45.348507,1934883,1365,1844,-596,-1045,-570,-317,-22,108,-242
8134,9086,0,2023-03-01T18:55:45.353463,1934888,1365,1844,-596,-1045,-570,-317,-22,108,-242
8135,9087,0,2023-03-01T18:55:45.358812,1934894,1369,1845,-595,-1046,-569,-322,-22,108,-242
8136,9088,0,2023-03-01T18:55:45.364987,1934901,1369,1845,-595,-1046,-569,-322,-22,108,-242
8137,9089,0,2023-03-01T18:55:45.370339,1934905,1369,1845,-595,-1046,-569,-322,-22,108,-242
8138,9090,0,2023-03-01T18:55:45.375850,1934911,1369,1845,-595,-1046,-569,-322,-22,108,-242
8139,9091,0,2023-03-01T18:55:45.382272,1934918,1366,1845,-592,-1040,-571,-320,-22,108,-242
8140,9092,0,2023-03-01T18:55:45.387793,1934923,1366,1845,-592,-1040,-571,-320,-22,108,-242
8141,9093,0,2023-03-01T18:55:45.392691,1934928,1366,1845,-592,-1040,-571,-320,-22,108,-242
8142,9094,0,2023-03-01T18:55:45.398324,1934934,1365,1845,-594,-1044,-581,-316,-22,108,-242
8143,9095,0,2023-03-01T18:55:45.404380,1934940,1365,1845,-594,-1044,-581,-316,-22,108,-242
8144,9096,0,2023-03-01T18:55:45.409274,1934945,1365,1845,-594,-1044,-581,-316,-22,108,-242
8145,9097,0,2023-03-01T18:55:45.414330,1934950,1365,1845,-594,-1044,-581,-316,-22,108,-242
8146,9098,0,2023-03-01T18:55:45.419398,1934955,1366,1845,-593,-1043,-573,-329,-31,111,-237
8147,9099,0,2023-03-01T18:55:45.426567,1934961,1366,1845,-593,-1043,-573,-329,-31,111,-237
8148,9100,0,2023-03-01T18:55:45.431932,1934967,1366,1845,-593,-1043,-573,-329,-31,111,-237
8149,9101,0,2023-03-01T18:55:45.437069,1934972,1366,1846,-595,-1051,-573,-325,-31,111,-237
8150,9102,0,2023-03-01T18:55:45.443886,1934980,1366,1846,-595,-1051,-573,-325,-31,111,-237
8151,9103,0,2023-03-01T18:55:45.449098,1934984,1366,1846,-595,-1051,-573,-325,-31,111,-237
8152,9104,0,2023-03-01T18:55:45.454258,1934990,1366,1846,-595,-1051,-573,-325,-31,111,-237
8153,9105,0,2023-03-01T18:55:45.460308,1934996,1364,1844,-592,-1042,-576,-330,-31,111,-237
8154,9106,0,2023-03-01T18:55:45.466454,1935002,1364,1844,-592,-1042,-576,-330,-31,111,-237
8155,9107,0,2023-03-01T18:55:45.471206,1935006,1364,1844,-592,-1042,-576,-330,-31,111,-237
8156,9108,0,2023-03-01T18:55:45.475991,1935011,1364,1844,-592,-1042,-576,-330,-31,111,-237
8157,9109,0,2023-03-01T18:55:45.481410,1935017,1367,1843,-594,-1041,-571,-324,-31,111,-237
8158,9110,0,2023-03-01T18:55:45.487341,1935023,1367,1843,-594,-1041,-571,-324,-31,111,-237
8159,9111,0,2023-03-01T18:55:45.492433,1935028,1367,1843,-594,-1041,-571,-324,-31,111,-237
8160,9112,0,2023-03-01T18:55:45.497131,1935033,1368,1844,-594,-1031,-568,-326,-31,111,-237
8161,9113,0,2023-03-01T18:55:45.502664,1935038,1368,1844,-594,-1031,-568,-326,-31,111,-237
8162,9114,0,2023-03-01T18:55:45.508107,1935043,1368,1844,-594,-1031,-568,-326,-31,111,-237
8163,9115,0,2023-03-01T18:55:45.513086,1935048,1368,1844,-594,-1031,-568,-326,-31,111,-237
8164,9116,0,2023-03-01T18:55:45.518016,1935053,1365,1843,-594,-1030,-570,-322,-31,111,-237
8165,9117,0,2023-03-01T18:55:45.524457,1935059,1365,1843,-594,-1030,-570,-322,-31,111,-237
8166,9118,0,2023-03-01T18:55:45.530052,1935066,1365,1843,-594,-1030,-570,-322,-31,111,-237
8167,9119,0,2023-03-01T18:55:45.535319,1935071,1365,1843,-594,-1030,-570,-322,-31,111,-237
8168,9120,0,2023-03-01T18:55:45.540379,1935076,1364,1846,-593,-1038,-574,-315,-37,113,-247
8169,9121,0,2023-03-01T18:55:45.546386,1935082,1364,1846,-593,-1038,-574,-315,-37,113,-247
8170,9122,0,2023-03-01T18:55:45.551339,1935087,1364,1846,-593,-1038,-574,-315,-37,113,-247
8171,9123,0,2023-03-01T18:55:45.556336,1935091,1364,1846,-593,-1038,-574,-315,-37,113,-247
8172,9124,0,2023-03-01T18:55:45.561436,1935096,1369,1844,-591,-1038,-569,-321,-37,113,-247
8173,9125,0,2023-03-01T18:55:45.566810,1935102,1369,1844,-591,-1038,-569,-321,-37,113,-247
8174,9126,0,2023-03-01T18:55:45.571842,1935107,1369,1844,-591,-1038,-569,-321,-37,113,-247
8175,9127,0,2023-03-01T18:55:45.577039,1935113,1364,1847,-595,-1040,-571,-320,-37,113,-247
8176,9128,0,2023-03-01T18:55:45.583382,1935119,1364,1847,-595,-1040,-571,-320,-37,113,-247
8177,9129,0,2023-03-01T18:55:45.588192,1935124,1364,1847,-595,-1040,-571,-320,-37,113,-247
8178,9130,0,2023-03-01T18:55:45.592890,1935128,1364,1847,-595,-1040,-571,-320,-37,113,-247
8179,9131,0,2023-03-01T18:55:45.598635,1935134,1366,1845,-594,-1036,-574,-325,-37,113,-247
8180,9132,0,2023-03-01T18:55:45.603459,1935139,1366,1845,-594,-1036,-574,-325,-37,113,-247
8181,9133,0,2023-03-01T18:55:45.608159,1935143,1366,1845,-594,-1036,-574,-325,-37,113,-247
8182,9134,0,2023-03-01T18:55:45.612960,1935149,1366,1845,-594,-1036,-574,-325,-37,113,-247
8183,9135,0,2023-03-01T18:55:45.617774,1935153,1364,1847,-593,-1038,-576,-320,-37,113,-247
8184,9136,0,2023-03-01T18:55:45.624201,1935160,1364,1847,-593,-1038,-576,-320,-37,113,-247
8185,9137,0,2023-03-01T18:55:45.629243,1935165,1364,1847,-593,-1038,-576,-320,-37,113,-247
8186,9138,0,2023-03-01T18:55:45.634158,1935170,1364,1847,-593,-1038,-576,-320,-37,113,-247
8187,9139,0,2023-03-01T18:55:45.639156,1935174,1364,1847,-593,-1038,-576,-320,-37,113,-247
8188,9140,0,2023-03-01T18:55:45.644857,1935180,1364,1847,-593,-1038,-576,-320,-37,113,-247
8189,9141,0,2023-03-01T18:55:45.650011,1935185,1364,1847,-593,-1038,-576,-320,-37,113,-247
8190,9142,0,2023-03-01T18:55:45.655225,1935191,1364,1847,-593,-1038,-576,-320,-37,113,-247
8191,9143,0,2023-03-01T18:55:45.661530,1935197,1367,1844,-591,-1048,-578,-321,-37,113,-247
8192,9144,0,2023-03-01T18:55:45.667132,1935203,1367,1844,-591,-1048,-578,-321,-37,113,-247
8193,9145,0,2023-03-01T18:55:45.671758,1935207,1367,1844,-591,-1048,-578,-321,-37,113,-247
8194,9146,0,2023-03-01T18:55:45.677142,1935212,1367,1844,-591,-1048,-578,-321,-37,113,-247
8195,9147,0,2023-03-01T18:55:45.683345,1935219,1366,1844,-592,-1049,-575,-326,-26,118,-244
8196,9148,0,2023-03-01T18:55:45.688907,1935224,1366,1844,-592,-1049,-575,-326,-26,118,-244
8197,9149,0,2023-03-01T18:55:45.693588,1935229,1366,1844,-592,-1049,-575,-326,-26,118,-244
8198,9150,0,2023-03-01T18:55:45.698828,1935235,1366,1843,-596,-1042,-567,-319,-26,118,-244
8199,9151,0,2023-03-01T18:55:45.704950,1935240,1366,1843,-596,-1042,-567,-319,-26,118,-244
8200,9152,0,2023-03-01T18:55:45.709846,1935245,1366,1843,-596,-1042,-567,-319,-26,118,-244
8201,9153,0,2023-03-01T18:55:45.715413,1935251,1366,1843,-596,-1042,-567,-319,-26,118,-244
8202,9154,0,2023-03-01T18:55:45.721090,1935256,1366,1846,-587,-1044,-577,-324,-26,118,-244
8203,9155,0,2023-03-01T18:55:45.727045,1935262,1366,1846,-587,-1044,-577,-324,-26,118,-244
8204,9156,0,2023-03-01T18:55:45.731896,1935267,1366,1846,-587,-1044,-577,-324,-26,118,-244
8205,9157,0,2023-03-01T18:55:45.737241,1935272,1366,1846,-587,-1044,-577,-324,-26,118,-244
8206,9158,0,2023-03-01T18:55:45.743547,1935279,1366,1844,-594,-1042,-572,-321,-26,118,-244
8207,9159,0,2023-03-01T18:55:45.749355,1935285,1366,1844,-594,-1042,-572,-321,-26,118,-244
8208,9160,0,2023-03-01T18:55:45.754837,1935290,1366,1844,-594,-1042,-572,-321,-26,118,-244
8209,9161,0,2023-03-01T18:55:45.760006,1935295,1365,1846,-587,-1038,-576,-314,-26,118,-244
8210,9162,0,2023-03-01T18:55:45.765957,1935301,1365,1846,-587,-1038,-576,-314,-26,118,-244
8211,9163,0,2023-03-01T18:55:45.770977,1935306,1365,1846,-587,-1038,-576,-314,-26,118,-244
8212,9164,0,2023-03-01T18:55:45.775771,1935311,1365,1846,-587,-1038,-576,-314,-26,118,-244
8213,9165,0,2023-03-01T18:55:45.781999,1935318,1369,1844,-595,-1040,-573,-324,-26,118,-244
8214,9166,0,2023-03-01T18:55:45.787761,1935323,1369,1844,-595,-1040,-573,-324,-26,118,-244
8215,9167,0,2023-03-01T18:55:45.792959,1935329,1369,1844,-595,-1040,-573,-324,-26,118,-244
8216,9168,0,2023-03-01T18:55:45.797653,1935333,1364,1845,-591,-1042,-569,-318,-27,119,-239
8217,9169,0,2023-03-01T18:55:45.803454,1935339,1364,1845,-591,-1042,-569,-318,-27,119,-239
8218,9170,0,2023-03-01T18:55:45.808221,1935344,1364,1845,-591,-1042,-569,-318,-27,119,-239
8219,9171,0,2023-03-01T18:55:45.813000,1935348,1364,1845,-591,-1042,-569,-318,-27,119,-239
8220,9172,0,2023-03-01T18:55:45.817802,1935353,1365,1846,-591,-1037,-571,-323,-27,119,-239
8221,9173,0,2023-03-01T18:55:45.824181,1935360,1365,1846,-591,-1037,-571,-323,-27,119,-239
8222,9174,0,2023-03-01T18:55:45.829109,1935365,1365,1846,-591,-1037,-571,-323,-27,119,-239
8223,9175,0,2023-03-01T18:55:45.834052,1935370,1365,1846,-591,-1037,-571,-323,-27,119,-239
8224,9176,0,2023-03-01T18:55:45.838806,1935374,1364,1845,-593,-1040,-570,-322,-27,119,-239
8225,9177,0,2023-03-01T18:55:45.845694,1935381,1364,1845,-593,-1040,-570,-322,-27,119,-239
8226,9178,0,2023-03-01T18:55:45.850318,1935386,1364,1845,-593,-1040,-570,-322,-27,119,-239
8227,9179,0,2023-03-01T18:55:45.855166,1935390,1364,1845,-593,-1040,-570,-322,-27,119,-239
8228,9180,0,2023-03-01T18:55:45.862568,1935397,1366,1843,-598,-1039,-568,-319,-27,119,-239
8229,9181,0,2023-03-01T18:55:45.868871,1935404,1366,1843,-598,-1039,-568,-319,-27,119,-239
8230,9182,0,2023-03-01T18:55:45.873856,1935410,1366,1843,-598,-1039,-568,-319,-27,119,-239
8231,9183,0,2023-03-01T18:55:45.878643,1935414,1366,1845,-592,-1038,-571,-323,-27,119,-239
8232,9184,0,2023-03-01T18:55:45.885077,1935420,1366,1845,-592,-1038,-571,-323,-27,119,-239
8233,9185,0,2023-03-01T18:55:45.890174,1935425,1366,1845,-592,-1038,-571,-323,-27,119,-239
8234,9186,0,2023-03-01T18:55:45.895140,1935430,1366,1845,-592,-1038,-571,-323,-27,119,-239
8235,9187,0,2023-03-01T18:55:45.900888,1935436,1366,1845,-592,-1038,-571,-323,-27,119,-239
8236,9188,0,2023-03-01T18:55:45.906499,1935442,1366,1845,-592,-1038,-571,-323,-27,119,-239
8237,9189,0,2023-03-01T18:55:45.911305,1935447,1366,1845,-592,-1038,-571,-323,-27,119,-239
8238,9190,0,2023-03-01T18:55:45.916333,1935452,1366,1845,-592,-1038,-571,-323,-27,119,-239
8239,9191,0,2023-03-01T18:55:45.922875,1935458,1368,1846,-597,-1034,-569,-319,-27,119,-239
8240,9192,0,2023-03-01T18:55:45.928956,1935464,1368,1846,-597,-1034,-569,-319,-27,119,-239
8241,9193,0,2023-03-01T18:55:45.934371,1935469,1368,1846,-597,-1034,-569,-319,-27,119,-239
8242,9194,0,2023-03-01T18:55:45.939217,1935474,1364,1846,-588,-1038,-574,-322,-34,110,-252
8243,9195,0,2023-03-01T18:55:45.945438,1935480,1364,1846,-588,-1038,-574,-322,-34,110,-252
8244,9196,0,2023-03-01T18:55:45.950839,1935485,1364,1846,-588,-1038,-574,-322,-34,110,-252
8245,9197,0,2023-03-01T18:55:45.956300,1935492,1364,1846,-588,-1038,-574,-322,-34,110,-252
8246,9198,0,2023-03-01T18:55:45.963024,1935499,1369,1845,-591,-1040,-569,-319,-34,110,-252
8247,9199,0,2023-03-01T18:55:45.968405,1935504,1369,1845,-591,-1040,-569,-319,-34,110,-252
8248,9200,0,2023-03-01T18:55:45.973437,1935509,1369,1845,-591,-1040,-569,-319,-34,110,-252
8249,9201,0,2023-03-01T18:55:45.979637,1935515,1364,1845,-592,-1039,-573,-320,-34,110,-252
8250,9202,0,2023-03-01T18:55:45.987161,1935522,1364,1845,-592,-1039,-573,-320,-34,110,-252
8251,9203,0,2023-03-01T18:55:45.992317,1935527,1364,1845,-592,-1039,-573,-320,-34,110,-252
8252,9204,0,2023-03-01T18:55:45.997579,1935533,1365,1844,-589,-1039,-572,-321,-34,110,-252
8253,9205,0,2023-03-01T18:55:46.004196,1935540,1365,1844,-589,-1039,-572,-321,-34,110,-252
8254,9206,0,2023-03-01T18:55:46.009479,1935545,1365,1844,-589,-1039,-572,-321,-34,110,-252
8255,9207,0,2023-03-01T18:55:46.014792,1935550,1365,1844,-589,-1039,-572,-321,-34,110,-252
8256,9208,0,2023-03-01T18:55:46.020521,1935556,1368,1841,-591,-1035,-571,-325,-34,110,-252
8257,9209,0,2023-03-01T18:55:46.027596,1935562,1368,1841,-591,-1035,-571,-325,-34,110,-252
8258,9210,0,2023-03-01T18:55:46.032884,1935568,1368,1841,-591,-1035,-571,-325,-34,110,-252
8259,9211,0,2023-03-01T18:55:46.037943,1935574,1365,1844,-594,-1037,-580,-323,-34,110,-252
8260,9212,0,2023-03-01T18:55:46.044680,1935580,1365,1844,-594,-1037,-580,-323,-34,110,-252
8261,9213,0,2023-03-01T18:55:46.049785,1935585,1365,1844,-594,-1037,-580,-323,-34,110,-252
8262,9214,0,2023-03-01T18:55:46.054711,1935590,1365,1844,-594,-1037,-580,-323,-34,110,-252
8263,9215,0,2023-03-01T18:55:46.059822,1935595,1366,1843,-597,-1049,-569,-316,-33,111,-245
8264,9216,0,2023-03-01T18:55:46.066243,1935601,1366,1843,-597,-1049,-569,-316,-33,111,-245
8265,9217,0,2023-03-01T18:55:46.071467,1935606,1366,1843,-597,-1049,-569,-316,-33,111,-245
8266,9218,0,2023-03-01T18:55:46.076247,1935611,1366,1843,-597,-1049,-569,-316,-33,111,-245
8267,9219,0,2023-03-01T18:55:46.083469,1935619,1367,1843,-600,-1037,-569,-325,-33,111,-245
8268,9220,0,2023-03-01T18:55:46.089246,1935625,1367,1843,-600,-1037,-569,-325,-33,111,-245
8269,9221,0,2023-03-01T18:55:46.094076,1935630,1367,1843,-600,-1037,-569,-325,-33,111,-245
8270,9222,0,2023-03-01T18:55:46.099660,1935635,1367,1846,-590,-1040,-568,-320,-33,111,-245
8271,9223,0,2023-03-01T18:55:46.106276,1935642,1367,1846,-590,-1040,-568,-320,-33,111,-245
8272,9224,0,2023-03-01T18:55:46.111360,1935647,1367,1846,-590,-1040,-568,-320,-33,111,-245
8273,9225,0,2023-03-01T18:55:46.116849,1935652,1367,1846,-590,-1040,-568,-320,-33,111,-245
8274,9226,0,2023-03-01T18:55:46.123188,1935659,1366,1843,-593,-1036,-569,-318,-33,111,-245
8275,9227,0,2023-03-01T18:55:46.129061,1935665,1366,1843,-593,-1036,-569,-318,-33,111,-245
8276,9228,0,2023-03-01T18:55:46.134116,1935670,1366,1843,-593,-1036,-569,-318,-33,111,-245
8277,9229,0,2023-03-01T18:55:46.140224,1935675,1367,1845,-598,-1038,-566,-322,-33,111,-245
8278,9230,0,2023-03-01T18:55:46.147538,1935682,1367,1845,-598,-1038,-566,-322,-33,111,-245
8279,9231,0,2023-03-01T18:55:46.152931,1935688,1367,1845,-598,-1038,-566,-322,-33,111,-245
8280,9232,0,2023-03-01T18:55:46.157704,1935693,1367,1844,-596,-1040,-565,-324,-33,111,-245
8281,9233,0,2023-03-01T18:55:46.162665,1935698,1367,1844,-596,-1040,-565,-324,-33,111,-245
8282,9234,0,2023-03-01T18:55:46.167826,1935704,1367,1844,-596,-1040,-565,-324,-33,111,-245
8283,9235,0,2023-03-01T18:55:46.173397,1935708,1367,1844,-596,-1040,-565,-324,-33,111,-245
8284,9236,0,2023-03-01T18:55:46.178694,1935714,1364,1842,-597,-1028,-566,-335,-34,108,-246
8285,9237,0,2023-03-01T18:55:46.185670,1935721,1364,1842,-597,-1028,-566,-335,-34,108,-246
8286,9238,0,2023-03-01T18:55:46.191241,1935726,1364,1842,-597,-1028,-566,-335,-34,108,-246
8287,9239,0,2023-03-01T18:55:46.196919,1935732,1364,1842,-597,-1028,-566,-335,-34,108,-246
8288,9240,0,2023-03-01T18:55:46.203298,1935738,1367,1842,-596,-1038,-575,-329,-34,108,-246
8289,9241,0,2023-03-01T18:55:46.209195,1935745,1367,1842,-596,-1038,-575,-329,-34,108,-246
8290,9242,0,2023-03-01T18:55:46.214039,1935750,1367,1842,-596,-1038,-575,-329,-34,108,-246
8291,9243,0,2023-03-01T18:55:46.218905,1935754,1368,1845,-590,-1038,-572,-322,-34,108,-246
8292,9244,0,2023-03-01T18:55:46.225194,1935761,1368,1845,-590,-1038,-572,-322,-34,108,-246
8293,9245,0,2023-03-01T18:55:46.230009,1935765,1368,1845,-590,-1038,-572,-322,-34,108,-246
8294,9246,0,2023-03-01T18:55:46.235050,1935770,1368,1845,-590,-1038,-572,-322,-34,108,-246
8295,9247,0,2023-03-01T18:55:46.240986,1935776,1368,1845,-599,-1038,-566,-323,-34,108,-246
8296,9248,0,2023-03-01T18:55:46.247263,1935782,1368,1845,-599,-1038,-566,-323,-34,108,-246
8297,9249,0,2023-03-01T18:55:46.252172,1935788,1368,1845,-599,-1038,-566,-323,-34,108,-246
8298,9250,0,2023-03-01T18:55:46.257122,1935793,1368,1845,-599,-1038,-566,-323,-34,108,-246
8299,9251,0,2023-03-01T18:55:46.263224,1935799,1367,1846,-592,-1041,-568,-324,-34,108,-246
8300,9252,0,2023-03-01T18:55:46.268804,1935804,1367,1846,-592,-1041,-568,-324,-34,108,-246
8301,9253,0,2023-03-01T18:55:46.273549,1935809,1367,1846,-592,-1041,-568,-324,-34,108,-246
8302,9254,0,2023-03-01T18:55:46.278539,1935814,1366,1844,-592,-1038,-567,-333,-34,108,-246
8303,9255,0,2023-03-01T18:55:46.283999,1935819,1366,1844,-592,-1038,-567,-333,-34,108,-246
8304,9256,0,2023-03-01T18:55:46.289313,1935824,1366,1844,-592,-1038,-567,-333,-34,108,-246
8305,9257,0,2023-03-01T18:55:46.295071,1935830,1366,1844,-592,-1038,-567,-333,-34,108,-246
8306,9258,0,2023-03-01T18:55:46.301081,1935837,1367,1842,-597,-1035,-568,-326,-34,108,-246
8307,9259,0,2023-03-01T18:55:46.308891,1935844,1367,1842,-597,-1035,-568,-326,-34,108,-246
8308,9260,0,2023-03-01T18:55:46.314210,1935850,1367,1842,-597,-1035,-568,-326,-34,108,-246
8309,9261,0,2023-03-01T18:55:46.318985,1935854,1367,1849,-593,-1034,-577,-331,-36,120,-248
8310,9262,0,2023-03-01T18:55:46.325976,1935861,1367,1849,-593,-1034,-577,-331,-36,120,-248
8311,9263,0,2023-03-01T18:55:46.330755,1935866,1367,1849,-593,-1034,-577,-331,-36,120,-248
8312,9264,0,2023-03-01T18:55:46.335746,1935870,1367,1849,-593,-1034,-577,-331,-36,120,-248
8313,9265,0,2023-03-01T18:55:46.341501,1935877,1366,1845,-595,-1040,-574,-325,-36,120,-248
8314,9266,0,2023-03-01T18:55:46.347625,1935883,1366,1845,-595,-1040,-574,-325,-36,120,-248
8315,9267,0,2023-03-01T18:55:46.352584,1935888,1366,1845,-595,-1040,-574,-325,-36,120,-248
8316,9268,0,2023-03-01T18:55:46.358737,1935894,1369,1843,-594,-1044,-571,-312,-36,120,-248
8317,9269,0,2023-03-01T18:55:46.365488,1935900,1369,1843,-594,-1044,-571,-312,-36,120,-248
8318,9270,0,2023-03-01T18:55:46.370395,1935905,1369,1843,-594,-1044,-571,-312,-36,120,-248
8319,9271,0,2023-03-01T18:55:46.375456,1935910,1369,1843,-594,-1044,-571,-312,-36,120,-248
8320,9272,0,2023-03-01T18:55:46.381379,1935917,1367,1848,-590,-1041,-570,-319,-36,120,-248
8321,9273,0,2023-03-01T18:55:46.387748,1935923,1367,1848,-590,-1041,-570,-319,-36,120,-248
8322,9274,0,2023-03-01T18:55:46.393170,1935928,1367,1848,-590,-1041,-570,-319,-36,120,-248
8323,9275,0,2023-03-01T18:55:46.398313,1935934,1367,1845,-599,-1035,-573,-323,-36,120,-248
8324,9276,0,2023-03-01T18:55:46.405422,1935941,1367,1845,-599,-1035,-573,-323,-36,120,-248
8325,9277,0,2023-03-01T18:55:46.410161,1935945,1367,1845,-599,-1035,-573,-323,-36,120,-248
8326,9278,0,2023-03-01T18:55:46.416640,1935951,1367,1845,-599,-1035,-573,-323,-36,120,-248
8327,9279,0,2023-03-01T18:55:46.423091,1935959,1365,1848,-592,-1029,-574,-318,-36,120,-248
8328,9280,0,2023-03-01T18:55:46.428931,1935965,1365,1848,-592,-1029,-574,-318,-36,120,-248
8329,9281,0,2023-03-01T18:55:46.434069,1935970,1365,1848,-592,-1029,-574,-318,-36,120,-248
8330,9282,0,2023-03-01T18:55:46.438843,1935974,1364,1846,-589,-1027,-568,-318,-33,113,-249
8331,9283,0,2023-03-01T18:55:46.445168,1935980,1364,1846,-589,-1027,-568,-318,-33,113,-249
8332,9284,0,2023-03-01T18:55:46.450247,1935985,1364,1846,-589,-1027,-568,-318,-33,113,-249
8333,9285,0,2023-03-01T18:55:46.455295,1935991,1364,1846,-589,-1027,-568,-318,-33,113,-249
8334,9286,0,2023-03-01T18:55:46.461367,1935997,1365,1843,-588,-1039,-572,-323,-33,113,-249
8335,9287,0,2023-03-01T18:55:46.466975,1936003,1365,1843,-588,-1039,-572,-323,-33,113,-249
8336,9288,0,2023-03-01T18:55:46.472182,1936008,1365,1843,-588,-1039,-572,-323,-33,113,-249
8337,9289,0,2023-03-01T18:55:46.477320,1936013,1365,1843,-588,-1039,-572,-323,-33,113,-249
8338,9290,0,2023-03-01T18:55:46.482608,1936018,1370,1841,-593,-1041,-580,-325,-33,113,-249
8339,9291,0,2023-03-01T18:55:46.488437,1936024,1370,1841,-593,-1041,-580,-325,-33,113,-249
8340,9292,0,2023-03-01T18:55:46.493631,1936029,1370,1841,-593,-1041,-580,-325,-33,113,-249
8341,9293,0,2023-03-01T18:55:46.498724,1936034,1369,1841,-595,-1034,-574,-321,-33,113,-249
8342,9294,0,2023-03-01T18:55:46.503709,1936038,1369,1841,-595,-1034,-574,-321,-33,113,-249
8343,9295,0,2023-03-01T18:55:46.509207,1936045,1369,1841,-595,-1034,-574,-321,-33,113,-249
8344,9296,0,2023-03-01T18:55:46.514320,1936050,1369,1841,-595,-1034,-574,-321,-33,113,-249
8345,9297,0,2023-03-01T18:55:46.520288,1936056,1367,1846,-591,-1038,-569,-317,-33,113,-249
8346,9298,0,2023-03-01T18:55:46.526929,1936062,1367,1846,-591,-1038,-569,-317,-33,113,-249
8347,9299,0,2023-03-01T18:55:46.531885,1936067,1367,1846,-591,-1038,-569,-317,-33,113,-249
8348,9300,0,2023-03-01T18:55:46.537173,1936072,1367,1846,-591,-1038,-569,-317,-33,113,-249
8349,9301,0,2023-03-01T18:55:46.542728,1936078,1368,1845,-589,-1043,-565,-324,-33,113,-249
8350,9302,0,2023-03-01T18:55:46.548587,1936083,1368,1845,-589,-1043,-565,-324,-33,113,-249
8351,9303,0,2023-03-01T18:55:46.553650,1936089,1368,1845,-589,-1043,-565,-324,-33,113,-249
8352,9304,0,2023-03-01T18:55:46.558749,1936094,1366,1844,-596,-1035,-570,-318,-33,113,-249
8353,9305,0,2023-03-01T18:55:46.564920,1936101,1366,1844,-596,-1035,-570,-318,-33,113,-249
8354,9306,0,2023-03-01T18:55:46.569765,1936105,1366,1844,-596,-1035,-570,-318,-33,113,-249
8355,9307,0,2023-03-01T18:55:46.574546,1936110,1366,1844,-596,-1035,-570,-318,-33,113,-249
8356,9308,0,2023-03-01T18:55:46.579493,1936115,1364,1848,-591,-1045,-572,-321,-28,118,-248
8357,9309,0,2023-03-01T18:55:46.585816,1936121,1364,1848,-591,-1045,-572,-321,-28,118,-248
8358,9310,0,2023-03-01T18:55:46.591014,1936126,1364,1848,-591,-1045,-572,-321,-28,118,-248
8359,9311,0,2023-03-01T18:55:46.596099,1936132,1364,1848,-591,-1045,-572,-321,-28,118,-248
8360,9312,0,2023-03-01T18:55:46.602265,1936138,1369,1845,-592,-1038,-576,-323,-28,118,-248
8361,9313,0,2023-03-01T18:55:46.607328,1936143,1369,1845,-592,-1038,-576,-323,-28,118,-248
8362,9314,0,2023-03-01T18:55:46.612780,1936148,1369,1845,-592,-1038,-576,-323,-28,118,-248
8363,9315,0,2023-03-01T18:55:46.617602,1936153,1369,1845,-592,-1038,-576,-323,-28,118,-248
8364,9316,0,2023-03-01T18:55:46.624125,1936159,1368,1845,-596,-1049,-576,-324,-28,118,-248
8365,9317,0,2023-03-01T18:55:46.630678,1936165,1368,1845,-596,-1049,-576,-324,-28,118,-248
8366,9318,0,2023-03-01T18:55:46.635344,1936171,1368,1845,-596,-1049,-576,-324,-28,118,-248
8367,9319,0,2023-03-01T18:55:46.642313,1936178,1365,1843,-595,-1040,-570,-322,-28,118,-248
8368,9320,0,2023-03-01T18:55:46.648031,1936183,1365,1843,-595,-1040,-570,-322,-28,118,-248
8369,9321,0,2023-03-01T18:55:46.652982,1936189,1365,1843,-595,-1040,-570,-322,-28,118,-248
8370,9322,0,2023-03-01T18:55:46.657725,1936193,1365,1843,-595,-1040,-570,-322,-28,118,-248
8371,9323,0,2023-03-01T18:55:46.663597,1936199,1365,1844,-601,-1040,-565,-322,-28,118,-248
8372,9324,0,2023-03-01T18:55:46.669692,1936205,1365,1844,-601,-1040,-565,-322,-28,118,-248
8373,9325,0,2023-03-01T18:55:46.674864,1936210,1365,1844,-601,-1040,-565,-322,-28,118,-248
8374,9326,0,2023-03-01T18:55:46.680912,1936217,1367,1846,-594,-1041,-568,-322,-28,118,-248
8375,9327,0,2023-03-01T18:55:46.686862,1936223,1367,1846,-594,-1041,-568,-322,-28,118,-248
8376,9328,0,2023-03-01T18:55:46.691732,1936227,1367,1846,-594,-1041,-568,-322,-28,118,-248
8377,9329,0,2023-03-01T18:55:46.696711,1936232,1367,1846,-594,-1041,-568,-322,-28,118,-248
8378,9330,0,2023-03-01T18:55:46.703006,1936238,1367,1846,-589,-1039,-574,-320,-27,113,-247
8379,9331,0,2023-03-01T18:55:46.709167,1936244,1367,1846,-589,-1039,-574,-320,-27,113,-247
8380,9332,0,2023-03-01T18:55:46.714392,1936250,1367,1846,-589,-1039,-574,-320,-27,113,-247
8381,9333,0,2023-03-01T18:55:46.719499,1936254,1368,1843,-593,-1041,-575,-322,-27,113,-247
8382,9334,0,2023-03-01T18:55:46.728164,1936264,1368,1843,-593,-1041,-575,-322,-27,113,-247
8383,9335,0,2023-03-01T18:55:46.733226,1936269,1368,1843,-593,-1041,-575,-322,-27,113,-247
8384,9336,0,2023-03-01T18:55:46.738029,1936274,1368,1843,-593,-1041,-575,-322,-27,113,-247
8385,9337,0,2023-03-01T18:55:46.744208,1936279,1367,1842,-589,-1041,-581,-324,-27,113,-247
8386,9338,0,2023-03-01T18:55:46.750680,1936286,1367,1842,-589,-1041,-581,-324,-27,113,-247
8387,9339,0,2023-03-01T18:55:46.755118,1936290,1367,1842,-589,-1041,-581,-324,-27,113,-247
8388,9340,0,2023-03-01T18:55:46.761095,1936296,1367,1846,-592,-1033,-570,-317,-27,113,-247
8389,9341,0,2023-03-01T18:55:46.766537,1936303,1367,1846,-592,-1033,-570,-317,-27,113,-247
8390,9342,0,2023-03-01T18:55:46.771417,1936307,1367,1846,-592,-1033,-570,-317,-27,113,-247
8391,9343,0,2023-03-01T18:55:46.777249,1936312,1367,1846,-592,-1033,-570,-317,-27,113,-247
8392,9344,0,2023-03-01T18:55:46.783156,1936318,1366,1843,-591,-1036,-581,-315,-27,113,-247
8393,9345,0,2023-03-01T18:55:46.788929,1936324,1366,1843,-591,-1036,-581,-315,-27,113,-247
8394,9346,0,2023-03-01T18:55:46.793566,1936329,1366,1843,-591,-1036,-581,-315,-27,113,-247
8395,9347,0,2023-03-01T18:55:46.798797,1936334,1364,1845,-595,-1043,-571,-322,-27,113,-247
8396,9348,0,2023-03-01T18:55:46.805249,1936340,1364,1845,-595,-1043,-571,-322,-27,113,-247
8397,9349,0,2023-03-01T18:55:46.810921,1936346,1364,1845,-595,-1043,-571,-322,-27,113,-247
8398,9350,0,2023-03-01T18:55:46.815958,1936352,1364,1845,-595,-1043,-571,-322,-27,113,-247
8399,9351,0,2023-03-01T18:55:46.822305,1936358,1365,1841,-595,-1037,-572,-320,-27,113,-247
8400,9352,0,2023-03-01T18:55:46.827841,1936363,1365,1841,-595,-1037,-572,-320,-27,113,-247
8401,9353,0,2023-03-01T18:55:46.832459,1936368,1365,1841,-595,-1037,-572,-320,-27,113,-247
8402,9354,0,2023-03-01T18:55:46.837479,1936373,1365,1841,-595,-1037,-572,-320,-27,113,-247
8403,9355,0,2023-03-01T18:55:46.843289,1936378,1366,1844,-593,-1047,-561,-326,-36,114,-246
8404,9356,0,2023-03-01T18:55:46.848936,1936385,1366,1844,-593,-1047,-561,-326,-36,114,-246
8405,9357,0,2023-03-01T18:55:46.854184,1936390,1366,1844,-593,-1047,-561,-326,-36,114,-246
8406,9358,0,2023-03-01T18:55:46.860564,1936396,1369,1845,-589,-1048,-568,-323,-36,114,-246
8407,9359,0,2023-03-01T18:55:46.866711,1936402,1369,1845,-589,-1048,-568,-323,-36,114,-246
8408,9360,0,2023-03-01T18:55:46.871807,1936407,1369,1845,-589,-1048,-568,-323,-36,114,-246
8409,9361,0,2023-03-01T18:55:46.876930,1936412,1369,1845,-589,-1048,-568,-323,-36,114,-246
8410,9362,0,2023-03-01T18:55:46.882951,1936418,1369,1845,-596,-1042,-573,-326,-36,114,-246
8411,9363,0,2023-03-01T18:55:46.888752,1936423,1369,1845,-596,-1042,-573,-326,-36,114,-246
8412,9364,0,2023-03-01T18:55:46.893980,1936430,1369,1845,-596,-1042,-573,-326,-36,114,-246
8413,9365,0,2023-03-01T18:55:46.899713,1936435,1368,1842,-591,-1032,-574,-323,-36,114,-246
8414,9366,0,2023-03-01T18:55:46.905074,1936441,1368,1842,-591,-1032,-574,-323,-36,114,-246
8415,9367,0,2023-03-01T18:55:46.909952,1936446,1368,1842,-591,-1032,-574,-323,-36,114,-246
8416,9368,0,2023-03-01T18:55:46.914982,1936450,1368,1842,-591,-1032,-574,-323,-36,114,-246
8417,9369,0,2023-03-01T18:55:46.920264,1936455,1368,1842,-591,-1032,-574,-323,-36,114,-246
8418,9370,0,2023-03-01T18:55:46.925947,1936461,1368,1842,-591,-1032,-574,-323,-36,114,-246
8419,9371,0,2023-03-01T18:55:46.930923,1936466,1368,1842,-591,-1032,-574,-323,-36,114,-246
8420,9372,0,2023-03-01T18:55:46.935467,1936472,1368,1842,-591,-1032,-574,-323,-36,114,-246
8421,9373,0,2023-03-01T18:55:46.941496,1936477,1367,1841,-592,-1034,-567,-326,-36,114,-246
8422,9374,0,2023-03-01T18:55:46.947174,1936482,1367,1841,-592,-1034,-567,-326,-36,114,-246
8423,9375,0,2023-03-01T18:55:46.952713,1936488,1367,1841,-592,-1034,-567,-326,-36,114,-246
8424,9376,0,2023-03-01T18:55:46.957845,1936493,1367,1841,-592,-1034,-567,-326,-36,114,-246
8425,9377,0,2023-03-01T18:55:46.963901,1936499,1367,1846,-590,-1037,-574,-325,-31,113,-251
8426,9378,0,2023-03-01T18:55:46.972076,1936507,1367,1846,-590,-1037,-574,-325,-31,113,-251
8427,9379,0,2023-03-01T18:55:46.978438,1936513,1367,1846,-590,-1037,-574,-325,-31,113,-251
8428,9380,0,2023-03-01T18:55:46.984107,1936520,1366,1846,-590,-1043,-577,-314,-31,113,-251
8429,9381,0,2023-03-01T18:55:46.989647,1936525,1366,1846,-590,-1043,-577,-314,-31,113,-251
8430,9382,0,2023-03-01T18:55:46.994728,1936530,1366,1846,-590,-1043,-577,-314,-31,113,-251
8431,9383,0,2023-03-01T18:55:47.000765,1936536,1365,1841,-594,-1043,-571,-319,-31,113,-251
8432,9384,0,2023-03-01T18:55:47.007306,1936542,1365,1841,-594,-1043,-571,-319,-31,113,-251
8433,9385,0,2023-03-01T18:55:47.012537,1936548,1365,1841,-594,-1043,-571,-319,-31,113,-251
8434,9386,0,2023-03-01T18:55:47.017152,1936552,1365,1841,-594,-1043,-571,-319,-31,113,-251
8435,9387,0,2023-03-01T18:55:47.023222,1936559,1369,1845,-596,-1048,-574,-327,-31,113,-251
8436,9388,0,2023-03-01T18:55:47.029365,1936565,1369,1845,-596,-1048,-574,-327,-31,113,-251
8437,9389,0,2023-03-01T18:55:47.034386,1936570,1369,1845,-596,-1048,-574,-327,-31,113,-251
8438,9390,0,2023-03-01T18:55:47.040293,1936576,1369,1845,-592,-1043,-568,-326,-31,113,-251
8439,9391,0,2023-03-01T18:55:47.045456,1936581,1369,1845,-592,-1043,-568,-326,-31,113,-251
8440,9392,0,2023-03-01T18:55:47.051160,1936586,1369,1845,-592,-1043,-568,-326,-31,113,-251
8441,9393,0,2023-03-01T18:55:47.056734,1936591,1369,1845,-592,-1043,-568,-326,-31,113,-251
8442,9394,0,2023-03-01T18:55:47.062672,1936598,1368,1843,-588,-1043,-571,-326,-31,113,-251
8443,9395,0,2023-03-01T18:55:47.068311,1936604,1368,1843,-588,-1043,-571,-326,-31,113,-251
8444,9396,0,2023-03-01T18:55:47.072877,1936609,1368,1843,-588,-1043,-571,-326,-31,113,-251
8445,9397,0,2023-03-01T18:55:47.077690,1936613,1368,1843,-588,-1043,-571,-326,-31,113,-251
8446,9398,0,2023-03-01T18:55:47.084527,1936620,1366,1843,-595,-1034,-571,-323,-37,111,-245
8447,9399,0,2023-03-01T18:55:47.090282,1936626,1366,1843,-595,-1034,-571,-323,-37,111,-245
8448,9400,0,2023-03-01T18:55:47.095225,1936630,1366,1843,-595,-1034,-571,-323,-37,111,-245
8449,9401,0,2023-03-01T18:55:47.100263,1936635,1363,1845,-587,-1033,-567,-321,-37,111,-245
8450,9402,0,2023-03-01T18:55:47.106484,1936642,1363,1845,-587,-1033,-567,-321,-37,111,-245
8451,9403,0,2023-03-01T18:55:47.111382,1936647,1363,1845,-587,-1033,-567,-321,-37,111,-245
8452,9404,0,2023-03-01T18:55:47.116955,1936652,1363,1845,-587,-1033,-567,-321,-37,111,-245
8453,9405,0,2023-03-01T18:55:47.122676,1936658,1365,1842,-591,-1040,-569,-318,-37,111,-245
8454,9406,0,2023-03-01T18:55:47.128343,1936664,1365,1842,-591,-1040,-569,-318,-37,111,-245
8455,9407,0,2023-03-01T18:55:47.133616,1936669,1365,1842,-591,-1040,-569,-318,-37,111,-245
8456,9408,0,2023-03-01T18:55:47.138585,1936674,1365,1842,-591,-1040,-569,-318,-37,111,-245
8457,9409,0,2023-03-01T18:55:47.145051,1936680,1368,1846,-596,-1030,-568,-328,-37,111,-245
8458,9410,0,2023-03-01T18:55:47.151021,1936687,1368,1846,-596,-1030,-568,-328,-37,111,-245
