,Unnamed: 0,imu,server_time,arduino_time,ax,ay,az,gx,gy,gz,mx,my,mz
10715,1667,0,2023-03-01T18:55:59.803906,1949340,1230,1946,-347,-1054,-566,-329,-27,113,-281
10716,1668,0,2023-03-01T18:55:59.809847,1949346,1230,1946,-347,-1054,-566,-329,-27,113,-281
10717,1669,0,2023-03-01T18:55:59.814999,1949351,1225,1943,-345,-1040,-576,-318,-27,113,-281
10718,1670,0,2023-03-01T18:55:59.820914,1949358,1225,1943,-345,-1040,-576,-318,-23,111,-273
10719,1671,0,2023-03-01T18:55:59.826787,1949363,1225,1943,-345,-1040,-576,-318,-23,111,-273
10720,1672,0,2023-03-01T18:55:59.831784,1949368,1225,1943,-345,-1040,-576,-318,-23,111,-273
10721,1673,0,2023-03-01T18:55:59.837006,1949373,1227,1944,-351,-1029,-578,-317,-23,111,-273
10722,1674,0,2023-03-01T18:55:59.843043,1949379,1227,1944,-351,-1029,-578,-317,-23,111,-273
10723,1675,0,2023-03-01T18:55:59.848874,1949385,1227,1944,-351,-1029,-578,-317,-23,111,-273
10724,1676,0,2023-03-01T18:55:59.854851,1949390,1233,1942,-352,-1024,-581,-306,-23,111,-273
10725,1677,0,2023-03-01T18:55:59.860779,1949396,1233,1942,-352,-1024,-581,-306,-23,111,-273
10726,1678,0,2023-03-01T18:55:59.866975,1949403,1233,1942,-352,-1024,-581,-306,-23,111,-273
10727,1679,0,2023-03-01T18:55:59.873053,1949409,1233,1942,-352,-1024,-581,-306,-23,111,-273
10728,1680,0,2023-03-01T18:55:59.878211,1949415,1234,1938,-358,-1034,-586,-313,-23,111,-273
10729,1681,0,2023-03-01T18:55:59.883098,1949419,1234,1938,-358,-1034,-586,-313,-23,111,-273
10730,1682,0,2023-03-01T18:55:59.887830,1949424,1234,1938,-358,-1034,-586,-313,-23,111,-273
10731,1683,0,2023-03-01T18:55:59.893307,1949429,1234,1938,-358,-1034,-586,-313,-23,111,-273
10732,1684,0,2023-03-01T18:55:59.898599,1949434,1231,1940,-358,-1045,-577,-319,-23,111,-273
10733,1685,0,2023-03-01T18:55:59.904122,1949441,1231,1940,-358,-1045,-577,-319,-23,111,-273
10734,1686,0,2023-03-01T18:55:59.909818,1949446,1231,1940,-358,-1045,-577,-319,-23,111,-273
10735,1687,0,2023-03-01T18:55:59.915018,1949452,1230,1938,-352,-1053,-566,-335,-23,111,-273
10736,1688,0,2023-03-01T18:55:59.921273,1949457,1230,1938,-352,-1053,-566,-335,-23,111,-273
10737,1689,0,2023-03-01T18:55:59.927850,1949464,1230,1938,-352,-1053,-566,-335,-23,111,-273
10738,1690,0,2023-03-01T18:55:59.934259,1949470,1230,1938,-352,-1053,-566,-335,-23,111,-273
10739,1691,0,2023-03-01T18:55:59.939050,1949475,1226,1946,-349,-1050,-564,-330,-23,111,-273
10740,1692,0,2023-03-01T18:55:59.944966,1949480,1226,1946,-349,-1050,-564,-330,-23,111,-273
10741,1693,0,2023-03-01T18:55:59.950009,1949486,1226,1946,-349,-1050,-564,-330,-23,111,-273
10742,1694,0,2023-03-01T18:55:59.955877,1949492,1226,1947,-347,-1033,-570,-328,-31,109,-277
10743,1695,0,2023-03-01T18:55:59.961637,1949498,1226,1947,-347,-1033,-570,-328,-31,109,-277
10744,1696,0,2023-03-01T18:55:59.967181,1949503,1226,1947,-347,-1033,-570,-328,-31,109,-277
10745,1697,0,2023-03-01T18:55:59.972251,1949508,1226,1947,-347,-1033,-570,-328,-31,109,-277
10746,1698,0,2023-03-01T18:55:59.977473,1949513,1226,1947,-347,-1033,-570,-328,-31,109,-277
10747,1699,0,2023-03-01T18:55:59.982374,1949518,1226,1947,-347,-1033,-570,-328,-31,109,-277
10748,1700,0,2023-03-01T18:55:59.988146,1949524,1226,1947,-347,-1033,-570,-328,-31,109,-277
10749,1701,0,2023-03-01T18:55:59.994110,1949530,1226,1947,-347,-1033,-570,-328,-31,109,-277
10750,1702,0,2023-03-01T18:55:59.999025,1949536,1228,1941,-359,-1025,-577,-316,-31,109,-277
10751,1703,0,2023-03-01T18:56:00.004867,1949541,1228,1941,-359,-1025,-577,-316,-31,109,-277
10752,1704,0,2023-03-01T18:56:00.010869,1949547,1228,1941,-359,-1025,-577,-316,-31,109,-277
10753,1705,0,2023-03-01T18:56:00.016032,1949552,1230,1940,-362,-1034,-573,-318,-31,109,-277
10754,1706,0,2023-03-01T18:56:00.021718,1949557,1230,1940,-362,-1034,-573,-318,-31,109,-277
10755,1707,0,2023-03-01T18:56:00.027234,1949563,1230,1940,-362,-1034,-573,-318,-31,109,-277
10756,1708,0,2023-03-01T18:56:00.033822,1949570,1230,1940,-362,-1034,-573,-318,-31,109,-277
10757,1709,0,2023-03-01T18:56:00.039838,1949576,1234,1939,-359,-1048,-571,-321,-31,109,-277
10758,1710,0,2023-03-01T18:56:00.045774,1949582,1234,1939,-359,-1048,-571,-321,-31,109,-277
10759,1711,0,2023-03-01T18:56:00.050693,1949587,1234,1939,-359,-1048,-571,-321,-31,109,-277
10760,1712,0,2023-03-01T18:56:00.055327,1949592,1233,1941,-353,-1047,-565,-334,-31,109,-277
10761,1713,0,2023-03-01T18:56:00.060900,1949597,1233,1941,-353,-1047,-565,-334,-31,109,-277
10762,1714,0,2023-03-01T18:56:00.067081,1949603,1233,1941,-353,-1047,-565,-334,-31,109,-277
10763,1715,0,2023-03-01T18:56:00.072996,1949609,1233,1941,-353,-1047,-565,-334,-31,109,-277
10764,1716,0,2023-03-01T18:56:00.078250,1949615,1229,1945,-350,-1040,-570,-337,-23,115,-279
10765,1717,0,2023-03-01T18:56:00.083730,1949620,1229,1945,-350,-1040,-570,-337,-23,115,-279
10766,1718,0,2023-03-01T18:56:00.089505,1949626,1229,1945,-350,-1040,-570,-337,-23,115,-279
10767,1719,0,2023-03-01T18:56:00.094337,1949631,1229,1945,-350,-1040,-570,-337,-23,115,-279
10768,1720,0,2023-03-01T18:56:00.099164,1949635,1226,1945,-345,-1039,-573,-326,-23,115,-279
10769,1721,0,2023-03-01T18:56:00.104490,1949641,1226,1945,-345,-1039,-573,-326,-23,115,-279
10770,1722,0,2023-03-01T18:56:00.110118,1949646,1226,1945,-345,-1039,-573,-326,-23,115,-279
10771,1723,0,2023-03-01T18:56:00.116119,1949651,1229,1948,-354,-1037,-578,-319,-23,115,-279
10772,1724,0,2023-03-01T18:56:00.122593,1949659,1229,1948,-354,-1037,-578,-319,-23,115,-279
10773,1725,0,2023-03-01T18:56:00.128806,1949665,1229,1948,-354,-1037,-578,-319,-23,115,-279
10774,1726,0,2023-03-01T18:56:00.135098,1949671,1229,1948,-354,-1037,-578,-319,-23,115,-279
10775,1727,0,2023-03-01T18:56:00.140209,1949676,1233,1940,-355,-1030,-576,-314,-23,115,-279
10776,1728,0,2023-03-01T18:56:00.146839,1949682,1233,1940,-355,-1030,-576,-314,-23,115,-279
10777,1729,0,2023-03-01T18:56:00.153250,1949689,1233,1940,-355,-1030,-576,-314,-23,115,-279
10778,1730,0,2023-03-01T18:56:00.158408,1949694,1234,1940,-367,-1029,-572,-311,-23,115,-279
10779,1731,0,2023-03-01T18:56:00.163881,1949701,1234,1940,-367,-1029,-572,-311,-23,115,-279
10780,1732,0,2023-03-01T18:56:00.169365,1949706,1234,1940,-367,-1029,-572,-311,-23,115,-279
10781,1733,0,2023-03-01T18:56:00.174547,1949711,1234,1940,-367,-1029,-572,-311,-23,115,-279
10782,1734,0,2023-03-01T18:56:00.179726,1949716,1232,1941,-357,-1038,-577,-316,-23,115,-279
10783,1735,0,2023-03-01T18:56:00.185575,1949722,1232,1941,-357,-1038,-577,-316,-23,115,-279
10784,1736,0,2023-03-01T18:56:00.190441,1949726,1232,1941,-357,-1038,-577,-316,-23,115,-279
10785,1737,0,2023-03-01T18:56:00.196095,1949731,1234,1947,-352,-1043,-573,-327,-23,115,-279
10786,1738,0,2023-03-01T18:56:00.201336,1949737,1234,1947,-352,-1043,-573,-327,-23,115,-279
10787,1739,0,2023-03-01T18:56:00.207216,1949743,1234,1947,-352,-1043,-573,-327,-23,115,-279
10788,1740,0,2023-03-01T18:56:00.211991,1949749,1234,1947,-352,-1043,-573,-327,-23,115,-279
10789,1741,0,2023-03-01T18:56:00.216735,1949753,1229,1942,-349,-1051,-572,-332,-31,103,-277
10790,1742,0,2023-03-01T18:56:00.222388,1949758,1229,1942,-349,-1051,-572,-332,-31,103,-277
10791,1743,0,2023-03-01T18:56:00.228416,1949764,1229,1942,-349,-1051,-572,-332,-31,103,-277
10792,1744,0,2023-03-01T18:56:00.234277,1949770,1229,1942,-349,-1051,-572,-332,-31,103,-277
10793,1745,0,2023-03-01T18:56:00.239436,1949775,1225,1944,-355,-1041,-577,-326,-31,103,-277
10794,1746,0,2023-03-01T18:56:00.245327,1949782,1225,1944,-355,-1041,-577,-326,-31,103,-277
10795,1747,0,2023-03-01T18:56:00.250055,1949787,1225,1944,-355,-1041,-577,-326,-31,103,-277
10796,1748,0,2023-03-01T18:56:00.255246,1949791,1225,1944,-355,-1041,-577,-326,-31,103,-277
10797,1749,0,2023-03-01T18:56:00.261390,1949797,1229,1941,-347,-1024,-569,-324,-31,103,-277
10798,1750,0,2023-03-01T18:56:00.267846,1949804,1229,1941,-347,-1024,-569,-324,-31,103,-277
10799,1751,0,2023-03-01T18:56:00.273482,1949810,1229,1941,-347,-1024,-569,-324,-31,103,-277
10800,1752,0,2023-03-01T18:56:00.278442,1949814,1232,1944,-357,-1027,-573,-315,-31,103,-277
10801,1753,0,2023-03-01T18:56:00.283972,1949820,1232,1944,-357,-1027,-573,-315,-31,103,-277
10802,1754,0,2023-03-01T18:56:00.289609,1949826,1232,1944,-357,-1027,-573,-315,-31,103,-277
10803,1755,0,2023-03-01T18:56:00.294407,1949831,1232,1944,-357,-1027,-573,-315,-31,103,-277
10804,1756,0,2023-03-01T18:56:00.299329,1949836,1229,1942,-358,-1028,-572,-304,-31,103,-277
10805,1757,0,2023-03-01T18:56:00.305914,1949842,1229,1942,-358,-1028,-572,-304,-31,103,-277
10806,1758,0,2023-03-01T18:56:00.312243,1949848,1229,1942,-358,-1028,-572,-304,-31,103,-277
10807,1759,0,2023-03-01T18:56:00.317093,1949853,1234,1942,-360,-1039,-576,-317,-31,103,-277
10808,1760,0,2023-03-01T18:56:00.322691,1949859,1234,1942,-360,-1039,-576,-317,-31,103,-277
10809,1761,0,2023-03-01T18:56:00.328471,1949864,1234,1942,-360,-1039,-576,-317,-31,103,-277
10810,1762,0,2023-03-01T18:56:00.334847,1949871,1234,1942,-360,-1039,-576,-317,-31,103,-277
10811,1763,0,2023-03-01T18:56:00.340067,1949876,1227,1941,-353,-1044,-573,-327,-17,113,-271
10812,1764,0,2023-03-01T18:56:00.346851,1949883,1227,1941,-353,-1044,-573,-327,-17,113,-271
10813,1765,0,2023-03-01T18:56:00.353594,1949889,1227,1941,-353,-1044,-573,-327,-17,113,-271
10814,1766,0,2023-03-01T18:56:00.358648,1949895,1228,1941,-349,-1040,-562,-326,-17,113,-271
10815,1767,0,2023-03-01T18:56:00.364238,1949900,1228,1941,-349,-1040,-562,-326,-17,113,-271
10816,1768,0,2023-03-01T18:56:00.371270,1949907,1228,1941,-349,-1040,-562,-326,-17,113,-271
10817,1769,0,2023-03-01T18:56:00.377207,1949913,1227,1942,-348,-1036,-571,-322,-17,113,-271
10818,1770,0,2023-03-01T18:56:00.383091,1949920,1227,1942,-348,-1036,-571,-322,-17,113,-271
10819,1771,0,2023-03-01T18:56:00.388706,1949925,1227,1942,-348,-1036,-571,-322,-17,113,-271
10820,1772,0,2023-03-01T18:56:00.394174,1949930,1227,1942,-348,-1036,-571,-322,-17,113,-271
10821,1773,0,2023-03-01T18:56:00.399362,1949935,1228,1940,-358,-1041,-568,-309,-17,113,-271
10822,1774,0,2023-03-01T18:56:00.405041,1949941,1228,1940,-358,-1041,-568,-309,-17,113,-271
10823,1775,0,2023-03-01T18:56:00.411129,1949947,1228,1940,-358,-1041,-568,-309,-17,113,-271
10824,1776,0,2023-03-01T18:56:00.415752,1949953,1230,1942,-355,-1036,-571,-322,-17,113,-271
10825,1777,0,2023-03-01T18:56:00.421441,1949958,1230,1942,-355,-1036,-571,-322,-17,113,-271
10826,1778,0,2023-03-01T18:56:00.427404,1949964,1230,1942,-355,-1036,-571,-322,-17,113,-271
10827,1779,0,2023-03-01T18:56:00.433100,1949969,1230,1942,-355,-1036,-571,-322,-17,113,-271
10828,1780,0,2023-03-01T18:56:00.438021,1949974,1228,1941,-357,-1037,-576,-317,-17,113,-271
10829,1781,0,2023-03-01T18:56:00.444158,1949980,1228,1941,-357,-1037,-576,-317,-17,113,-271
10830,1782,0,2023-03-01T18:56:00.450280,1949986,1228,1941,-357,-1037,-576,-317,-17,113,-271
10831,1783,0,2023-03-01T18:56:00.455985,1949991,1233,1946,-355,-1045,-584,-310,-17,113,-271
10832,1784,0,2023-03-01T18:56:00.461423,1949998,1233,1946,-355,-1045,-584,-310,-22,118,-280
10833,1785,0,2023-03-01T18:56:00.467129,1950003,1233,1946,-355,-1045,-584,-310,-22,118,-280
10834,1786,0,2023-03-01T18:56:00.471953,1950008,1233,1946,-355,-1045,-584,-310,-22,118,-280
10835,1787,0,2023-03-01T18:56:00.477778,1950013,1233,1941,-355,-1049,-570,-328,-22,118,-280
10836,1788,0,2023-03-01T18:56:00.484877,1950021,1233,1941,-355,-1049,-570,-328,-22,118,-280
10837,1789,0,2023-03-01T18:56:00.490253,1950026,1233,1941,-355,-1049,-570,-328,-22,118,-280
10838,1790,0,2023-03-01T18:56:00.494779,1950031,1233,1941,-355,-1049,-570,-328,-22,118,-280
10839,1791,0,2023-03-01T18:56:00.499580,1950035,1228,1943,-347,-1050,-566,-330,-22,118,-280
10840,1792,0,2023-03-01T18:56:00.505890,1950042,1228,1943,-347,-1050,-566,-330,-22,118,-280
10841,1793,0,2023-03-01T18:56:00.512002,1950048,1228,1943,-347,-1050,-566,-330,-22,118,-280
10842,1794,0,2023-03-01T18:56:00.517025,1950054,1225,1945,-355,-1044,-573,-329,-22,118,-280
10843,1795,0,2023-03-01T18:56:00.522795,1950059,1225,1945,-355,-1044,-573,-329,-22,118,-280
10844,1796,0,2023-03-01T18:56:00.528580,1950064,1225,1945,-355,-1044,-573,-329,-22,118,-280
10845,1797,0,2023-03-01T18:56:00.534339,1950070,1225,1945,-355,-1044,-573,-329,-22,118,-280
10846,1798,0,2023-03-01T18:56:00.539577,1950075,1228,1944,-355,-1030,-573,-328,-22,118,-280
10847,1799,0,2023-03-01T18:56:00.544331,1950081,1228,1944,-355,-1030,-573,-328,-22,118,-280
10848,1800,0,2023-03-01T18:56:00.549890,1950087,1228,1944,-355,-1030,-573,-328,-22,118,-280
10849,1801,0,2023-03-01T18:56:00.554779,1950091,1228,1944,-355,-1030,-573,-328,-22,118,-280
10850,1802,0,2023-03-01T18:56:00.560323,1950096,1229,1942,-352,-1027,-569,-318,-22,118,-280
10851,1803,0,2023-03-01T18:56:00.566487,1950102,1229,1942,-352,-1027,-569,-318,-22,118,-280
10852,1804,0,2023-03-01T18:56:00.571902,1950108,1229,1942,-352,-1027,-569,-318,-22,118,-280
10853,1805,0,2023-03-01T18:56:00.576980,1950113,1226,1943,-355,-1030,-578,-311,-22,118,-280
10854,1806,0,2023-03-01T18:56:00.582510,1950118,1226,1943,-355,-1030,-578,-311,-22,118,-280
10855,1807,0,2023-03-01T18:56:00.588362,1950124,1226,1943,-355,-1030,-578,-311,-22,118,-280
10856,1808,0,2023-03-01T18:56:00.594586,1950131,1226,1943,-355,-1030,-578,-311,-22,118,-280
10857,1809,0,2023-03-01T18:56:00.600040,1950136,1231,1944,-358,-1035,-570,-309,-20,118,-272
10858,1810,0,2023-03-01T18:56:00.606482,1950143,1231,1944,-358,-1035,-570,-309,-20,118,-272
10859,1811,0,2023-03-01T18:56:00.611991,1950148,1231,1944,-358,-1035,-570,-309,-20,118,-272
10860,1812,0,2023-03-01T18:56:00.616684,1950153,1232,1939,-354,-1045,-578,-308,-20,118,-272
10861,1813,0,2023-03-01T18:56:00.622333,1950158,1232,1939,-354,-1045,-578,-308,-20,118,-272
10862,1814,0,2023-03-01T18:56:00.628300,1950164,1232,1939,-354,-1045,-578,-308,-20,118,-272
10863,1815,0,2023-03-01T18:56:00.633224,1950170,1232,1939,-354,-1045,-578,-308,-20,118,-272
10864,1816,0,2023-03-01T18:56:00.638289,1950174,1229,1941,-351,-1050,-574,-320,-20,118,-272
10865,1817,0,2023-03-01T18:56:00.643874,1950180,1229,1941,-351,-1050,-574,-320,-20,118,-272
10866,1818,0,2023-03-01T18:56:00.649396,1950185,1229,1941,-351,-1050,-574,-320,-20,118,-272
10867,1819,0,2023-03-01T18:56:00.654804,1950191,1229,1941,-351,-1050,-574,-320,-20,118,-272
10868,1820,0,2023-03-01T18:56:00.660220,1950196,1227,1944,-352,-1039,-570,-316,-20,118,-272
10869,1821,0,2023-03-01T18:56:00.666297,1950202,1227,1944,-352,-1039,-570,-316,-20,118,-272
10870,1822,0,2023-03-01T18:56:00.672166,1950208,1227,1944,-352,-1039,-570,-316,-20,118,-272
10871,1823,0,2023-03-01T18:56:00.677402,1950214,1231,1944,-347,-1037,-569,-314,-20,118,-272
10872,1824,0,2023-03-01T18:56:00.683468,1950220,1231,1944,-347,-1037,-569,-314,-20,118,-272
10873,1825,0,2023-03-01T18:56:00.689076,1950225,1231,1944,-347,-1037,-569,-314,-20,118,-272
10874,1826,0,2023-03-01T18:56:00.694460,1950230,1231,1944,-347,-1037,-569,-314,-20,118,-272
10875,1827,0,2023-03-01T18:56:00.700873,1950237,1228,1943,-356,-1037,-568,-313,-20,118,-272
10876,1828,0,2023-03-01T18:56:00.706735,1950243,1228,1943,-356,-1037,-568,-313,-20,118,-272
10877,1829,0,2023-03-01T18:56:00.711613,1950247,1228,1943,-356,-1037,-568,-313,-20,118,-272
10878,1830,0,2023-03-01T18:56:00.716535,1950253,1230,1942,-348,-1031,-573,-314,-14,118,-274
10879,1831,0,2023-03-01T18:56:00.722006,1950259,1230,1942,-348,-1031,-573,-314,-14,118,-274
10880,1832,0,2023-03-01T18:56:00.727524,1950264,1230,1942,-348,-1031,-573,-314,-14,118,-274
10881,1833,0,2023-03-01T18:56:00.733136,1950269,1230,1942,-348,-1031,-573,-314,-14,118,-274
10882,1834,0,2023-03-01T18:56:00.738241,1950274,1230,1943,-352,-1039,-577,-315,-14,118,-274
10883,1835,0,2023-03-01T18:56:00.744080,1950280,1230,1943,-352,-1039,-577,-315,-14,118,-274
10884,1836,0,2023-03-01T18:56:00.749558,1950286,1230,1943,-352,-1039,-577,-315,-14,118,-274
10885,1837,0,2023-03-01T18:56:00.754800,1950291,1230,1943,-352,-1039,-577,-315,-14,118,-274
10886,1838,0,2023-03-01T18:56:00.759976,1950297,1230,1941,-355,-1040,-570,-317,-14,118,-274
10887,1839,0,2023-03-01T18:56:00.766164,1950302,1230,1941,-355,-1040,-570,-317,-14,118,-274
10888,1840,0,2023-03-01T18:56:00.772071,1950308,1230,1941,-355,-1040,-570,-317,-14,118,-274
10889,1841,0,2023-03-01T18:56:00.777253,1950314,1230,1944,-355,-1040,-565,-329,-14,118,-274
10890,1842,0,2023-03-01T18:56:00.783220,1950319,1230,1944,-355,-1040,-565,-329,-14,118,-274
10891,1843,0,2023-03-01T18:56:00.788650,1950325,1230,1944,-355,-1040,-565,-329,-14,118,-274
10892,1844,0,2023-03-01T18:56:00.798422,1950334,1229,1942,-355,-1044,-570,-325,-14,118,-274
10893,1845,0,2023-03-01T18:56:00.804192,1950341,1229,1942,-355,-1044,-570,-325,-14,118,-274
10894,1846,0,2023-03-01T18:56:00.809811,1950346,1229,1942,-355,-1044,-570,-325,-14,118,-274
10895,1847,0,2023-03-01T18:56:00.814804,1950351,1229,1942,-355,-1044,-570,-325,-14,118,-274
10896,1848,0,2023-03-01T18:56:00.819853,1950356,1228,1944,-353,-1046,-575,-330,-14,118,-274
10897,1849,0,2023-03-01T18:56:00.825995,1950362,1228,1944,-353,-1046,-575,-330,-14,118,-274
10898,1850,0,2023-03-01T18:56:00.830844,1950367,1228,1944,-353,-1046,-575,-330,-14,118,-274
10899,1851,0,2023-03-01T18:56:00.835644,1950371,1228,1944,-353,-1046,-575,-330,-14,118,-274
10900,1852,0,2023-03-01T18:56:00.840629,1950376,1230,1943,-354,-1041,-569,-325,-14,118,-274
10901,1853,0,2023-03-01T18:56:00.847378,1950383,1230,1943,-354,-1041,-569,-325,-14,118,-274
10902,1854,0,2023-03-01T18:56:00.853034,1950389,1230,1943,-354,-1041,-569,-325,-14,118,-274
10903,1855,0,2023-03-01T18:56:00.857774,1950394,1231,1944,-352,-1036,-577,-320,-19,107,-285
10904,1856,0,2023-03-01T18:56:00.863582,1950400,1231,1944,-352,-1036,-577,-320,-19,107,-285
10905,1857,0,2023-03-01T18:56:00.868960,1950405,1231,1944,-352,-1036,-577,-320,-19,107,-285
10906,1858,0,2023-03-01T18:56:00.874264,1950410,1231,1944,-352,-1036,-577,-320,-19,107,-285
10907,1859,0,2023-03-01T18:56:00.879529,1950415,1230,1945,-359,-1032,-575,-324,-19,107,-285
10908,1860,0,2023-03-01T18:56:00.885065,1950422,1230,1945,-359,-1032,-575,-324,-19,107,-285
10909,1861,0,2023-03-01T18:56:00.890588,1950427,1230,1945,-359,-1032,-575,-324,-19,107,-285
10910,1862,0,2023-03-01T18:56:00.896172,1950433,1232,1942,-355,-1041,-572,-321,-19,107,-285
10911,1863,0,2023-03-01T18:56:00.902208,1950438,1232,1942,-355,-1041,-572,-321,-19,107,-285
10912,1864,0,2023-03-01T18:56:00.908260,1950444,1232,1942,-355,-1041,-572,-321,-19,107,-285
10913,1865,0,2023-03-01T18:56:00.913322,1950449,1232,1942,-355,-1041,-572,-321,-19,107,-285
10914,1866,0,2023-03-01T18:56:00.918761,1950455,1230,1943,-353,-1050,-573,-324,-19,107,-285
10915,1867,0,2023-03-01T18:56:00.924543,1950460,1230,1943,-353,-1050,-573,-324,-19,107,-285
10916,1868,0,2023-03-01T18:56:00.930467,1950467,1230,1943,-353,-1050,-573,-324,-19,107,-285
10917,1869,0,2023-03-01T18:56:00.936946,1950473,1230,1944,-353,-1044,-575,-324,-19,107,-285
10918,1870,0,2023-03-01T18:56:00.942983,1950479,1230,1944,-353,-1044,-575,-324,-19,107,-285
10919,1871,0,2023-03-01T18:56:00.948601,1950485,1230,1944,-353,-1044,-575,-324,-19,107,-285
10920,1872,0,2023-03-01T18:56:00.954145,1950490,1230,1944,-353,-1044,-575,-324,-19,107,-285
10921,1873,0,2023-03-01T18:56:00.959273,1950495,1230,1942,-353,-1035,-569,-320,-19,107,-285
10922,1874,0,2023-03-01T18:56:00.964915,1950501,1230,1942,-353,-1035,-569,-320,-19,107,-285
10923,1875,0,2023-03-01T18:56:00.970189,1950507,1230,1942,-353,-1035,-569,-320,-19,107,-285
10924,1876,0,2023-03-01T18:56:00.975387,1950512,1230,1942,-353,-1035,-569,-320,-19,107,-285
10925,1877,0,2023-03-01T18:56:00.980151,1950517,1227,1944,-352,-1032,-570,-322,-38,110,-278
10926,1878,0,2023-03-01T18:56:00.986276,1950523,1227,1944,-352,-1032,-570,-322,-38,110,-278
10927,1879,0,2023-03-01T18:56:00.991577,1950527,1227,1944,-352,-1032,-570,-322,-38,110,-278
10928,1880,0,2023-03-01T18:56:00.996453,1950533,1229,1943,-354,-1040,-573,-322,-38,110,-278
10929,1881,0,2023-03-01T18:56:01.001788,1950538,1229,1943,-354,-1040,-573,-322,-38,110,-278
10930,1882,0,2023-03-01T18:56:01.007522,1950543,1229,1943,-354,-1040,-573,-322,-38,110,-278
10931,1883,0,2023-03-01T18:56:01.013163,1950550,1229,1943,-354,-1040,-573,-322,-38,110,-278
10932,1884,0,2023-03-01T18:56:01.018745,1950555,1231,1941,-355,-1043,-574,-324,-38,110,-278
10933,1885,0,2023-03-01T18:56:01.024614,1950561,1231,1941,-355,-1043,-574,-324,-38,110,-278
10934,1886,0,2023-03-01T18:56:01.030594,1950567,1231,1941,-355,-1043,-574,-324,-38,110,-278
10935,1887,0,2023-03-01T18:56:01.035815,1950572,1231,1941,-355,-1043,-574,-324,-38,110,-278
10936,1888,0,2023-03-01T18:56:01.041017,1950577,1232,1942,-353,-1046,-575,-321,-38,110,-278
10937,1889,0,2023-03-01T18:56:01.046849,1950583,1232,1942,-353,-1046,-575,-321,-38,110,-278
10938,1890,0,2023-03-01T18:56:01.052858,1950588,1232,1942,-353,-1046,-575,-321,-38,110,-278
10939,1891,0,2023-03-01T18:56:01.057814,1950595,1229,1942,-350,-1049,-572,-325,-38,110,-278
10940,1892,0,2023-03-01T18:56:01.063110,1950600,1229,1942,-350,-1049,-572,-325,-38,110,-278
10941,1893,0,2023-03-01T18:56:01.068409,1950605,1229,1942,-350,-1049,-572,-325,-38,110,-278
10942,1894,0,2023-03-01T18:56:01.072779,1950609,1229,1942,-350,-1049,-572,-325,-38,110,-278
10943,1895,0,2023-03-01T18:56:01.077962,1950614,1233,1942,-353,-1037,-569,-324,-38,110,-278
10944,1896,0,2023-03-01T18:56:01.084540,1950620,1233,1942,-353,-1037,-569,-324,-38,110,-278
10945,1897,0,2023-03-01T18:56:01.090313,1950626,1233,1942,-353,-1037,-569,-324,-38,110,-278
10946,1898,0,2023-03-01T18:56:01.095280,1950631,1233,1942,-353,-1037,-569,-324,-38,110,-278
10947,1899,0,2023-03-01T18:56:01.099962,1950637,1229,1943,-357,-1038,-569,-326,-20,114,-278
10948,1900,0,2023-03-01T18:56:01.106359,1950643,1229,1943,-357,-1038,-569,-326,-20,114,-278
10949,1901,0,2023-03-01T18:56:01.111589,1950648,1229,1943,-357,-1038,-569,-326,-20,114,-278
10950,1902,0,2023-03-01T18:56:01.116605,1950653,1230,1944,-351,-1035,-571,-325,-20,114,-278
10951,1903,0,2023-03-01T18:56:01.122105,1950658,1230,1944,-351,-1035,-571,-325,-20,114,-278
10952,1904,0,2023-03-01T18:56:01.127168,1950663,1230,1944,-351,-1035,-571,-325,-20,114,-278
10953,1905,0,2023-03-01T18:56:01.132027,1950668,1230,1944,-351,-1035,-571,-325,-20,114,-278
10954,1906,0,2023-03-01T18:56:01.139238,1950675,1231,1944,-352,-1033,-578,-323,-20,114,-278
10955,1907,0,2023-03-01T18:56:01.144767,1950681,1231,1944,-352,-1033,-578,-323,-20,114,-278
10956,1908,0,2023-03-01T18:56:01.150227,1950687,1231,1944,-352,-1033,-578,-323,-20,114,-278
10957,1909,0,2023-03-01T18:56:01.155352,1950692,1231,1944,-352,-1033,-578,-323,-20,114,-278
10958,1910,0,2023-03-01T18:56:01.160392,1950697,1233,1942,-358,-1034,-575,-325,-20,114,-278
10959,1911,0,2023-03-01T18:56:01.166305,1950703,1233,1942,-358,-1034,-575,-325,-20,114,-278
10960,1912,0,2023-03-01T18:56:01.171540,1950708,1233,1942,-358,-1034,-575,-325,-20,114,-278
10961,1913,0,2023-03-01T18:56:01.176384,1950712,1233,1942,-360,-1034,-573,-326,-20,114,-278
10962,1914,0,2023-03-01T18:56:01.181602,1950718,1233,1942,-360,-1034,-573,-326,-20,114,-278
10963,1915,0,2023-03-01T18:56:01.187039,1950724,1233,1942,-360,-1034,-573,-326,-20,114,-278
10964,1916,0,2023-03-01T18:56:01.193057,1950730,1233,1942,-360,-1034,-573,-326,-20,114,-278
10965,1917,0,2023-03-01T18:56:01.198229,1950734,1228,1945,-356,-1039,-577,-332,-20,114,-278
10966,1918,0,2023-03-01T18:56:01.202478,1950739,1228,1945,-356,-1039,-577,-332,-20,114,-278
10967,1919,0,2023-03-01T18:56:01.208109,1950744,1228,1945,-356,-1039,-577,-332,-20,114,-278
10968,1920,0,2023-03-01T18:56:01.213445,1950749,1228,1945,-356,-1039,-577,-332,-20,114,-278
10969,1921,0,2023-03-01T18:56:01.218625,1950754,1229,1943,-356,-1034,-574,-333,-20,114,-278
10970,1922,0,2023-03-01T18:56:01.224319,1950760,1229,1943,-356,-1034,-574,-333,-20,114,-278
10971,1923,0,2023-03-01T18:56:01.229599,1950766,1229,1943,-356,-1034,-574,-333,-20,114,-278
10972,1924,0,2023-03-01T18:56:01.234542,1950771,1229,1943,-356,-1034,-574,-333,-20,114,-278
10973,1925,0,2023-03-01T18:56:01.239149,1950776,1229,1942,-348,-1033,-565,-328,-29,113,-283
10974,1926,0,2023-03-01T18:56:01.244288,1950781,1229,1942,-348,-1033,-565,-328,-29,113,-283
10975,1927,0,2023-03-01T18:56:01.250422,1950786,1229,1942,-348,-1033,-565,-328,-29,113,-283
10976,1928,0,2023-03-01T18:56:01.256191,1950792,1229,1942,-348,-1033,-565,-328,-29,113,-283
10977,1929,0,2023-03-01T18:56:01.260796,1950797,1228,1944,-350,-1031,-567,-320,-29,113,-283
10978,1930,0,2023-03-01T18:56:01.266941,1950803,1228,1944,-350,-1031,-567,-320,-29,113,-283
10979,1931,0,2023-03-01T18:56:01.272305,1950809,1228,1944,-350,-1031,-567,-320,-29,113,-283
10980,1932,0,2023-03-01T18:56:01.277101,1950814,1231,1943,-357,-1035,-575,-317,-29,113,-283
10981,1933,0,2023-03-01T18:56:01.283187,1950820,1231,1943,-357,-1035,-575,-317,-29,113,-283
10982,1934,0,2023-03-01T18:56:01.288638,1950825,1231,1943,-357,-1035,-575,-317,-29,113,-283
10983,1935,0,2023-03-01T18:56:01.293603,1950830,1231,1943,-357,-1035,-575,-317,-29,113,-283
10984,1936,0,2023-03-01T18:56:01.298605,1950834,1230,1942,-354,-1033,-574,-318,-29,113,-283
10985,1937,0,2023-03-01T18:56:01.304536,1950840,1230,1942,-354,-1033,-574,-318,-29,113,-283
10986,1938,0,2023-03-01T18:56:01.310187,1950846,1230,1942,-354,-1033,-574,-318,-29,113,-283
10987,1939,0,2023-03-01T18:56:01.314938,1950852,1230,1942,-354,-1033,-574,-318,-29,113,-283
10988,1940,0,2023-03-01T18:56:01.320008,1950856,1232,1942,-356,-1031,-571,-323,-29,113,-283
10989,1941,0,2023-03-01T18:56:01.326558,1950863,1232,1942,-356,-1031,-571,-323,-29,113,-283
10990,1942,0,2023-03-01T18:56:01.332459,1950869,1232,1942,-356,-1031,-571,-323,-29,113,-283
10991,1943,0,2023-03-01T18:56:01.337015,1950873,1234,1942,-356,-1032,-569,-333,-29,113,-283
10992,1944,0,2023-03-01T18:56:01.342612,1950878,1234,1942,-356,-1032,-569,-333,-29,113,-283
10993,1945,0,2023-03-01T18:56:01.348487,1950884,1234,1942,-356,-1032,-569,-333,-29,113,-283
10994,1946,0,2023-03-01T18:56:01.353483,1950889,1234,1942,-356,-1032,-569,-333,-29,113,-283
10995,1947,0,2023-03-01T18:56:01.359012,1950895,1230,1941,-353,-1028,-569,-329,-21,113,-269
10996,1948,0,2023-03-01T18:56:01.364908,1950901,1230,1941,-353,-1028,-569,-329,-21,113,-269
10997,1949,0,2023-03-01T18:56:01.370464,1950907,1230,1941,-353,-1028,-569,-329,-21,113,-269
10998,1950,0,2023-03-01T18:56:01.375659,1950912,1230,1941,-353,-1028,-569,-329,-21,113,-269
10999,1951,0,2023-03-01T18:56:01.380588,1950917,1230,1941,-358,-1036,-569,-324,-21,113,-269
11000,1952,0,2023-03-01T18:56:01.387627,1950923,1230,1941,-358,-1036,-569,-324,-21,113,-269
11001,1953,0,2023-03-01T18:56:01.393353,1950929,1230,1941,-358,-1036,-569,-324,-21,113,-269
11002,1954,0,2023-03-01T18:56:01.398465,1950935,1229,1945,-351,-1048,-567,-320,-21,113,-269
11003,1955,0,2023-03-01T18:56:01.404069,1950940,1229,1945,-351,-1048,-567,-320,-21,113,-269
11004,1956,0,2023-03-01T18:56:01.409910,1950946,1229,1945,-351,-1048,-567,-320,-21,113,-269
11005,1957,0,2023-03-01T18:56:01.414928,1950951,1229,1945,-351,-1048,-567,-320,-21,113,-269
11006,1958,0,2023-03-01T18:56:01.419977,1950956,1230,1941,-354,-1036,-573,-316,-21,113,-269
11007,1959,0,2023-03-01T18:56:01.425991,1950962,1230,1941,-354,-1036,-573,-316,-21,113,-269
11008,1960,0,2023-03-01T18:56:01.431482,1950967,1230,1941,-354,-1036,-573,-316,-21,113,-269
11009,1961,0,2023-03-01T18:56:01.436496,1950972,1230,1941,-354,-1036,-573,-316,-21,113,-269
11010,1962,0,2023-03-01T18:56:01.442544,1950978,1228,1940,-354,-1033,-570,-326,-21,113,-269
11011,1963,0,2023-03-01T18:56:01.448776,1950985,1228,1940,-354,-1033,-570,-326,-21,113,-269
11012,1964,0,2023-03-01T18:56:01.453936,1950990,1228,1940,-354,-1033,-570,-326,-21,113,-269
11013,1965,0,2023-03-01T18:56:01.459275,1950995,1229,1940,-358,-1046,-586,-324,-21,113,-269
11014,1966,0,2023-03-01T18:56:01.465392,1951001,1229,1940,-358,-1046,-586,-324,-21,113,-269
11015,1967,0,2023-03-01T18:56:01.471044,1951007,1229,1940,-358,-1046,-586,-324,-21,113,-269
11016,1968,0,2023-03-01T18:56:01.476304,1951012,1229,1940,-358,-1046,-586,-324,-21,113,-269
11017,1969,0,2023-03-01T18:56:01.481103,1951017,1229,1942,-353,-1055,-581,-321,-21,113,-269
11018,1970,0,2023-03-01T18:56:01.487046,1951024,1229,1942,-353,-1055,-581,-321,-21,113,-269
11019,1971,0,2023-03-01T18:56:01.492368,1951029,1229,1942,-353,-1055,-581,-321,-21,113,-269
11020,1972,0,2023-03-01T18:56:01.497233,1951034,1230,1943,-354,-1044,-572,-325,-34,120,-274
11021,1973,0,2023-03-01T18:56:01.503226,1951039,1230,1943,-354,-1044,-572,-325,-34,120,-274
11022,1974,0,2023-03-01T18:56:01.508861,1951045,1230,1943,-354,-1044,-572,-325,-34,120,-274
11023,1975,0,2023-03-01T18:56:01.514793,1951051,1230,1943,-354,-1044,-572,-325,-34,120,-274
11024,1976,0,2023-03-01T18:56:01.519560,1951056,1232,1945,-353,-1036,-576,-329,-34,120,-274
11025,1977,0,2023-03-01T18:56:01.526091,1951062,1232,1945,-353,-1036,-576,-329,-34,120,-274
11026,1978,0,2023-03-01T18:56:01.531985,1951069,1232,1945,-353,-1036,-576,-329,-34,120,-274
11027,1979,0,2023-03-01T18:56:01.537550,1951074,1230,1941,-358,-1031,-574,-319,-34,120,-274
11028,1980,0,2023-03-01T18:56:01.542855,1951079,1230,1941,-358,-1031,-574,-319,-34,120,-274
11029,1981,0,2023-03-01T18:56:01.548752,1951085,1230,1941,-358,-1031,-574,-319,-34,120,-274
11030,1982,0,2023-03-01T18:56:01.554692,1951091,1230,1941,-358,-1031,-574,-319,-34,120,-274
11031,1983,0,2023-03-01T18:56:01.559432,1951095,1233,1942,-351,-1032,-570,-322,-34,120,-274
11032,1984,0,2023-03-01T18:56:01.564636,1951101,1233,1942,-351,-1032,-570,-322,-34,120,-274
11033,1985,0,2023-03-01T18:56:01.569773,1951107,1233,1942,-351,-1032,-570,-322,-34,120,-274
11034,1986,0,2023-03-01T18:56:01.575008,1951111,1233,1942,-351,-1032,-570,-322,-34,120,-274
11035,1987,0,2023-03-01T18:56:01.580303,1951116,1231,1942,-356,-1034,-575,-323,-34,120,-274
11036,1988,0,2023-03-01T18:56:01.587115,1951123,1231,1942,-356,-1034,-575,-323,-34,120,-274
11037,1989,0,2023-03-01T18:56:01.591894,1951128,1231,1942,-356,-1034,-575,-323,-34,120,-274
11038,1990,0,2023-03-01T18:56:01.596768,1951133,1231,1942,-356,-1034,-575,-323,-34,120,-274
11039,1991,0,2023-03-01T18:56:01.602036,1951138,1230,1941,-355,-1031,-570,-326,-34,120,-274
11040,1992,0,2023-03-01T18:56:01.608390,1951144,1230,1941,-355,-1031,-570,-326,-34,120,-274
11041,1993,0,2023-03-01T18:56:01.613444,1951150,1230,1941,-355,-1031,-570,-326,-34,120,-274
11042,1994,0,2023-03-01T18:56:01.618010,1951155,1232,1943,-356,-1032,-570,-325,-24,112,-274
11043,1995,0,2023-03-01T18:56:01.623652,1951160,1232,1943,-356,-1032,-570,-325,-24,112,-274
11044,1996,0,2023-03-01T18:56:01.629451,1951166,1232,1943,-356,-1032,-570,-325,-24,112,-274
11045,1997,0,2023-03-01T18:56:01.634663,1951170,1232,1943,-356,-1032,-570,-325,-24,112,-274
11046,1998,0,2023-03-01T18:56:01.640025,1951176,1228,1943,-346,-1039,-570,-329,-24,112,-274
11047,1999,0,2023-03-01T18:56:01.646466,1951182,1228,1943,-346,-1039,-570,-329,-24,112,-274
11048,2000,0,2023-03-01T18:56:01.651453,1951187,1228,1943,-346,-1039,-570,-329,-24,112,-274
11049,2001,0,2023-03-01T18:56:01.656889,1951193,1228,1943,-346,-1039,-570,-329,-24,112,-274
11050,2002,0,2023-03-01T18:56:01.662189,1951199,1231,1942,-355,-1047,-576,-321,-24,112,-274
11051,2003,0,2023-03-01T18:56:01.668827,1951205,1231,1942,-355,-1047,-576,-321,-24,112,-274
11052,2004,0,2023-03-01T18:56:01.674594,1951211,1231,1942,-355,-1047,-576,-321,-24,112,-274
11053,2005,0,2023-03-01T18:56:01.679842,1951216,1230,1942,-358,-1038,-576,-319,-24,112,-274
11054,2006,0,2023-03-01T18:56:01.685828,1951222,1230,1942,-358,-1038,-576,-319,-24,112,-274
11055,2007,0,2023-03-01T18:56:01.691284,1951227,1230,1942,-358,-1038,-576,-319,-24,112,-274
11056,2008,0,2023-03-01T18:56:01.697722,1951234,1230,1942,-352,-1034,-568,-319,-24,112,-274
11057,2009,0,2023-03-01T18:56:01.703195,1951240,1230,1942,-352,-1034,-568,-319,-24,112,-274
11058,2010,0,2023-03-01T18:56:01.708525,1951245,1230,1942,-352,-1034,-568,-319,-24,112,-274
11059,2011,0,2023-03-01T18:56:01.713527,1951250,1230,1942,-352,-1034,-568,-319,-24,112,-274
11060,2012,0,2023-03-01T18:56:01.718564,1951255,1232,1942,-355,-1034,-578,-317,-24,112,-274
11061,2013,0,2023-03-01T18:56:01.723874,1951260,1232,1942,-355,-1034,-578,-317,-24,112,-274
11062,2014,0,2023-03-01T18:56:01.729515,1951266,1232,1942,-355,-1034,-578,-317,-24,112,-274
11063,2015,0,2023-03-01T18:56:01.734451,1951271,1232,1942,-355,-1034,-578,-317,-24,112,-274
11064,2016,0,2023-03-01T18:56:01.739425,1951276,1231,1940,-354,-1040,-577,-323,-24,112,-274
11065,2017,0,2023-03-01T18:56:01.744647,1951281,1231,1940,-354,-1040,-577,-323,-24,112,-274
11066,2018,0,2023-03-01T18:56:01.750254,1951287,1231,1940,-354,-1040,-577,-323,-24,112,-274
11067,2019,0,2023-03-01T18:56:01.755810,1951292,1231,1940,-354,-1040,-577,-323,-24,112,-274
11068,2020,0,2023-03-01T18:56:01.760543,1951297,1230,1941,-348,-1042,-575,-328,-23,111,-275
11069,2021,0,2023-03-01T18:56:01.766957,1951302,1230,1941,-348,-1042,-575,-328,-23,111,-275
11070,2022,0,2023-03-01T18:56:01.771971,1951308,1230,1941,-348,-1042,-575,-328,-23,111,-275
11071,2023,0,2023-03-01T18:56:01.777736,1951313,1229,1944,-350,-1032,-573,-320,-23,111,-275
11072,2024,0,2023-03-01T18:56:01.783660,1951320,1229,1944,-350,-1032,-573,-320,-23,111,-275
11073,2025,0,2023-03-01T18:56:01.789546,1951326,1229,1944,-350,-1032,-573,-320,-23,111,-275
11074,2026,0,2023-03-01T18:56:01.794681,1951331,1229,1944,-350,-1032,-573,-320,-23,111,-275
11075,2027,0,2023-03-01T18:56:01.799841,1951336,1229,1942,-354,-1030,-577,-324,-23,111,-275
11076,2028,0,2023-03-01T18:56:01.805482,1951341,1229,1942,-354,-1030,-577,-324,-23,111,-275
11077,2029,0,2023-03-01T18:56:01.810329,1951346,1229,1942,-354,-1030,-577,-324,-23,111,-275
11078,2030,0,2023-03-01T18:56:01.815787,1951352,1229,1942,-354,-1030,-577,-324,-23,111,-275
11079,2031,0,2023-03-01T18:56:01.820461,1951356,1228,1943,-356,-1032,-575,-327,-23,111,-275
11080,2032,0,2023-03-01T18:56:01.826574,1951363,1228,1943,-356,-1032,-575,-327,-23,111,-275
11081,2033,0,2023-03-01T18:56:01.831498,1951368,1228,1943,-356,-1032,-575,-327,-23,111,-275
11082,2034,0,2023-03-01T18:56:01.836313,1951373,1228,1943,-356,-1032,-575,-327,-23,111,-275
11083,2035,0,2023-03-01T18:56:01.841473,1951378,1230,1943,-355,-1028,-567,-320,-23,111,-275
11084,2036,0,2023-03-01T18:56:01.847557,1951384,1230,1943,-355,-1028,-567,-320,-23,111,-275
11085,2037,0,2023-03-01T18:56:01.852735,1951389,1230,1943,-355,-1028,-567,-320,-23,111,-275
11086,2038,0,2023-03-01T18:56:01.857977,1951394,1228,1944,-355,-1032,-574,-320,-23,111,-275
11087,2039,0,2023-03-01T18:56:01.863799,1951400,1228,1944,-355,-1032,-574,-320,-23,111,-275
11088,2040,0,2023-03-01T18:56:01.869697,1951406,1228,1944,-355,-1032,-574,-320,-23,111,-275
11089,2041,0,2023-03-01T18:56:01.875427,1951412,1228,1944,-355,-1032,-574,-320,-23,111,-275
11090,2042,0,2023-03-01T18:56:01.880240,1951417,1229,1943,-353,-1047,-568,-320,-24,112,-278
11091,2043,0,2023-03-01T18:56:01.886250,1951423,1229,1943,-353,-1047,-568,-320,-24,112,-278
11092,2044,0,2023-03-01T18:56:01.892151,1951428,1229,1943,-353,-1047,-568,-320,-24,112,-278
11093,2045,0,2023-03-01T18:56:01.898378,1951434,1228,1941,-348,-1051,-575,-331,-24,112,-278
11094,2046,0,2023-03-01T18:56:01.904474,1951440,1228,1941,-348,-1051,-575,-331,-24,112,-278
11095,2047,0,2023-03-01T18:56:01.910430,1951447,1228,1941,-348,-1051,-575,-331,-24,112,-278
11096,2048,0,2023-03-01T18:56:01.916239,1951453,1228,1941,-348,-1051,-575,-331,-24,112,-278
11097,2049,0,2023-03-01T18:56:01.920950,1951458,1231,1946,-347,-1038,-572,-319,-24,112,-278
11098,2050,0,2023-03-01T18:56:01.927035,1951463,1231,1946,-347,-1038,-572,-319,-24,112,-278
11099,2051,0,2023-03-01T18:56:01.932859,1951469,1231,1946,-347,-1038,-572,-319,-24,112,-278
11100,2052,0,2023-03-01T18:56:01.937860,1951474,1228,1945,-352,-1036,-571,-319,-24,112,-278
11101,2053,0,2023-03-01T18:56:01.943273,1951479,1228,1945,-352,-1036,-571,-319,-24,112,-278
11102,2054,0,2023-03-01T18:56:01.949264,1951485,1228,1945,-352,-1036,-571,-319,-24,112,-278
11103,2055,0,2023-03-01T18:56:01.954660,1951491,1228,1945,-352,-1036,-571,-319,-24,112,-278
11104,2056,0,2023-03-01T18:56:01.959564,1951496,1228,1943,-353,-1042,-573,-321,-24,112,-278
11105,2057,0,2023-03-01T18:56:01.965212,1951502,1228,1943,-353,-1042,-573,-321,-24,112,-278
11106,2058,0,2023-03-01T18:56:01.971252,1951507,1228,1943,-353,-1042,-573,-321,-24,112,-278
11107,2059,0,2023-03-01T18:56:01.977242,1951513,1228,1943,-353,-1042,-573,-321,-24,112,-278
11108,2060,0,2023-03-01T18:56:01.982255,1951518,1228,1940,-349,-1043,-576,-318,-24,112,-278
11109,2061,0,2023-03-01T18:56:01.988723,1951525,1228,1940,-349,-1043,-576,-318,-24,112,-278
11110,2062,0,2023-03-01T18:56:01.994482,1951531,1228,1940,-349,-1043,-576,-318,-24,112,-278
11111,2063,0,2023-03-01T18:56:01.999290,1951536,1227,1942,-352,-1037,-568,-322,-14,112,-272
11112,2064,0,2023-03-01T18:56:02.005040,1951541,1227,1942,-352,-1037,-568,-322,-14,112,-272
11113,2065,0,2023-03-01T18:56:02.011312,1951547,1227,1942,-352,-1037,-568,-322,-14,112,-272
11114,2066,0,2023-03-01T18:56:02.016794,1951553,1227,1942,-352,-1037,-568,-322,-14,112,-272
11115,2067,0,2023-03-01T18:56:02.021915,1951558,1230,1939,-356,-1036,-572,-325,-14,112,-272
11116,2068,0,2023-03-01T18:56:02.028124,1951564,1230,1939,-356,-1036,-572,-325,-14,112,-272
11117,2069,0,2023-03-01T18:56:02.032846,1951569,1230,1939,-356,-1036,-572,-325,-14,112,-272
11118,2070,0,2023-03-01T18:56:02.038048,1951575,1229,1942,-354,-1040,-570,-323,-14,112,-272
11119,2071,0,2023-03-01T18:56:02.043625,1951580,1229,1942,-354,-1040,-570,-323,-14,112,-272
11120,2072,0,2023-03-01T18:56:02.049549,1951586,1229,1942,-354,-1040,-570,-323,-14,112,-272
11121,2073,0,2023-03-01T18:56:02.054499,1951591,1229,1942,-354,-1040,-570,-323,-14,112,-272
11122,2074,0,2023-03-01T18:56:02.059545,1951596,1230,1944,-355,-1031,-572,-322,-14,112,-272
11123,2075,0,2023-03-01T18:56:02.065398,1951601,1230,1944,-355,-1031,-572,-322,-14,112,-272
11124,2076,0,2023-03-01T18:56:02.071349,1951607,1230,1944,-355,-1031,-572,-322,-14,112,-272
11125,2077,0,2023-03-01T18:56:02.075910,1951612,1230,1944,-355,-1031,-572,-322,-14,112,-272
11126,2078,0,2023-03-01T18:56:02.081293,1951618,1228,1941,-354,-1040,-568,-321,-14,112,-272
11127,2079,0,2023-03-01T18:56:02.085899,1951622,1228,1941,-354,-1040,-568,-321,-14,112,-272
11128,2080,0,2023-03-01T18:56:02.091100,1951627,1228,1941,-354,-1040,-568,-321,-14,112,-272
11129,2081,0,2023-03-01T18:56:02.096696,1951633,1228,1941,-354,-1040,-568,-321,-14,112,-272
11130,2082,0,2023-03-01T18:56:02.102293,1951638,1229,1944,-360,-1039,-573,-326,-14,112,-272
11131,2083,0,2023-03-01T18:56:02.108646,1951645,1229,1944,-360,-1039,-573,-326,-14,112,-272
11132,2084,0,2023-03-01T18:56:02.113368,1951649,1229,1944,-360,-1039,-573,-326,-14,112,-272
11133,2085,0,2023-03-01T18:56:02.118696,1951654,1229,1942,-349,-1034,-568,-318,-14,112,-272
11134,2086,0,2023-03-01T18:56:02.124729,1951661,1229,1942,-349,-1034,-568,-318,-14,112,-272
11135,2087,0,2023-03-01T18:56:02.129969,1951667,1229,1942,-349,-1034,-568,-318,-14,112,-272
11136,2088,0,2023-03-01T18:56:02.135117,1951671,1229,1942,-349,-1034,-568,-318,-14,112,-272
11137,2089,0,2023-03-01T18:56:02.140325,1951677,1228,1940,-354,-1040,-571,-319,-26,116,-270
11138,2090,0,2023-03-01T18:56:02.146891,1951683,1228,1940,-354,-1040,-571,-319,-26,116,-270
11139,2091,0,2023-03-01T18:56:02.151598,1951688,1228,1940,-354,-1040,-571,-319,-26,116,-270
11140,2092,0,2023-03-01T18:56:02.156480,1951692,1228,1940,-354,-1040,-571,-319,-26,116,-270
11141,2093,0,2023-03-01T18:56:02.161032,1951697,1230,1941,-351,-1041,-579,-312,-26,116,-270
11142,2094,0,2023-03-01T18:56:02.165826,1951703,1230,1941,-351,-1041,-579,-312,-26,116,-270
11143,2095,0,2023-03-01T18:56:02.170742,1951707,1230,1941,-351,-1041,-579,-312,-26,116,-270
11144,2096,0,2023-03-01T18:56:02.176656,1951713,1230,1941,-351,-1041,-579,-312,-26,116,-270
11145,2097,0,2023-03-01T18:56:02.181458,1951718,1228,1942,-348,-1040,-581,-320,-26,116,-270
11146,2098,0,2023-03-01T18:56:02.187622,1951724,1228,1942,-348,-1040,-581,-320,-26,116,-270
11147,2099,0,2023-03-01T18:56:02.192723,1951729,1228,1942,-348,-1040,-581,-320,-26,116,-270
11148,2100,0,2023-03-01T18:56:02.198072,1951734,1228,1942,-348,-1040,-581,-320,-26,116,-270
11149,2101,0,2023-03-01T18:56:02.202954,1951739,1229,1943,-354,-1040,-574,-330,-26,116,-270
11150,2102,0,2023-03-01T18:56:02.209513,1951746,1229,1943,-354,-1040,-574,-330,-26,116,-270
11151,2103,0,2023-03-01T18:56:02.214985,1951752,1229,1943,-354,-1040,-574,-330,-26,116,-270
11152,2104,0,2023-03-01T18:56:02.219835,1951756,1230,1944,-355,-1043,-575,-322,-26,116,-270
11153,2105,0,2023-03-01T18:56:02.225945,1951762,1230,1944,-355,-1043,-575,-322,-26,116,-270
11154,2106,0,2023-03-01T18:56:02.231080,1951767,1230,1944,-355,-1043,-575,-322,-26,116,-270
11155,2107,0,2023-03-01T18:56:02.236226,1951772,1230,1944,-355,-1043,-575,-322,-26,116,-270
11156,2108,0,2023-03-01T18:56:02.241415,1951778,1228,1943,-351,-1036,-573,-320,-26,116,-270
11157,2109,0,2023-03-01T18:56:02.247539,1951783,1228,1943,-351,-1036,-573,-320,-26,116,-270
11158,2110,0,2023-03-01T18:56:02.252056,1951789,1228,1943,-351,-1036,-573,-320,-26,116,-270
11159,2111,0,2023-03-01T18:56:02.257740,1951794,1228,1943,-351,-1036,-573,-320,-26,116,-270
11160,2112,0,2023-03-01T18:56:02.262798,1951799,1232,1943,-348,-1039,-571,-326,-25,113,-277
11161,2113,0,2023-03-01T18:56:02.268956,1951805,1232,1943,-348,-1039,-571,-326,-25,113,-277
11162,2114,0,2023-03-01T18:56:02.274345,1951811,1232,1943,-348,-1039,-571,-326,-25,113,-277
11163,2115,0,2023-03-01T18:56:02.278907,1951815,1227,1941,-352,-1041,-567,-323,-25,113,-277
11164,2116,0,2023-03-01T18:56:02.284939,1951821,1227,1941,-352,-1041,-567,-323,-25,113,-277
11165,2117,0,2023-03-01T18:56:02.290686,1951826,1227,1941,-352,-1041,-567,-323,-25,113,-277
11166,2118,0,2023-03-01T18:56:02.295369,1951832,1227,1941,-352,-1041,-567,-323,-25,113,-277
11167,2119,0,2023-03-01T18:56:02.300617,1951837,1231,1944,-350,-1041,-567,-320,-25,113,-277
11168,2120,0,2023-03-01T18:56:02.306003,1951842,1231,1944,-350,-1041,-567,-320,-25,113,-277
11169,2121,0,2023-03-01T18:56:02.311216,1951848,1231,1944,-350,-1041,-567,-320,-25,113,-277
11170,2122,0,2023-03-01T18:56:02.315935,1951852,1231,1944,-350,-1041,-567,-320,-25,113,-277
11171,2123,0,2023-03-01T18:56:02.321416,1951857,1229,1939,-349,-1042,-569,-330,-25,113,-277
11172,2124,0,2023-03-01T18:56:02.326201,1951862,1229,1939,-349,-1042,-569,-330,-25,113,-277
11173,2125,0,2023-03-01T18:56:02.331082,1951867,1229,1939,-349,-1042,-569,-330,-25,113,-277
11174,2126,0,2023-03-01T18:56:02.337025,1951873,1229,1939,-349,-1042,-569,-330,-25,113,-277
11175,2127,0,2023-03-01T18:56:02.344209,1951881,1231,1941,-351,-1025,-567,-327,-25,113,-277
11176,2128,0,2023-03-01T18:56:02.350451,1951887,1231,1941,-351,-1025,-567,-327,-25,113,-277
11177,2129,0,2023-03-01T18:56:02.355611,1951892,1231,1941,-351,-1025,-567,-327,-25,113,-277
11178,2130,0,2023-03-01T18:56:02.360834,1951897,1229,1941,-356,-1033,-569,-326,-25,113,-277
11179,2131,0,2023-03-01T18:56:02.367364,1951903,1229,1941,-356,-1033,-569,-326,-25,113,-277
11180,2132,0,2023-03-01T18:56:02.372368,1951908,1229,1941,-356,-1033,-569,-326,-25,113,-277
11181,2133,0,2023-03-01T18:56:02.377511,1951913,1229,1941,-356,-1033,-569,-326,-25,113,-277
11182,2134,0,2023-03-01T18:56:02.382496,1951919,1227,1942,-356,-1037,-576,-319,-25,113,-277
11183,2135,0,2023-03-01T18:56:02.388734,1951925,1227,1942,-356,-1037,-576,-319,-25,113,-277
11184,2136,0,2023-03-01T18:56:02.393878,1951930,1227,1942,-356,-1037,-576,-319,-25,113,-277
11185,2137,0,2023-03-01T18:56:02.399380,1951935,1229,1946,-355,-1038,-572,-316,-21,113,-273
11186,2138,0,2023-03-01T18:56:02.405218,1951941,1229,1946,-355,-1038,-572,-316,-21,113,-273
11187,2139,0,2023-03-01T18:56:02.410765,1951947,1229,1946,-355,-1038,-572,-316,-21,113,-273
11188,2140,0,2023-03-01T18:56:02.416022,1951952,1229,1946,-355,-1038,-572,-316,-21,113,-273
11189,2141,0,2023-03-01T18:56:02.421819,1951958,1234,1942,-346,-1039,-571,-317,-21,113,-273
11190,2142,0,2023-03-01T18:56:02.428849,1951965,1234,1942,-346,-1039,-571,-317,-21,113,-273
11191,2143,0,2023-03-01T18:56:02.434666,1951971,1234,1942,-346,-1039,-571,-317,-21,113,-273
11192,2144,0,2023-03-01T18:56:02.439950,1951976,1229,1942,-349,-1045,-571,-321,-21,113,-273
11193,2145,0,2023-03-01T18:56:02.445775,1951982,1229,1942,-349,-1045,-571,-321,-21,113,-273
11194,2146,0,2023-03-01T18:56:02.451874,1951987,1229,1942,-349,-1045,-571,-321,-21,113,-273
11195,2147,0,2023-03-01T18:56:02.458808,1951995,1229,1942,-352,-1035,-575,-327,-21,113,-273
11196,2148,0,2023-03-01T18:56:02.464405,1952001,1229,1942,-352,-1035,-575,-327,-21,113,-273
11197,2149,0,2023-03-01T18:56:02.470121,1952007,1229,1942,-352,-1035,-575,-327,-21,113,-273
11198,2150,0,2023-03-01T18:56:02.476068,1952013,1229,1942,-352,-1035,-575,-327,-21,113,-273
11199,2151,0,2023-03-01T18:56:02.481957,1952017,1228,1945,-349,-1039,-573,-327,-21,113,-273
11200,2152,0,2023-03-01T18:56:02.487862,1952024,1228,1945,-349,-1039,-573,-327,-21,113,-273
11201,2153,0,2023-03-01T18:56:02.493112,1952029,1228,1945,-349,-1039,-573,-327,-21,113,-273
11202,2154,0,2023-03-01T18:56:02.498290,1952034,1233,1943,-354,-1038,-572,-331,-21,113,-273
11203,2155,0,2023-03-01T18:56:02.504461,1952040,1233,1943,-354,-1038,-572,-331,-21,113,-273
11204,2156,0,2023-03-01T18:56:02.510283,1952047,1233,1943,-354,-1038,-572,-331,-21,113,-273
11205,2157,0,2023-03-01T18:56:02.516234,1952053,1233,1943,-354,-1038,-572,-331,-21,113,-273
11206,2158,0,2023-03-01T18:56:02.521675,1952058,1233,1943,-354,-1037,-572,-322,-23,117,-279
11207,2159,0,2023-03-01T18:56:02.528023,1952064,1233,1943,-354,-1037,-572,-322,-23,117,-279
11208,2160,0,2023-03-01T18:56:02.533801,1952070,1233,1943,-354,-1037,-572,-322,-23,117,-279
11209,2161,0,2023-03-01T18:56:02.538841,1952075,1233,1943,-354,-1037,-572,-322,-23,117,-279
11210,2162,0,2023-03-01T18:56:02.543709,1952080,1233,1943,-354,-1037,-572,-322,-23,117,-279
11211,2163,0,2023-03-01T18:56:02.549397,1952086,1233,1943,-354,-1037,-572,-322,-23,117,-279
11212,2164,0,2023-03-01T18:56:02.554967,1952092,1233,1943,-354,-1037,-572,-322,-23,117,-279
11213,2165,0,2023-03-01T18:56:02.560388,1952097,1228,1942,-349,-1035,-569,-321,-23,117,-279
11214,2166,0,2023-03-01T18:56:02.566774,1952103,1228,1942,-349,-1035,-569,-321,-23,117,-279
11215,2167,0,2023-03-01T18:56:02.571929,1952108,1228,1942,-349,-1035,-569,-321,-23,117,-279
11216,2168,0,2023-03-01T18:56:02.576889,1952113,1228,1942,-349,-1035,-569,-321,-23,117,-279
11217,2169,0,2023-03-01T18:56:02.582363,1952118,1228,1942,-361,-1036,-573,-323,-23,117,-279
11218,2170,0,2023-03-01T18:56:02.589500,1952125,1228,1942,-361,-1036,-573,-323,-23,117,-279
11219,2171,0,2023-03-01T18:56:02.594947,1952132,1228,1942,-361,-1036,-573,-323,-23,117,-279
11220,2172,0,2023-03-01T18:56:02.599786,1952136,1232,1941,-350,-1034,-576,-326,-23,117,-279
11221,2173,0,2023-03-01T18:56:02.605221,1952142,1232,1941,-350,-1034,-576,-326,-23,117,-279
11222,2174,0,2023-03-01T18:56:02.610889,1952147,1232,1941,-350,-1034,-576,-326,-23,117,-279
11223,2175,0,2023-03-01T18:56:02.616782,1952153,1232,1941,-350,-1034,-576,-326,-23,117,-279
11224,2176,0,2023-03-01T18:56:02.621827,1952158,1233,1944,-349,-1035,-562,-332,-23,117,-279
11225,2177,0,2023-03-01T18:56:02.628019,1952164,1233,1944,-349,-1035,-562,-332,-23,117,-279
11226,2178,0,2023-03-01T18:56:02.633934,1952169,1233,1944,-349,-1035,-562,-332,-23,117,-279
11227,2179,0,2023-03-01T18:56:02.638794,1952176,1231,1943,-353,-1038,-571,-322,-23,117,-279
11228,2180,0,2023-03-01T18:56:02.643620,1952180,1231,1943,-353,-1038,-571,-322,-23,117,-279
11229,2181,0,2023-03-01T18:56:02.649412,1952186,1231,1943,-353,-1038,-571,-322,-23,117,-279
11230,2182,0,2023-03-01T18:56:02.655140,1952191,1231,1943,-353,-1038,-571,-322,-23,117,-279
11231,2183,0,2023-03-01T18:56:02.659952,1952196,1231,1943,-347,-1042,-571,-317,-20,108,-276
11232,2184,0,2023-03-01T18:56:02.666083,1952202,1231,1943,-347,-1042,-571,-317,-20,108,-276
11233,2185,0,2023-03-01T18:56:02.672385,1952207,1231,1943,-347,-1042,-571,-317,-20,108,-276
11234,2186,0,2023-03-01T18:56:02.678771,1952215,1232,1941,-355,-1039,-578,-322,-20,108,-276
11235,2187,0,2023-03-01T18:56:02.684478,1952221,1232,1941,-355,-1039,-578,-322,-20,108,-276
11236,2188,0,2023-03-01T18:56:02.689829,1952226,1232,1941,-355,-1039,-578,-322,-20,108,-276
11237,2189,0,2023-03-01T18:56:02.694850,1952231,1232,1941,-355,-1039,-578,-322,-20,108,-276
11238,2190,0,2023-03-01T18:56:02.700278,1952236,1227,1942,-354,-1040,-574,-322,-20,108,-276
11239,2191,0,2023-03-01T18:56:02.706291,1952242,1227,1942,-354,-1040,-574,-322,-20,108,-276
11240,2192,0,2023-03-01T18:56:02.712083,1952248,1227,1942,-354,-1040,-574,-322,-20,108,-276
11241,2193,0,2023-03-01T18:56:02.717832,1952254,1227,1942,-354,-1040,-574,-322,-20,108,-276
11242,2194,0,2023-03-01T18:56:02.722753,1952259,1229,1943,-349,-1038,-568,-319,-20,108,-276
11243,2195,0,2023-03-01T18:56:02.729312,1952266,1229,1943,-349,-1038,-568,-319,-20,108,-276
11244,2196,0,2023-03-01T18:56:02.734609,1952271,1229,1943,-349,-1038,-568,-319,-20,108,-276
11245,2197,0,2023-03-01T18:56:02.739381,1952276,1230,1943,-352,-1029,-575,-317,-20,108,-276
11246,2198,0,2023-03-01T18:56:02.744636,1952281,1230,1943,-352,-1029,-575,-317,-20,108,-276
11247,2199,0,2023-03-01T18:56:02.749995,1952286,1230,1943,-352,-1029,-575,-317,-20,108,-276
11248,2200,0,2023-03-01T18:56:02.756003,1952292,1230,1943,-352,-1029,-575,-317,-20,108,-276
11249,2201,0,2023-03-01T18:56:02.761144,1952297,1228,1942,-353,-1037,-575,-316,-20,108,-276
11250,2202,0,2023-03-01T18:56:02.767000,1952304,1228,1942,-353,-1037,-575,-316,-20,108,-276
11251,2203,0,2023-03-01T18:56:02.771999,1952309,1228,1942,-353,-1037,-575,-316,-20,108,-276
11252,2204,0,2023-03-01T18:56:02.777020,1952314,1228,1942,-353,-1037,-575,-316,-20,108,-276
11253,2205,0,2023-03-01T18:56:02.782009,1952318,1228,1947,-347,-1035,-573,-323,-29,107,-275
11254,2206,0,2023-03-01T18:56:02.789259,1952325,1228,1947,-347,-1035,-573,-323,-29,107,-275
11255,2207,0,2023-03-01T18:56:02.794417,1952330,1228,1947,-347,-1035,-573,-323,-29,107,-275
11256,2208,0,2023-03-01T18:56:02.799414,1952335,1231,1947,-350,-1035,-566,-326,-29,107,-275
11257,2209,0,2023-03-01T18:56:02.804586,1952342,1231,1947,-350,-1035,-566,-326,-29,107,-275
11258,2210,0,2023-03-01T18:56:02.810085,1952347,1231,1947,-350,-1035,-566,-326,-29,107,-275
11259,2211,0,2023-03-01T18:56:02.815665,1952352,1231,1947,-350,-1035,-566,-326,-29,107,-275
11260,2212,0,2023-03-01T18:56:02.820564,1952357,1232,1944,-351,-1047,-574,-324,-29,107,-275
11261,2213,0,2023-03-01T18:56:02.826616,1952363,1232,1944,-351,-1047,-574,-324,-29,107,-275
11262,2214,0,2023-03-01T18:56:02.831541,1952368,1232,1944,-351,-1047,-574,-324,-29,107,-275
11263,2215,0,2023-03-01T18:56:02.836179,1952372,1232,1944,-351,-1047,-574,-324,-29,107,-275
11264,2216,0,2023-03-01T18:56:02.841418,1952377,1230,1946,-353,-1038,-572,-328,-29,107,-275
11265,2217,0,2023-03-01T18:56:02.848640,1952385,1230,1946,-353,-1038,-572,-328,-29,107,-275
11266,2218,0,2023-03-01T18:56:02.854489,1952391,1230,1946,-353,-1038,-572,-328,-29,107,-275
11267,2219,0,2023-03-01T18:56:02.859110,1952396,1231,1941,-358,-1038,-570,-322,-29,107,-275
11268,2220,0,2023-03-01T18:56:02.864712,1952401,1231,1941,-358,-1038,-570,-322,-29,107,-275
11269,2221,0,2023-03-01T18:56:02.869904,1952406,1231,1941,-358,-1038,-570,-322,-29,107,-275
11270,2222,0,2023-03-01T18:56:02.875538,1952412,1231,1941,-358,-1038,-570,-322,-29,107,-275
11271,2223,0,2023-03-01T18:56:02.880832,1952417,1230,1939,-356,-1040,-572,-326,-29,107,-275
11272,2224,0,2023-03-01T18:56:02.887380,1952423,1230,1939,-356,-1040,-572,-326,-29,107,-275
11273,2225,0,2023-03-01T18:56:02.893076,1952430,1230,1939,-356,-1040,-572,-326,-29,107,-275
11274,2226,0,2023-03-01T18:56:02.898898,1952435,1227,1945,-349,-1044,-571,-315,-27,107,-275
11275,2227,0,2023-03-01T18:56:02.904701,1952441,1227,1945,-349,-1044,-571,-315,-27,111,-281
11276,2228,0,2023-03-01T18:56:02.910399,1952447,1227,1945,-349,-1044,-571,-315,-27,111,-281
11277,2229,0,2023-03-01T18:56:02.914972,1952451,1227,1945,-349,-1044,-571,-315,-27,111,-281
11278,2230,0,2023-03-01T18:56:02.920100,1952456,1227,1943,-347,-1034,-577,-322,-27,111,-281
11279,2231,0,2023-03-01T18:56:02.925988,1952462,1227,1943,-347,-1034,-577,-322,-27,111,-281
11280,2232,0,2023-03-01T18:56:02.930787,1952467,1227,1943,-347,-1034,-577,-322,-27,111,-281
11281,2233,0,2023-03-01T18:56:02.935812,1952472,1227,1943,-347,-1034,-577,-322,-27,111,-281
11282,2234,0,2023-03-01T18:56:02.940403,1952477,1230,1944,-349,-1031,-574,-318,-27,111,-281
11283,2235,0,2023-03-01T18:56:02.946257,1952483,1230,1944,-349,-1031,-574,-318,-27,111,-281
11284,2236,0,2023-03-01T18:56:02.951461,1952487,1230,1944,-349,-1031,-574,-318,-27,111,-281
11285,2237,0,2023-03-01T18:56:02.957588,1952494,1230,1944,-349,-1031,-574,-318,-27,111,-281
11286,2238,0,2023-03-01T18:56:02.962784,1952499,1228,1943,-356,-1023,-576,-322,-27,111,-281
11287,2239,0,2023-03-01T18:56:02.969342,1952505,1228,1943,-356,-1023,-576,-322,-27,111,-281
11288,2240,0,2023-03-01T18:56:02.974761,1952510,1228,1943,-356,-1023,-576,-322,-27,111,-281
11289,2241,0,2023-03-01T18:56:02.980221,1952517,1231,1943,-354,-1038,-582,-323,-27,111,-281
11290,2242,0,2023-03-01T18:56:02.985764,1952522,1231,1943,-354,-1038,-582,-323,-27,111,-281
11291,2243,0,2023-03-01T18:56:02.991496,1952528,1231,1943,-354,-1038,-582,-323,-27,111,-281
11292,2244,0,2023-03-01T18:56:02.997039,1952533,1231,1943,-354,-1038,-582,-323,-27,111,-281
11293,2245,0,2023-03-01T18:56:03.002905,1952539,1230,1945,-352,-1044,-580,-332,-27,111,-281
11294,2246,0,2023-03-01T18:56:03.010214,1952546,1230,1945,-352,-1044,-580,-332,-27,111,-281
11295,2247,0,2023-03-01T18:56:03.015415,1952551,1230,1945,-352,-1044,-580,-332,-27,111,-281
11296,2248,0,2023-03-01T18:56:03.020577,1952557,1230,1945,-356,-1038,-577,-331,-27,111,-281
11297,2249,0,2023-03-01T18:56:03.026673,1952563,1230,1945,-356,-1038,-577,-331,-27,111,-281
11298,2250,0,2023-03-01T18:56:03.031823,1952568,1230,1945,-356,-1038,-577,-331,-27,111,-281
11299,2251,0,2023-03-01T18:56:03.038203,1952574,1230,1945,-356,-1038,-577,-331,-27,111,-281
11300,2252,0,2023-03-01T18:56:03.043324,1952579,1230,1942,-354,-1033,-571,-321,-30,110,-278
11301,2253,0,2023-03-01T18:56:03.049771,1952586,1230,1942,-354,-1033,-571,-321,-30,110,-278
11302,2254,0,2023-03-01T18:56:03.055308,1952591,1230,1942,-354,-1033,-571,-321,-30,110,-278
11303,2255,0,2023-03-01T18:56:03.060274,1952596,1230,1942,-354,-1033,-571,-321,-30,110,-278
11304,2256,0,2023-03-01T18:56:03.065895,1952603,1230,1942,-354,-1033,-571,-321,-30,110,-278
11305,2257,0,2023-03-01T18:56:03.071048,1952608,1230,1942,-354,-1033,-571,-321,-30,110,-278
11306,2258,0,2023-03-01T18:56:03.077040,1952613,1230,1942,-354,-1033,-571,-321,-30,110,-278
11307,2259,0,2023-03-01T18:56:03.082075,1952618,1227,1943,-352,-1043,-586,-326,-30,110,-278
11308,2260,0,2023-03-01T18:56:03.088128,1952624,1227,1943,-352,-1043,-586,-326,-30,110,-278
11309,2261,0,2023-03-01T18:56:03.092848,1952629,1227,1943,-352,-1043,-586,-326,-30,110,-278
11310,2262,0,2023-03-01T18:56:03.098006,1952634,1227,1943,-352,-1043,-586,-326,-30,110,-278
11311,2263,0,2023-03-01T18:56:03.103581,1952640,1232,1944,-354,-1043,-575,-322,-30,110,-278
11312,2264,0,2023-03-01T18:56:03.112587,1952649,1232,1944,-354,-1043,-575,-322,-30,110,-278
11313,2265,0,2023-03-01T18:56:03.117619,1952654,1232,1944,-354,-1043,-575,-322,-30,110,-278
11314,2266,0,2023-03-01T18:56:03.122684,1952659,1232,1944,-354,-1043,-575,-322,-30,110,-278
11315,2267,0,2023-03-01T18:56:03.128448,1952665,1232,1944,-354,-1043,-575,-322,-30,110,-278
11316,2268,0,2023-03-01T18:56:03.133473,1952669,1232,1944,-354,-1043,-575,-322,-30,110,-278
11317,2269,0,2023-03-01T18:56:03.138301,1952674,1232,1944,-354,-1043,-575,-322,-30,110,-278
11318,2270,0,2023-03-01T18:56:03.143528,1952679,1232,1941,-357,-1040,-578,-322,-30,110,-278
11319,2271,0,2023-03-01T18:56:03.149512,1952686,1232,1941,-357,-1040,-578,-322,-30,110,-278
11320,2272,0,2023-03-01T18:56:03.155579,1952692,1232,1941,-357,-1040,-578,-322,-30,110,-278
11321,2273,0,2023-03-01T18:56:03.160508,1952697,1229,1945,-353,-1035,-576,-333,-29,121,-283
11322,2274,0,2023-03-01T18:56:03.166502,1952703,1229,1945,-353,-1035,-576,-333,-29,121,-283
11323,2275,0,2023-03-01T18:56:03.171649,1952708,1229,1945,-353,-1035,-576,-333,-29,121,-283
11324,2276,0,2023-03-01T18:56:03.176854,1952713,1229,1945,-353,-1035,-576,-333,-29,121,-283
11325,2277,0,2023-03-01T18:56:03.181996,1952718,1231,1945,-350,-1048,-577,-322,-29,121,-283
11326,2278,0,2023-03-01T18:56:03.188284,1952724,1231,1945,-350,-1048,-577,-322,-29,121,-283
11327,2279,0,2023-03-01T18:56:03.192941,1952730,1231,1945,-350,-1048,-577,-322,-29,121,-283
11328,2280,0,2023-03-01T18:56:03.197872,1952735,1231,1945,-350,-1048,-577,-322,-29,121,-283
11329,2281,0,2023-03-01T18:56:03.202896,1952739,1231,1944,-352,-1048,-576,-324,-29,121,-283
11330,2282,0,2023-03-01T18:56:03.209218,1952745,1231,1944,-352,-1048,-576,-324,-29,121,-283
11331,2283,0,2023-03-01T18:56:03.215736,1952751,1231,1944,-352,-1048,-576,-324,-29,121,-283
11332,2284,0,2023-03-01T18:56:03.222301,1952758,1228,1947,-353,-1037,-573,-319,-29,121,-283
11333,2285,0,2023-03-01T18:56:03.229040,1952765,1228,1947,-353,-1037,-573,-319,-29,121,-283
11334,2286,0,2023-03-01T18:56:03.234883,1952772,1228,1947,-353,-1037,-573,-319,-29,121,-283
11335,2287,0,2023-03-01T18:56:03.239913,1952776,1229,1944,-353,-1037,-577,-325,-29,121,-283
11336,2288,0,2023-03-01T18:56:03.245515,1952782,1229,1944,-353,-1037,-577,-325,-29,121,-283
11337,2289,0,2023-03-01T18:56:03.251341,1952787,1229,1944,-353,-1037,-577,-325,-29,121,-283
11338,2290,0,2023-03-01T18:56:03.256039,1952792,1229,1944,-353,-1037,-577,-325,-29,121,-283
11339,2291,0,2023-03-01T18:56:03.260783,1952797,1233,1943,-357,-1032,-580,-327,-29,121,-283
11340,2292,0,2023-03-01T18:56:03.266412,1952802,1233,1943,-357,-1032,-580,-327,-29,121,-283
11341,2293,0,2023-03-01T18:56:03.271773,1952807,1233,1943,-357,-1032,-580,-327,-29,121,-283
11342,2294,0,2023-03-01T18:56:03.276847,1952814,1233,1943,-357,-1032,-580,-327,-29,121,-283
11343,2295,0,2023-03-01T18:56:03.281617,1952818,1232,1944,-359,-1042,-573,-326,-29,121,-283
11344,2296,0,2023-03-01T18:56:03.287813,1952824,1232,1944,-359,-1042,-573,-326,-29,121,-283
11345,2297,0,2023-03-01T18:56:03.292542,1952829,1232,1944,-359,-1042,-573,-326,-29,121,-283
11346,2298,0,2023-03-01T18:56:03.297521,1952834,1232,1944,-359,-1042,-573,-326,-29,121,-283
11347,2299,0,2023-03-01T18:56:03.302709,1952839,1230,1941,-355,-1036,-568,-323,-21,101,-279
11348,2300,0,2023-03-01T18:56:03.308973,1952845,1230,1941,-355,-1036,-568,-323,-21,101,-279
11349,2301,0,2023-03-01T18:56:03.314690,1952850,1230,1941,-355,-1036,-568,-323,-21,101,-279
11350,2302,0,2023-03-01T18:56:03.319590,1952856,1231,1942,-354,-1037,-571,-324,-21,101,-279
11351,2303,0,2023-03-01T18:56:03.325790,1952862,1231,1942,-354,-1037,-571,-324,-21,101,-279
11352,2304,0,2023-03-01T18:56:03.331746,1952868,1231,1942,-354,-1037,-571,-324,-21,101,-279
11353,2305,0,2023-03-01T18:56:03.337335,1952874,1231,1942,-354,-1037,-571,-324,-21,101,-279
11354,2306,0,2023-03-01T18:56:03.342454,1952879,1229,1944,-361,-1037,-579,-320,-21,101,-279
11355,2307,0,2023-03-01T18:56:03.348320,1952884,1229,1944,-361,-1037,-579,-320,-21,101,-279
11356,2308,0,2023-03-01T18:56:03.353590,1952889,1229,1944,-361,-1037,-579,-320,-21,101,-279
11357,2309,0,2023-03-01T18:56:03.358400,1952894,1229,1944,-361,-1037,-579,-320,-21,101,-279
11358,2310,0,2023-03-01T18:56:03.363613,1952900,1231,1944,-362,-1032,-569,-325,-21,101,-279
11359,2311,0,2023-03-01T18:56:03.369677,1952906,1231,1944,-362,-1032,-569,-325,-21,101,-279
11360,2312,0,2023-03-01T18:56:03.376034,1952912,1231,1944,-362,-1032,-569,-325,-21,101,-279
11361,2313,0,2023-03-01T18:56:03.381200,1952917,1227,1943,-359,-1035,-568,-332,-21,101,-279
11362,2314,0,2023-03-01T18:56:03.387492,1952924,1227,1943,-359,-1035,-568,-332,-21,101,-279
11363,2315,0,2023-03-01T18:56:03.392213,1952928,1227,1943,-359,-1035,-568,-332,-21,101,-279
11364,2316,0,2023-03-01T18:56:03.396988,1952933,1227,1943,-359,-1035,-568,-332,-21,101,-279
11365,2317,0,2023-03-01T18:56:03.402123,1952939,1228,1943,-351,-1034,-571,-320,-21,101,-279
11366,2318,0,2023-03-01T18:56:03.408634,1952945,1228,1943,-351,-1034,-571,-320,-21,101,-279
11367,2319,0,2023-03-01T18:56:03.414328,1952951,1228,1943,-351,-1034,-571,-320,-21,101,-279
11368,2320,0,2023-03-01T18:56:03.418915,1952956,1231,1943,-349,-1046,-575,-322,-21,101,-279
11369,2321,0,2023-03-01T18:56:03.424697,1952961,1231,1943,-349,-1046,-575,-322,-22,118,-270
11370,2322,0,2023-03-01T18:56:03.429876,1952966,1231,1943,-349,-1046,-575,-322,-22,118,-270
11371,2323,0,2023-03-01T18:56:03.435578,1952971,1231,1943,-349,-1046,-575,-322,-22,118,-270
11372,2324,0,2023-03-01T18:56:03.441068,1952977,1232,1939,-350,-1037,-567,-325,-22,118,-270
11373,2325,0,2023-03-01T18:56:03.447350,1952984,1232,1939,-350,-1037,-567,-325,-22,118,-270
11374,2326,0,2023-03-01T18:56:03.452347,1952989,1232,1939,-350,-1037,-567,-325,-22,118,-270
11375,2327,0,2023-03-01T18:56:03.458373,1952995,1232,1939,-350,-1037,-567,-325,-22,118,-270
11376,2328,0,2023-03-01T18:56:03.463524,1953000,1232,1944,-350,-1037,-569,-323,-22,118,-270
11377,2329,0,2023-03-01T18:56:03.469799,1953006,1232,1944,-350,-1037,-569,-323,-22,118,-270
11378,2330,0,2023-03-01T18:56:03.475782,1953011,1232,1944,-350,-1037,-569,-323,-22,118,-270
11379,2331,0,2023-03-01T18:56:03.481505,1953017,1230,1941,-352,-1039,-568,-323,-22,118,-270
11380,2332,0,2023-03-01T18:56:03.487972,1953025,1230,1941,-352,-1039,-568,-323,-22,118,-270
11381,2333,0,2023-03-01T18:56:03.493493,1953030,1230,1941,-352,-1039,-568,-323,-22,118,-270
11382,2334,0,2023-03-01T18:56:03.498783,1953035,1230,1941,-352,-1039,-568,-323,-22,118,-270
11383,2335,0,2023-03-01T18:56:03.503765,1953040,1229,1940,-352,-1038,-574,-326,-22,118,-270
11384,2336,0,2023-03-01T18:56:03.509838,1953046,1229,1940,-352,-1038,-574,-326,-22,118,-270
11385,2337,0,2023-03-01T18:56:03.514970,1953051,1229,1940,-352,-1038,-574,-326,-22,118,-270
11386,2338,0,2023-03-01T18:56:03.521242,1953056,1227,1940,-356,-1039,-568,-324,-22,118,-270
11387,2339,0,2023-03-01T18:56:03.527335,1953063,1227,1940,-356,-1039,-568,-324,-22,118,-270
11388,2340,0,2023-03-01T18:56:03.533174,1953070,1227,1940,-356,-1039,-568,-324,-22,118,-270
11389,2341,0,2023-03-01T18:56:03.538424,1953075,1227,1940,-356,-1039,-568,-324,-22,118,-270
11390,2342,0,2023-03-01T18:56:03.543954,1953080,1229,1943,-351,-1040,-571,-316,-22,118,-270
11391,2343,0,2023-03-01T18:56:03.550042,1953086,1229,1943,-351,-1040,-571,-316,-22,118,-270
11392,2344,0,2023-03-01T18:56:03.555497,1953092,1229,1943,-351,-1040,-571,-316,-22,118,-270
11393,2345,0,2023-03-01T18:56:03.560526,1953097,1234,1947,-346,-1040,-579,-314,-26,120,-276
11394,2346,0,2023-03-01T18:56:03.566614,1953103,1234,1947,-346,-1040,-579,-314,-26,120,-276
11395,2347,0,2023-03-01T18:56:03.571992,1953108,1234,1947,-346,-1040,-579,-314,-26,120,-276
11396,2348,0,2023-03-01T18:56:03.578086,1953114,1234,1947,-346,-1040,-579,-314,-26,120,-276
11397,2349,0,2023-03-01T18:56:03.583224,1953120,1228,1942,-351,-1037,-576,-319,-26,120,-276
11398,2350,0,2023-03-01T18:56:03.589992,1953126,1228,1942,-351,-1037,-576,-319,-26,120,-276
11399,2351,0,2023-03-01T18:56:03.595209,1953132,1228,1942,-351,-1037,-576,-319,-26,120,-276
11400,2352,0,2023-03-01T18:56:03.601323,1953137,1227,1944,-348,-1035,-576,-320,-26,120,-276
11401,2353,0,2023-03-01T18:56:03.607671,1953143,1227,1944,-348,-1035,-576,-320,-26,120,-276
11402,2354,0,2023-03-01T18:56:03.613324,1953149,1227,1944,-348,-1035,-576,-320,-26,120,-276
11403,2355,0,2023-03-01T18:56:03.619790,1953156,1230,1942,-355,-1032,-571,-322,-26,120,-276
11404,2356,0,2023-03-01T18:56:03.625823,1953162,1230,1942,-355,-1032,-571,-322,-26,120,-276
11405,2357,0,2023-03-01T18:56:03.631811,1953168,1230,1942,-355,-1032,-571,-322,-26,120,-276
11406,2358,0,2023-03-01T18:56:03.638592,1953174,1230,1942,-355,-1032,-571,-322,-26,120,-276
11407,2359,0,2023-03-01T18:56:03.644228,1953180,1229,1946,-353,-1035,-583,-327,-26,120,-276
11408,2360,0,2023-03-01T18:56:03.649385,1953185,1229,1946,-353,-1035,-583,-327,-26,120,-276
11409,2361,0,2023-03-01T18:56:03.656466,1953191,1229,1946,-353,-1035,-583,-327,-26,120,-276
11410,2362,0,2023-03-01T18:56:03.663085,1953199,1232,1942,-354,-1037,-573,-324,-26,120,-276
11411,2363,0,2023-03-01T18:56:03.669920,1953206,1232,1942,-354,-1037,-573,-324,-26,120,-276
11412,2364,0,2023-03-01T18:56:03.675197,1953211,1232,1942,-354,-1037,-573,-324,-26,120,-276
11413,2365,0,2023-03-01T18:56:03.680277,1953217,1227,1943,-348,-1039,-574,-319,-26,118,-280
11414,2366,0,2023-03-01T18:56:03.686819,1953223,1227,1943,-348,-1039,-574,-319,-26,118,-280
11415,2367,0,2023-03-01T18:56:03.692494,1953229,1227,1943,-348,-1039,-574,-319,-26,118,-280
11416,2368,0,2023-03-01T18:56:03.697970,1953234,1227,1943,-348,-1039,-574,-319,-26,118,-280
11417,2369,0,2023-03-01T18:56:03.703295,1953240,1230,1945,-346,-1040,-573,-326,-26,118,-280
11418,2370,0,2023-03-01T18:56:03.710679,1953246,1230,1945,-346,-1040,-573,-326,-26,118,-280
11419,2371,0,2023-03-01T18:56:03.717832,1953253,1230,1945,-346,-1040,-573,-326,-26,118,-280
11420,2372,0,2023-03-01T18:56:03.723291,1953259,1231,1945,-351,-1046,-571,-324,-26,118,-280
11421,2373,0,2023-03-01T18:56:03.729597,1953266,1231,1945,-351,-1046,-571,-324,-26,118,-280
11422,2374,0,2023-03-01T18:56:03.734939,1953271,1231,1945,-351,-1046,-571,-324,-26,118,-280
11423,2375,0,2023-03-01T18:56:03.740089,1953276,1229,1941,-354,-1040,-570,-330,-26,118,-280
11424,2376,0,2023-03-01T18:56:03.745827,1953283,1229,1941,-354,-1040,-570,-330,-26,118,-280
11425,2377,0,2023-03-01T18:56:03.751575,1953288,1229,1941,-354,-1040,-570,-330,-26,118,-280
11426,2378,0,2023-03-01T18:56:03.757226,1953294,1229,1941,-354,-1040,-570,-330,-26,118,-280
11427,2379,0,2023-03-01T18:56:03.761977,1953299,1230,1941,-355,-1032,-572,-320,-26,118,-280
11428,2380,0,2023-03-01T18:56:03.768499,1953304,1230,1941,-355,-1032,-572,-320,-26,118,-280
11429,2381,0,2023-03-01T18:56:03.774480,1953310,1230,1941,-355,-1032,-572,-320,-26,118,-280
11430,2382,0,2023-03-01T18:56:03.779510,1953316,1230,1941,-355,-1032,-572,-320,-26,118,-280
11431,2383,0,2023-03-01T18:56:03.784521,1953320,1232,1942,-353,-1031,-576,-317,-26,118,-280
11432,2384,0,2023-03-01T18:56:03.790701,1953328,1232,1942,-353,-1031,-576,-317,-26,118,-280
11433,2385,0,2023-03-01T18:56:03.795524,1953332,1232,1942,-353,-1031,-576,-317,-26,118,-280
11434,2386,0,2023-03-01T18:56:03.800588,1953337,1228,1945,-349,-1035,-575,-322,-26,110,-276
11435,2387,0,2023-03-01T18:56:03.807270,1953343,1228,1945,-349,-1035,-575,-322,-26,110,-276
11436,2388,0,2023-03-01T18:56:03.812346,1953349,1228,1945,-349,-1035,-575,-322,-26,110,-276
11437,2389,0,2023-03-01T18:56:03.817029,1953353,1228,1945,-349,-1035,-575,-322,-26,110,-276
11438,2390,0,2023-03-01T18:56:03.822226,1953358,1231,1944,-346,-1030,-566,-318,-26,110,-276
11439,2391,0,2023-03-01T18:56:03.829124,1953366,1231,1944,-346,-1030,-566,-318,-26,110,-276
11440,2392,0,2023-03-01T18:56:03.834931,1953372,1231,1944,-346,-1030,-566,-318,-26,110,-276
11441,2393,0,2023-03-01T18:56:03.839779,1953376,1230,1942,-353,-1037,-571,-316,-26,110,-276
11442,2394,0,2023-03-01T18:56:03.845558,1953382,1230,1942,-353,-1037,-571,-316,-26,110,-276
11443,2395,0,2023-03-01T18:56:03.851497,1953388,1230,1942,-353,-1037,-571,-316,-26,110,-276
11444,2396,0,2023-03-01T18:56:03.857169,1953393,1230,1942,-353,-1037,-571,-316,-26,110,-276
11445,2397,0,2023-03-01T18:56:03.862290,1953398,1232,1943,-351,-1038,-569,-322,-26,110,-276
11446,2398,0,2023-03-01T18:56:03.868839,1953405,1232,1943,-351,-1038,-569,-322,-26,110,-276
11447,2399,0,2023-03-01T18:56:03.875482,1953411,1232,1943,-351,-1038,-569,-322,-26,110,-276
11448,2400,0,2023-03-01T18:56:03.881514,1953418,1230,1939,-352,-1031,-573,-324,-26,110,-276
11449,2401,0,2023-03-01T18:56:03.888285,1953425,1230,1939,-352,-1031,-573,-324,-26,110,-276
11450,2402,0,2023-03-01T18:56:03.893036,1953430,1230,1939,-352,-1031,-573,-324,-26,110,-276
11451,2403,0,2023-03-01T18:56:03.898052,1953434,1230,1939,-352,-1031,-573,-324,-26,110,-276
11452,2404,0,2023-03-01T18:56:03.903455,1953439,1230,1943,-352,-1037,-575,-330,-26,110,-276
11453,2405,0,2023-03-01T18:56:03.910441,1953446,1230,1943,-352,-1037,-575,-330,-26,110,-276
11454,2406,0,2023-03-01T18:56:03.916224,1953453,1230,1943,-352,-1037,-575,-330,-26,110,-276
11455,2407,0,2023-03-01T18:56:03.921398,1953458,1231,1942,-353,-1040,-573,-320,-26,110,-276
11456,2408,0,2023-03-01T18:56:03.927796,1953464,1231,1942,-353,-1040,-573,-320,-26,110,-276
11457,2409,0,2023-03-01T18:56:03.932393,1953469,1231,1942,-353,-1040,-573,-320,-26,110,-276
11458,2410,0,2023-03-01T18:56:03.938274,1953474,1231,1942,-353,-1040,-573,-320,-26,110,-276
11459,2411,0,2023-03-01T18:56:03.943795,1953480,1230,1943,-347,-1042,-572,-322,-27,107,-281
11460,2412,0,2023-03-01T18:56:03.950177,1953486,1230,1943,-347,-1042,-572,-322,-27,107,-281
11461,2413,0,2023-03-01T18:56:03.955007,1953491,1230,1943,-347,-1042,-572,-322,-27,107,-281
11462,2414,0,2023-03-01T18:56:03.960386,1953497,1230,1943,-352,-1034,-572,-322,-27,107,-281
11463,2415,0,2023-03-01T18:56:03.966140,1953503,1230,1943,-352,-1034,-572,-322,-27,107,-281
11464,2416,0,2023-03-01T18:56:03.971269,1953508,1230,1943,-352,-1034,-572,-322,-27,107,-281
11465,2417,0,2023-03-01T18:56:03.976648,1953513,1230,1943,-352,-1034,-572,-322,-27,107,-281
11466,2418,0,2023-03-01T18:56:03.981664,1953518,1228,1942,-357,-1041,-572,-323,-27,107,-281
11467,2419,0,2023-03-01T18:56:03.987803,1953524,1228,1942,-357,-1041,-572,-323,-27,107,-281
11468,2420,0,2023-03-01T18:56:03.993119,1953529,1228,1942,-357,-1041,-572,-323,-27,107,-281
11469,2421,0,2023-03-01T18:56:03.998116,1953534,1228,1942,-357,-1041,-572,-323,-27,107,-281
11470,2422,0,2023-03-01T18:56:04.003007,1953540,1230,1943,-354,-1037,-570,-317,-27,107,-281
11471,2423,0,2023-03-01T18:56:04.009058,1953546,1230,1943,-354,-1037,-570,-317,-27,107,-281
11472,2424,0,2023-03-01T18:56:04.014495,1953551,1230,1943,-354,-1037,-570,-317,-27,107,-281
11473,2425,0,2023-03-01T18:56:04.019726,1953556,1230,1943,-354,-1037,-570,-317,-27,107,-281
11474,2426,0,2023-03-01T18:56:04.024396,1953561,1232,1946,-347,-1038,-570,-324,-27,107,-281
11475,2427,0,2023-03-01T18:56:04.030502,1953567,1232,1946,-347,-1038,-570,-324,-27,107,-281
11476,2428,0,2023-03-01T18:56:04.035285,1953571,1232,1946,-347,-1038,-570,-324,-27,107,-281
11477,2429,0,2023-03-01T18:56:04.040349,1953576,1231,1943,-353,-1035,-570,-321,-27,107,-281
11478,2430,0,2023-03-01T18:56:04.045809,1953583,1231,1943,-353,-1035,-570,-321,-27,107,-281
11479,2431,0,2023-03-01T18:56:04.051027,1953587,1231,1943,-353,-1035,-570,-321,-27,107,-281
11480,2432,0,2023-03-01T18:56:04.056248,1953593,1231,1943,-353,-1035,-570,-321,-27,107,-281
11481,2433,0,2023-03-01T18:56:04.060759,1953597,1229,1941,-353,-1039,-573,-326,-31,105,-277
11482,2434,0,2023-03-01T18:56:04.066823,1953603,1229,1941,-353,-1039,-573,-326,-31,105,-277
11483,2435,0,2023-03-01T18:56:04.071929,1953608,1229,1941,-353,-1039,-573,-326,-31,105,-277
11484,2436,0,2023-03-01T18:56:04.076980,1953613,1229,1941,-353,-1039,-573,-326,-31,105,-277
11485,2437,0,2023-03-01T18:56:04.082222,1953618,1227,1941,-350,-1032,-572,-323,-31,105,-277
11486,2438,0,2023-03-01T18:56:04.088089,1953625,1227,1941,-350,-1032,-572,-323,-31,105,-277
11487,2439,0,2023-03-01T18:56:04.093503,1953630,1227,1941,-350,-1032,-572,-323,-31,105,-277
11488,2440,0,2023-03-01T18:56:04.098652,1953635,1227,1941,-350,-1032,-572,-323,-31,105,-277
11489,2441,0,2023-03-01T18:56:04.103820,1953640,1229,1941,-349,-1037,-575,-314,-31,105,-277
11490,2442,0,2023-03-01T18:56:04.110221,1953646,1229,1941,-349,-1037,-575,-314,-31,105,-277
11491,2443,0,2023-03-01T18:56:04.114853,1953651,1229,1941,-349,-1037,-575,-314,-31,105,-277
11492,2444,0,2023-03-01T18:56:04.119625,1953656,1229,1941,-349,-1037,-575,-314,-31,105,-277
11493,2445,0,2023-03-01T18:56:04.124298,1953660,1231,1944,-356,-1042,-568,-321,-31,105,-277
11494,2446,0,2023-03-01T18:56:04.129912,1953667,1231,1944,-356,-1042,-568,-321,-31,105,-277
11495,2447,0,2023-03-01T18:56:04.135316,1953672,1231,1944,-356,-1042,-568,-321,-31,105,-277
11496,2448,0,2023-03-01T18:56:04.140605,1953677,1233,1944,-358,-1042,-576,-327,-31,105,-277
11497,2449,0,2023-03-01T18:56:04.146538,1953683,1233,1944,-358,-1042,-576,-327,-31,105,-277
11498,2450,0,2023-03-01T18:56:04.152185,1953689,1233,1944,-358,-1042,-576,-327,-31,105,-277
11499,2451,0,2023-03-01T18:56:04.157418,1953693,1233,1944,-358,-1042,-576,-327,-31,105,-277
11500,2452,0,2023-03-01T18:56:04.162854,1953699,1230,1941,-355,-1048,-569,-326,-31,105,-277
11501,2453,0,2023-03-01T18:56:04.169358,1953705,1230,1941,-355,-1048,-569,-326,-31,105,-277
11502,2454,0,2023-03-01T18:56:04.174675,1953711,1230,1941,-355,-1048,-569,-326,-31,105,-277
11503,2455,0,2023-03-01T18:56:04.179760,1953716,1230,1941,-355,-1048,-569,-326,-31,105,-277
11504,2456,0,2023-03-01T18:56:04.184464,1953721,1230,1942,-354,-1044,-573,-325,-31,105,-277
11505,2457,0,2023-03-01T18:56:04.190745,1953727,1230,1942,-354,-1044,-573,-325,-31,105,-277
11506,2458,0,2023-03-01T18:56:04.196093,1953732,1230,1942,-354,-1044,-573,-325,-31,105,-277
11507,2459,0,2023-03-01T18:56:04.201448,1953737,1228,1946,-349,-1036,-573,-323,-23,117,-277
11508,2460,0,2023-03-01T18:56:04.208329,1953743,1228,1946,-349,-1036,-573,-323,-23,117,-277
11509,2461,0,2023-03-01T18:56:04.213864,1953751,1228,1946,-349,-1036,-573,-323,-23,117,-277
11510,2462,0,2023-03-01T18:56:04.219109,1953756,1228,1946,-349,-1036,-573,-323,-23,117,-277
11511,2463,0,2023-03-01T18:56:04.224400,1953761,1229,1944,-353,-1035,-578,-336,-23,117,-277
11512,2464,0,2023-03-01T18:56:04.230984,1953767,1229,1944,-353,-1035,-578,-336,-23,117,-277
11513,2465,0,2023-03-01T18:56:04.236466,1953773,1229,1944,-353,-1035,-578,-336,-23,117,-277
11514,2466,0,2023-03-01T18:56:04.241503,1953778,1233,1940,-360,-1043,-572,-325,-23,117,-277
11515,2467,0,2023-03-01T18:56:04.247419,1953783,1233,1940,-360,-1043,-572,-325,-23,117,-277
11516,2468,0,2023-03-01T18:56:04.252622,1953788,1233,1940,-360,-1043,-572,-325,-23,117,-277
11517,2469,0,2023-03-01T18:56:04.258705,1953795,1233,1940,-360,-1043,-572,-325,-23,117,-277
11518,2470,0,2023-03-01T18:56:04.263572,1953800,1232,1947,-353,-1035,-577,-331,-23,117,-277
11519,2471,0,2023-03-01T18:56:04.269779,1953806,1232,1947,-353,-1035,-577,-331,-23,117,-277
11520,2472,0,2023-03-01T18:56:04.274925,1953811,1232,1947,-353,-1035,-577,-331,-23,117,-277
11521,2473,0,2023-03-01T18:56:04.280096,1953816,1232,1947,-353,-1035,-577,-331,-23,117,-277
11522,2474,0,2023-03-01T18:56:04.285185,1953821,1230,1942,-356,-1034,-570,-319,-23,117,-277
11523,2475,0,2023-03-01T18:56:04.291700,1953828,1230,1942,-356,-1034,-570,-319,-23,117,-277
11524,2476,0,2023-03-01T18:56:04.296591,1953833,1230,1942,-356,-1034,-570,-319,-23,117,-277
11525,2477,0,2023-03-01T18:56:04.301932,1953839,1232,1942,-358,-1033,-573,-324,-23,117,-277
11526,2478,0,2023-03-01T18:56:04.309021,1953845,1232,1942,-358,-1033,-573,-324,-23,117,-277
11527,2479,0,2023-03-01T18:56:04.314618,1953851,1232,1942,-358,-1033,-573,-324,-23,117,-277
11528,2480,0,2023-03-01T18:56:04.319619,1953856,1232,1942,-358,-1033,-573,-324,-23,117,-277
11529,2481,0,2023-03-01T18:56:04.324777,1953861,1231,1946,-353,-1031,-568,-321,-27,113,-277
11530,2482,0,2023-03-01T18:56:04.330954,1953867,1231,1946,-353,-1031,-568,-321,-27,113,-277
11531,2483,0,2023-03-01T18:56:04.336047,1953872,1231,1946,-353,-1031,-568,-321,-27,113,-277
11532,2484,0,2023-03-01T18:56:04.341043,1953878,1231,1944,-345,-1036,-571,-325,-27,113,-277
11533,2485,0,2023-03-01T18:56:04.346059,1953883,1231,1944,-345,-1036,-571,-325,-27,113,-277
11534,2486,0,2023-03-01T18:56:04.350972,1953888,1231,1944,-345,-1036,-571,-325,-27,113,-277
11535,2487,0,2023-03-01T18:56:04.355629,1953892,1231,1944,-345,-1036,-571,-325,-27,113,-277
11536,2488,0,2023-03-01T18:56:04.360439,1953897,1230,1944,-353,-1031,-572,-318,-27,113,-277
11537,2489,0,2023-03-01T18:56:04.366650,1953903,1230,1944,-353,-1031,-572,-318,-27,113,-277
11538,2490,0,2023-03-01T18:56:04.371241,1953908,1230,1944,-353,-1031,-572,-318,-27,113,-277
11539,2491,0,2023-03-01T18:56:04.375972,1953912,1230,1944,-353,-1031,-572,-318,-27,113,-277
11540,2492,0,2023-03-01T18:56:04.381173,1953917,1230,1944,-354,-1034,-571,-326,-27,113,-277
11541,2493,0,2023-03-01T18:56:04.388056,1953925,1230,1944,-354,-1034,-571,-326,-27,113,-277
11542,2494,0,2023-03-01T18:56:04.393070,1953930,1230,1944,-354,-1034,-571,-326,-27,113,-277
11543,2495,0,2023-03-01T18:56:04.397929,1953935,1230,1944,-354,-1034,-571,-326,-27,113,-277
11544,2496,0,2023-03-01T18:56:04.402835,1953939,1233,1943,-350,-1037,-571,-329,-27,113,-277
11545,2497,0,2023-03-01T18:56:04.409420,1953945,1233,1943,-350,-1037,-571,-329,-27,113,-277
11546,2498,0,2023-03-01T18:56:04.414391,1953950,1233,1943,-350,-1037,-571,-329,-27,113,-277
11547,2499,0,2023-03-01T18:56:04.419891,1953956,1233,1943,-350,-1037,-571,-329,-27,113,-277
11548,2500,0,2023-03-01T18:56:04.424733,1953961,1229,1945,-347,-1043,-567,-330,-27,113,-277
11549,2501,0,2023-03-01T18:56:04.430641,1953968,1229,1945,-347,-1043,-567,-330,-27,113,-277
11550,2502,0,2023-03-01T18:56:04.436190,1953972,1229,1945,-347,-1043,-567,-330,-27,113,-277
11551,2503,0,2023-03-01T18:56:04.441241,1953978,1229,1946,-348,-1041,-565,-326,-23,121,-275
11552,2504,0,2023-03-01T18:56:04.447322,1953983,1229,1946,-348,-1041,-565,-326,-23,121,-275
11553,2505,0,2023-03-01T18:56:04.451827,1953988,1229,1946,-348,-1041,-565,-326,-23,121,-275
11554,2506,0,2023-03-01T18:56:04.457228,1953994,1229,1946,-348,-1041,-565,-326,-23,121,-275
11555,2507,0,2023-03-01T18:56:04.461891,1953998,1229,1942,-351,-1035,-573,-328,-23,121,-275
11556,2508,0,2023-03-01T18:56:04.467721,1954004,1229,1942,-351,-1035,-573,-328,-23,121,-275
11557,2509,0,2023-03-01T18:56:04.472826,1954010,1229,1942,-351,-1035,-573,-328,-23,121,-275
11558,2510,0,2023-03-01T18:56:04.478680,1954015,1229,1942,-351,-1035,-573,-328,-23,121,-275
11559,2511,0,2023-03-01T18:56:04.484294,1954020,1229,1943,-355,-1037,-572,-329,-23,121,-275
11560,2512,0,2023-03-01T18:56:04.490004,1954027,1229,1943,-355,-1037,-572,-329,-23,121,-275
11561,2513,0,2023-03-01T18:56:04.494893,1954031,1229,1943,-355,-1037,-572,-329,-23,121,-275
11562,2514,0,2023-03-01T18:56:04.499597,1954036,1229,1943,-355,-1037,-572,-329,-23,121,-275
11563,2515,0,2023-03-01T18:56:04.504410,1954040,1229,1942,-353,-1044,-578,-329,-23,121,-275
11564,2516,0,2023-03-01T18:56:04.509792,1954046,1229,1942,-353,-1044,-578,-329,-23,121,-275
11565,2517,0,2023-03-01T18:56:04.515222,1954052,1229,1942,-353,-1044,-578,-329,-23,121,-275
11566,2518,0,2023-03-01T18:56:04.520315,1954057,1229,1942,-353,-1044,-578,-329,-23,121,-275
11567,2519,0,2023-03-01T18:56:04.525408,1954062,1228,1943,-353,-1038,-576,-323,-23,121,-275
11568,2520,0,2023-03-01T18:56:04.531832,1954068,1228,1943,-353,-1038,-576,-323,-23,121,-275
11569,2521,0,2023-03-01T18:56:04.538058,1954073,1228,1943,-353,-1038,-576,-323,-23,121,-275
11570,2522,0,2023-03-01T18:56:04.543905,1954080,1228,1943,-356,-1037,-572,-325,-23,121,-275
11571,2523,0,2023-03-01T18:56:04.550010,1954086,1228,1943,-356,-1037,-572,-325,-23,121,-275
11572,2524,0,2023-03-01T18:56:04.554852,1954092,1228,1943,-356,-1037,-572,-325,-23,121,-275
11573,2525,0,2023-03-01T18:56:04.560087,1954097,1228,1943,-356,-1037,-572,-325,-23,121,-275
11574,2526,0,2023-03-01T18:56:04.565551,1954102,1228,1942,-351,-1035,-571,-326,-23,121,-275
11575,2527,0,2023-03-01T18:56:04.571861,1954108,1228,1942,-351,-1035,-571,-326,-23,121,-275
11576,2528,0,2023-03-01T18:56:04.577423,1954114,1228,1942,-351,-1035,-571,-326,-23,121,-275
11577,2529,0,2023-03-01T18:56:04.582088,1954119,1232,1945,-352,-1043,-569,-321,-30,112,-280
11578,2530,0,2023-03-01T18:56:04.588689,1954125,1232,1945,-352,-1043,-569,-321,-30,112,-280
11579,2531,0,2023-03-01T18:56:04.593806,1954130,1232,1945,-352,-1043,-569,-321,-30,112,-280
11580,2532,0,2023-03-01T18:56:04.598984,1954136,1232,1945,-352,-1043,-569,-321,-30,112,-280
11581,2533,0,2023-03-01T18:56:04.603867,1954141,1228,1944,-356,-1040,-568,-321,-30,112,-280
11582,2534,0,2023-03-01T18:56:04.610498,1954147,1228,1944,-356,-1040,-568,-321,-30,112,-280
11583,2535,0,2023-03-01T18:56:04.615615,1954152,1228,1944,-356,-1040,-568,-321,-30,112,-280
11584,2536,0,2023-03-01T18:56:04.620835,1954157,1228,1944,-356,-1040,-568,-321,-30,112,-280
11585,2537,0,2023-03-01T18:56:04.626030,1954162,1227,1940,-356,-1039,-572,-319,-30,112,-280
11586,2538,0,2023-03-01T18:56:04.632498,1954168,1227,1940,-356,-1039,-572,-319,-30,112,-280
11587,2539,0,2023-03-01T18:56:04.637748,1954173,1227,1940,-356,-1039,-572,-319,-30,112,-280
11588,2540,0,2023-03-01T18:56:04.643351,1954180,1231,1944,-351,-1041,-568,-321,-30,112,-280
11589,2541,0,2023-03-01T18:56:04.649985,1954186,1231,1944,-351,-1041,-568,-321,-30,112,-280
11590,2542,0,2023-03-01T18:56:04.655983,1954193,1231,1944,-351,-1041,-568,-321,-30,112,-280
11591,2543,0,2023-03-01T18:56:04.660926,1954197,1228,1943,-352,-1038,-570,-331,-30,112,-280
11592,2544,0,2023-03-01T18:56:04.667099,1954203,1228,1943,-352,-1038,-570,-331,-30,112,-280
11593,2545,0,2023-03-01T18:56:04.671936,1954208,1228,1943,-352,-1038,-570,-331,-30,112,-280
11594,2546,0,2023-03-01T18:56:04.677058,1954213,1228,1943,-352,-1038,-570,-331,-30,112,-280
11595,2547,0,2023-03-01T18:56:04.682600,1954219,1228,1942,-351,-1039,-569,-331,-30,112,-280
11596,2548,0,2023-03-01T18:56:04.688560,1954225,1228,1942,-351,-1039,-569,-331,-30,112,-280
11597,2549,0,2023-03-01T18:56:04.693574,1954230,1228,1942,-351,-1039,-569,-331,-30,112,-280
11598,2550,0,2023-03-01T18:56:04.698433,1954235,1228,1942,-351,-1039,-569,-331,-30,112,-280
11599,2551,0,2023-03-01T18:56:04.703238,1954240,1228,1943,-348,-1045,-572,-335,-28,114,-274
11600,2552,0,2023-03-01T18:56:04.709500,1954246,1228,1943,-348,-1045,-572,-335,-28,114,-274
11601,2553,0,2023-03-01T18:56:04.715446,1954251,1228,1943,-348,-1045,-572,-335,-28,114,-274
11602,2554,0,2023-03-01T18:56:04.720437,1954257,1228,1943,-348,-1045,-572,-335,-28,114,-274
11603,2555,0,2023-03-01T18:56:04.725043,1954262,1229,1945,-353,-1039,-572,-321,-28,114,-274
11604,2556,0,2023-03-01T18:56:04.731644,1954268,1229,1945,-353,-1039,-572,-321,-28,114,-274
11605,2557,0,2023-03-01T18:56:04.738026,1954274,1229,1945,-353,-1039,-572,-321,-28,114,-274
11606,2558,0,2023-03-01T18:56:04.744431,1954280,1234,1945,-354,-1037,-576,-325,-28,114,-274
11607,2559,0,2023-03-01T18:56:04.751273,1954287,1234,1945,-354,-1037,-576,-325,-28,114,-274
11608,2560,0,2023-03-01T18:56:04.757355,1954293,1234,1945,-354,-1037,-576,-325,-28,114,-274
11609,2561,0,2023-03-01T18:56:04.762974,1954299,1228,1942,-354,-1040,-567,-328,-28,114,-274
11610,2562,0,2023-03-01T18:56:04.771539,1954308,1228,1942,-354,-1040,-567,-328,-28,114,-274
11611,2563,0,2023-03-01T18:56:04.777399,1954314,1228,1942,-354,-1040,-567,-328,-28,114,-274
11612,2564,0,2023-03-01T18:56:04.782421,1954319,1227,1943,-358,-1033,-581,-325,-28,114,-274
11613,2565,0,2023-03-01T18:56:04.789735,1954325,1227,1943,-358,-1033,-581,-325,-28,114,-274
11614,2566,0,2023-03-01T18:56:04.795236,1954331,1227,1943,-358,-1033,-581,-325,-28,114,-274
11615,2567,0,2023-03-01T18:56:04.800609,1954336,1227,1943,-358,-1033,-581,-325,-28,114,-274
11616,2568,0,2023-03-01T18:56:04.806301,1954342,1227,1943,-358,-1033,-581,-325,-28,114,-274
11617,2569,0,2023-03-01T18:56:04.812124,1954349,1227,1943,-358,-1033,-581,-325,-28,114,-274
11618,2570,0,2023-03-01T18:56:04.818400,1954355,1227,1943,-358,-1033,-581,-325,-28,114,-274
11619,2571,0,2023-03-01T18:56:04.823873,1954360,1231,1943,-354,-1036,-574,-322,-28,114,-274
11620,2572,0,2023-03-01T18:56:04.830275,1954367,1231,1943,-354,-1036,-574,-322,-28,114,-274
11621,2573,0,2023-03-01T18:56:04.835708,1954372,1231,1943,-354,-1036,-574,-322,-28,114,-274
11622,2574,0,2023-03-01T18:56:04.841240,1954377,1231,1943,-354,-1036,-574,-322,-28,114,-274
11623,2575,0,2023-03-01T18:56:04.846970,1954383,1228,1940,-351,-1039,-577,-323,-26,108,-278
11624,2576,0,2023-03-01T18:56:04.852498,1954390,1228,1940,-351,-1039,-577,-323,-26,108,-278
11625,2577,0,2023-03-01T18:56:04.858617,1954395,1228,1940,-351,-1039,-577,-323,-26,108,-278
11626,2578,0,2023-03-01T18:56:04.864224,1954400,1231,1941,-350,-1035,-580,-321,-26,108,-278
11627,2579,0,2023-03-01T18:56:04.870646,1954407,1231,1941,-350,-1035,-580,-321,-26,108,-278
11628,2580,0,2023-03-01T18:56:04.875893,1954412,1231,1941,-350,-1035,-580,-321,-26,108,-278
11629,2581,0,2023-03-01T18:56:04.881445,1954418,1231,1941,-350,-1035,-580,-321,-26,108,-278
11630,2582,0,2023-03-01T18:56:04.887187,1954423,1231,1941,-350,-1035,-580,-321,-26,108,-278
11631,2583,0,2023-03-01T18:56:04.892261,1954428,1231,1941,-350,-1035,-580,-321,-26,108,-278
11632,2584,0,2023-03-01T18:56:04.897730,1954435,1231,1941,-350,-1035,-580,-321,-26,108,-278
11633,2585,0,2023-03-01T18:56:04.902617,1954439,1229,1945,-355,-1031,-566,-313,-26,108,-278
11634,2586,0,2023-03-01T18:56:04.909222,1954446,1229,1945,-355,-1031,-566,-313,-26,108,-278
11635,2587,0,2023-03-01T18:56:04.914180,1954451,1229,1945,-355,-1031,-566,-313,-26,108,-278
11636,2588,0,2023-03-01T18:56:04.919107,1954455,1229,1945,-355,-1031,-566,-313,-26,108,-278
11637,2589,0,2023-03-01T18:56:04.924063,1954460,1231,1945,-353,-1037,-572,-327,-26,108,-278
11638,2590,0,2023-03-01T18:56:04.930578,1954466,1231,1945,-353,-1037,-572,-327,-26,108,-278
11639,2591,0,2023-03-01T18:56:04.935631,1954472,1231,1945,-353,-1037,-572,-327,-26,108,-278
11640,2592,0,2023-03-01T18:56:04.940685,1954478,1231,1945,-353,-1037,-572,-327,-26,108,-278
11641,2593,0,2023-03-01T18:56:04.945910,1954482,1228,1940,-358,-1033,-571,-327,-26,108,-278
11642,2594,0,2023-03-01T18:56:04.952241,1954489,1228,1940,-358,-1033,-571,-327,-26,108,-278
11643,2595,0,2023-03-01T18:56:04.957477,1954494,1228,1940,-358,-1033,-571,-327,-26,108,-278
11644,2596,0,2023-03-01T18:56:04.962308,1954499,1230,1944,-342,-1041,-575,-320,-21,113,-269
11645,2597,0,2023-03-01T18:56:04.968963,1954505,1230,1944,-342,-1041,-575,-320,-21,113,-269
11646,2598,0,2023-03-01T18:56:04.974062,1954510,1230,1944,-342,-1041,-575,-320,-21,113,-269
11647,2599,0,2023-03-01T18:56:04.979766,1954516,1230,1944,-342,-1041,-575,-320,-21,113,-269
11648,2600,0,2023-03-01T18:56:04.984742,1954521,1230,1943,-349,-1041,-576,-326,-21,113,-269
11649,2601,0,2023-03-01T18:56:04.991036,1954528,1230,1943,-349,-1041,-576,-326,-21,113,-269
11650,2602,0,2023-03-01T18:56:04.997154,1954534,1230,1943,-349,-1041,-576,-326,-21,113,-269
11651,2603,0,2023-03-01T18:56:05.002091,1954539,1232,1944,-355,-1036,-578,-330,-21,113,-269
11652,2604,0,2023-03-01T18:56:05.008095,1954545,1232,1944,-355,-1036,-578,-330,-21,113,-269
11653,2605,0,2023-03-01T18:56:05.013424,1954549,1232,1944,-355,-1036,-578,-330,-21,113,-269
11654,2606,0,2023-03-01T18:56:05.018585,1954554,1232,1944,-355,-1036,-578,-330,-21,113,-269
11655,2607,0,2023-03-01T18:56:05.023725,1954561,1228,1944,-353,-1042,-581,-328,-21,113,-269
11656,2608,0,2023-03-01T18:56:05.030270,1954567,1228,1944,-353,-1042,-581,-328,-21,113,-269
11657,2609,0,2023-03-01T18:56:05.035802,1954572,1228,1944,-353,-1042,-581,-328,-21,113,-269
11658,2610,0,2023-03-01T18:56:05.040885,1954577,1228,1944,-353,-1042,-581,-328,-21,113,-269
11659,2611,0,2023-03-01T18:56:05.045961,1954582,1227,1941,-358,-1050,-575,-320,-21,113,-269
11660,2612,0,2023-03-01T18:56:05.052739,1954589,1227,1941,-358,-1050,-575,-320,-21,113,-269
11661,2613,0,2023-03-01T18:56:05.058917,1954595,1227,1941,-358,-1050,-575,-320,-21,113,-269
11662,2614,0,2023-03-01T18:56:05.064362,1954600,1228,1944,-353,-1041,-576,-321,-21,113,-269
11663,2615,0,2023-03-01T18:56:05.070050,1954607,1228,1944,-353,-1041,-576,-321,-21,113,-269
11664,2616,0,2023-03-01T18:56:05.076206,1954613,1228,1944,-353,-1041,-576,-321,-21,113,-269
11665,2617,0,2023-03-01T18:56:05.081802,1954618,1230,1942,-352,-1035,-572,-321,-21,113,-269
11666,2618,0,2023-03-01T18:56:05.087994,1954624,1230,1942,-352,-1035,-572,-321,-21,113,-269
11667,2619,0,2023-03-01T18:56:05.093063,1954629,1230,1942,-352,-1035,-572,-321,-21,113,-269
11668,2620,0,2023-03-01T18:56:05.099514,1954635,1230,1942,-352,-1035,-572,-321,-21,113,-269
11669,2621,0,2023-03-01T18:56:05.104855,1954641,1230,1942,-352,-1035,-572,-321,-14,118,-280
11670,2622,0,2023-03-01T18:56:05.110991,1954647,1230,1942,-352,-1035,-572,-321,-14,118,-280
11671,2623,0,2023-03-01T18:56:05.116167,1954653,1230,1942,-352,-1035,-572,-321,-14,118,-280
11672,2624,0,2023-03-01T18:56:05.121096,1954658,1230,1942,-352,-1035,-572,-321,-14,118,-280
11673,2625,0,2023-03-01T18:56:05.127040,1954663,1230,1940,-352,-1031,-569,-324,-14,118,-280
11674,2626,0,2023-03-01T18:56:05.133276,1954669,1230,1940,-352,-1031,-569,-324,-14,118,-280
11675,2627,0,2023-03-01T18:56:05.138521,1954675,1230,1940,-352,-1031,-569,-324,-14,118,-280
11676,2628,0,2023-03-01T18:56:05.143829,1954680,1230,1945,-354,-1035,-572,-322,-14,118,-280
11677,2629,0,2023-03-01T18:56:05.150315,1954686,1230,1945,-354,-1035,-572,-322,-14,118,-280
11678,2630,0,2023-03-01T18:56:05.155568,1954692,1230,1945,-354,-1035,-572,-322,-14,118,-280
11679,2631,0,2023-03-01T18:56:05.161402,1954697,1230,1945,-354,-1035,-572,-322,-14,118,-280
11680,2632,0,2023-03-01T18:56:05.166906,1954703,1230,1942,-355,-1038,-573,-322,-14,118,-280
11681,2633,0,2023-03-01T18:56:05.173566,1954710,1230,1942,-355,-1038,-573,-322,-14,118,-280
11682,2634,0,2023-03-01T18:56:05.178444,1954715,1230,1942,-355,-1038,-573,-322,-14,118,-280
11683,2635,0,2023-03-01T18:56:05.183557,1954720,1228,1945,-356,-1031,-575,-321,-14,118,-280
11684,2636,0,2023-03-01T18:56:05.189924,1954726,1228,1945,-356,-1031,-575,-321,-14,118,-280
11685,2637,0,2023-03-01T18:56:05.195946,1954733,1228,1945,-356,-1031,-575,-321,-14,118,-280
11686,2638,0,2023-03-01T18:56:05.202800,1954739,1228,1941,-355,-1034,-569,-322,-14,118,-280
11687,2639,0,2023-03-01T18:56:05.209601,1954746,1228,1941,-355,-1034,-569,-322,-14,118,-280
11688,2640,0,2023-03-01T18:56:05.214752,1954751,1228,1941,-355,-1034,-569,-322,-14,118,-280
11689,2641,0,2023-03-01T18:56:05.219737,1954756,1228,1941,-355,-1034,-569,-322,-14,118,-280
11690,2642,0,2023-03-01T18:56:05.224871,1954761,1232,1942,-349,-1036,-564,-324,-18,116,-282
11691,2643,0,2023-03-01T18:56:05.230861,1954767,1232,1942,-349,-1036,-564,-324,-18,116,-282
11692,2644,0,2023-03-01T18:56:05.235650,1954772,1232,1942,-349,-1036,-564,-324,-18,116,-282
11693,2645,0,2023-03-01T18:56:05.241543,1954777,1232,1942,-349,-1036,-564,-324,-18,116,-282
11694,2646,0,2023-03-01T18:56:05.246691,1954783,1233,1942,-348,-1042,-573,-319,-18,116,-282
11695,2647,0,2023-03-01T18:56:05.252869,1954789,1233,1942,-348,-1042,-573,-319,-18,116,-282
11696,2648,0,2023-03-01T18:56:05.258504,1954795,1233,1942,-348,-1042,-573,-319,-18,116,-282
11697,2649,0,2023-03-01T18:56:05.263565,1954800,1232,1944,-356,-1036,-573,-321,-18,116,-282
11698,2650,0,2023-03-01T18:56:05.269316,1954806,1232,1944,-356,-1036,-573,-321,-18,116,-282
11699,2651,0,2023-03-01T18:56:05.274776,1954810,1232,1944,-356,-1036,-573,-321,-18,116,-282
11700,2652,0,2023-03-01T18:56:05.279797,1954817,1232,1944,-356,-1036,-573,-321,-18,116,-282
11701,2653,0,2023-03-01T18:56:05.284833,1954822,1229,1944,-353,-1033,-570,-320,-18,116,-282
11702,2654,0,2023-03-01T18:56:05.290923,1954828,1229,1944,-353,-1033,-570,-320,-18,116,-282
11703,2655,0,2023-03-01T18:56:05.296615,1954833,1229,1944,-353,-1033,-570,-320,-18,116,-282
11704,2656,0,2023-03-01T18:56:05.301799,1954838,1230,1942,-353,-1030,-569,-324,-18,116,-282
11705,2657,0,2023-03-01T18:56:05.308857,1954845,1230,1942,-353,-1030,-569,-324,-18,116,-282
11706,2658,0,2023-03-01T18:56:05.314476,1954850,1230,1942,-353,-1030,-569,-324,-18,116,-282
11707,2659,0,2023-03-01T18:56:05.319177,1954855,1230,1942,-353,-1030,-569,-324,-18,116,-282
11708,2660,0,2023-03-01T18:56:05.324367,1954861,1231,1944,-352,-1035,-574,-317,-18,116,-282
11709,2661,0,2023-03-01T18:56:05.330253,1954866,1231,1944,-352,-1035,-574,-317,-18,116,-282
11710,2662,0,2023-03-01T18:56:05.336340,1954873,1231,1944,-352,-1035,-574,-317,-18,116,-282
11711,2663,0,2023-03-01T18:56:05.341401,1954878,1231,1942,-356,-1034,-573,-318,-18,116,-282
11712,2664,0,2023-03-01T18:56:05.347485,1954884,1231,1942,-356,-1034,-573,-318,-24,106,-278
11713,2665,0,2023-03-01T18:56:05.352383,1954889,1231,1942,-356,-1034,-573,-318,-24,106,-278
11714,2666,0,2023-03-01T18:56:05.358545,1954894,1231,1942,-356,-1034,-573,-318,-24,106,-278
11715,2667,0,2023-03-01T18:56:05.363590,1954900,1229,1946,-351,-1032,-574,-317,-24,106,-278
11716,2668,0,2023-03-01T18:56:05.369470,1954906,1229,1946,-351,-1032,-574,-317,-24,106,-278
11717,2669,0,2023-03-01T18:56:05.374232,1954911,1229,1946,-351,-1032,-574,-317,-24,106,-278
11718,2670,0,2023-03-01T18:56:05.378943,1954916,1229,1946,-351,-1032,-574,-317,-24,106,-278
11719,2671,0,2023-03-01T18:56:05.383636,1954920,1230,1943,-355,-1028,-579,-317,-24,106,-278
11720,2672,0,2023-03-01T18:56:05.390339,1954926,1230,1943,-355,-1028,-579,-317,-24,106,-278
11721,2673,0,2023-03-01T18:56:05.395969,1954932,1230,1943,-355,-1028,-579,-317,-24,106,-278
11722,2674,0,2023-03-01T18:56:05.400634,1954937,1230,1943,-355,-1028,-579,-317,-24,106,-278
11723,2675,0,2023-03-01T18:56:05.405413,1954942,1230,1942,-356,-1036,-579,-324,-24,106,-278
11724,2676,0,2023-03-01T18:56:05.411523,1954948,1230,1942,-356,-1036,-579,-324,-24,106,-278
11725,2677,0,2023-03-01T18:56:05.417063,1954953,1230,1942,-356,-1036,-579,-324,-24,106,-278
11726,2678,0,2023-03-01T18:56:05.423661,1954960,1227,1944,-353,-1037,-574,-328,-24,106,-278
11727,2679,0,2023-03-01T18:56:05.429452,1954966,1227,1944,-353,-1037,-574,-328,-24,106,-278
11728,2680,0,2023-03-01T18:56:05.434419,1954971,1227,1944,-353,-1037,-574,-328,-24,106,-278
11729,2681,0,2023-03-01T18:56:05.440506,1954977,1227,1944,-353,-1037,-574,-328,-24,106,-278
11730,2682,0,2023-03-01T18:56:05.445373,1954982,1232,1942,-355,-1041,-575,-326,-24,106,-278
11731,2683,0,2023-03-01T18:56:05.451426,1954988,1232,1942,-355,-1041,-575,-326,-24,106,-278
11732,2684,0,2023-03-01T18:56:05.456883,1954994,1232,1942,-355,-1041,-575,-326,-24,106,-278
11733,2685,0,2023-03-01T18:56:05.461495,1954998,1229,1941,-353,-1039,-572,-323,-24,106,-278
11734,2686,0,2023-03-01T18:56:05.467723,1955004,1229,1941,-353,-1039,-572,-323,-24,106,-278
11735,2687,0,2023-03-01T18:56:05.472900,1955009,1229,1941,-353,-1039,-572,-323,-24,106,-278
11736,2688,0,2023-03-01T18:56:05.477869,1955014,1229,1941,-353,-1039,-572,-323,-24,106,-278
11737,2689,0,2023-03-01T18:56:05.482430,1955019,1230,1942,-345,-1037,-574,-327,-22,116,-282
11738,2690,0,2023-03-01T18:56:05.488613,1955025,1230,1942,-345,-1037,-574,-327,-22,116,-282
11739,2691,0,2023-03-01T18:56:05.493826,1955031,1230,1942,-345,-1037,-574,-327,-22,116,-282
11740,2692,0,2023-03-01T18:56:05.498878,1955036,1230,1942,-345,-1037,-574,-327,-22,116,-282
11741,2693,0,2023-03-01T18:56:05.503478,1955040,1233,1941,-351,-1036,-570,-320,-22,116,-282
11742,2694,0,2023-03-01T18:56:05.509521,1955046,1233,1941,-351,-1036,-570,-320,-22,116,-282
11743,2695,0,2023-03-01T18:56:05.514348,1955051,1233,1941,-351,-1036,-570,-320,-22,116,-282
11744,2696,0,2023-03-01T18:56:05.520080,1955056,1233,1941,-351,-1036,-570,-320,-22,116,-282
11745,2697,0,2023-03-01T18:56:05.525043,1955061,1231,1945,-351,-1039,-578,-316,-22,116,-282
11746,2698,0,2023-03-01T18:56:05.532695,1955069,1231,1945,-351,-1039,-578,-316,-22,116,-282
11747,2699,0,2023-03-01T18:56:05.538290,1955075,1231,1945,-351,-1039,-578,-316,-22,116,-282
11748,2700,0,2023-03-01T18:56:05.543433,1955080,1231,1940,-356,-1039,-569,-326,-22,116,-282
11749,2701,0,2023-03-01T18:56:05.550166,1955087,1231,1940,-356,-1039,-569,-326,-22,116,-282
11750,2702,0,2023-03-01T18:56:05.555369,1955092,1231,1940,-356,-1039,-569,-326,-22,116,-282
11751,2703,0,2023-03-01T18:56:05.560715,1955097,1231,1940,-356,-1039,-569,-326,-22,116,-282
11752,2704,0,2023-03-01T18:56:05.565831,1955102,1232,1943,-355,-1033,-572,-321,-22,116,-282
11753,2705,0,2023-03-01T18:56:05.572459,1955108,1232,1943,-355,-1033,-572,-321,-22,116,-282
11754,2706,0,2023-03-01T18:56:05.578171,1955115,1232,1943,-355,-1033,-572,-321,-22,116,-282
11755,2707,0,2023-03-01T18:56:05.582974,1955120,1230,1942,-353,-1034,-576,-318,-22,116,-282
11756,2708,0,2023-03-01T18:56:05.589055,1955126,1230,1942,-353,-1034,-576,-318,-22,116,-282
11757,2709,0,2023-03-01T18:56:05.593733,1955130,1230,1942,-353,-1034,-576,-318,-22,116,-282
11758,2710,0,2023-03-01T18:56:05.599684,1955136,1230,1942,-353,-1034,-576,-318,-22,116,-282
11759,2711,0,2023-03-01T18:56:05.604847,1955141,1227,1944,-354,-1034,-573,-320,-21,117,-275
11760,2712,0,2023-03-01T18:56:05.612607,1955149,1227,1944,-354,-1034,-573,-320,-21,117,-275
11761,2713,0,2023-03-01T18:56:05.617620,1955153,1227,1944,-354,-1034,-573,-320,-21,117,-275
11762,2714,0,2023-03-01T18:56:05.623371,1955160,1232,1941,-352,-1041,-581,-328,-21,117,-275
11763,2715,0,2023-03-01T18:56:05.629986,1955167,1232,1941,-352,-1041,-581,-328,-21,117,-275
11764,2716,0,2023-03-01T18:56:05.634779,1955171,1232,1941,-352,-1041,-581,-328,-21,117,-275
11765,2717,0,2023-03-01T18:56:05.640614,1955177,1232,1941,-352,-1041,-581,-328,-21,117,-275
11766,2718,0,2023-03-01T18:56:05.645966,1955182,1229,1940,-354,-1041,-576,-326,-21,117,-275
11767,2719,0,2023-03-01T18:56:05.652046,1955188,1229,1940,-354,-1041,-576,-326,-21,117,-275
11768,2720,0,2023-03-01T18:56:05.658643,1955194,1229,1940,-354,-1041,-576,-326,-21,117,-275
11769,2721,0,2023-03-01T18:56:05.664023,1955201,1230,1945,-356,-1042,-569,-325,-21,117,-275
11770,2722,0,2023-03-01T18:56:05.670250,1955207,1230,1945,-356,-1042,-569,-325,-21,117,-275
11771,2723,0,2023-03-01T18:56:05.675456,1955212,1230,1945,-356,-1042,-569,-325,-21,117,-275
11772,2724,0,2023-03-01T18:56:05.680043,1955217,1230,1945,-356,-1042,-569,-325,-21,117,-275
11773,2725,0,2023-03-01T18:56:05.685284,1955221,1228,1944,-352,-1043,-569,-327,-21,117,-275
11774,2726,0,2023-03-01T18:56:05.691437,1955228,1228,1944,-352,-1043,-569,-327,-21,117,-275
11775,2727,0,2023-03-01T18:56:05.696313,1955232,1228,1944,-352,-1043,-569,-327,-21,117,-275
11776,2728,0,2023-03-01T18:56:05.701172,1955237,1228,1944,-352,-1043,-569,-327,-21,117,-275
11777,2729,0,2023-03-01T18:56:05.706620,1955244,1227,1943,-354,-1046,-569,-326,-21,117,-275
11778,2730,0,2023-03-01T18:56:05.712151,1955249,1227,1943,-354,-1046,-569,-326,-21,117,-275
11779,2731,0,2023-03-01T18:56:05.718293,1955255,1227,1943,-354,-1046,-569,-326,-21,117,-275
11780,2732,0,2023-03-01T18:56:05.723779,1955260,1233,1944,-346,-1049,-573,-318,-21,117,-275
11781,2733,0,2023-03-01T18:56:05.730441,1955267,1233,1944,-346,-1049,-573,-318,-21,117,-275
11782,2734,0,2023-03-01T18:56:05.736551,1955272,1233,1944,-346,-1049,-573,-318,-21,117,-275
11783,2735,0,2023-03-01T18:56:05.741680,1955278,1233,1944,-346,-1049,-573,-318,-21,117,-275
11784,2736,0,2023-03-01T18:56:05.747710,1955283,1231,1944,-338,-1040,-570,-320,-26,108,-278
11785,2737,0,2023-03-01T18:56:05.754197,1955290,1231,1944,-338,-1040,-570,-320,-26,108,-278
11786,2738,0,2023-03-01T18:56:05.759705,1955296,1231,1944,-338,-1040,-570,-320,-26,108,-278
11787,2739,0,2023-03-01T18:56:05.764382,1955301,1226,1946,-354,-1039,-569,-321,-26,108,-278
11788,2740,0,2023-03-01T18:56:05.770115,1955307,1226,1946,-354,-1039,-569,-321,-26,108,-278
11789,2741,0,2023-03-01T18:56:05.775410,1955312,1226,1946,-354,-1039,-569,-321,-26,108,-278
11790,2742,0,2023-03-01T18:56:05.780248,1955317,1226,1946,-354,-1039,-569,-321,-26,108,-278
11791,2743,0,2023-03-01T18:56:05.785289,1955321,1226,1943,-354,-1038,-577,-322,-26,108,-278
11792,2744,0,2023-03-01T18:56:05.792500,1955329,1226,1943,-354,-1038,-577,-322,-26,108,-278
11793,2745,0,2023-03-01T18:56:05.799589,1955336,1226,1943,-354,-1038,-577,-322,-26,108,-278
11794,2746,0,2023-03-01T18:56:05.805103,1955342,1229,1943,-352,-1034,-571,-320,-26,108,-278
11795,2747,0,2023-03-01T18:56:05.811331,1955348,1229,1943,-352,-1034,-571,-320,-26,108,-278
11796,2748,0,2023-03-01T18:56:05.816546,1955353,1229,1943,-352,-1034,-571,-320,-26,108,-278
11797,2749,0,2023-03-01T18:56:05.821782,1955358,1229,1943,-352,-1034,-571,-320,-26,108,-278
11798,2750,0,2023-03-01T18:56:05.827881,1955364,1227,1945,-346,-1036,-569,-320,-26,108,-278
11799,2751,0,2023-03-01T18:56:05.833930,1955371,1227,1945,-346,-1036,-569,-320,-26,108,-278
11800,2752,0,2023-03-01T18:56:05.838852,1955376,1227,1945,-346,-1036,-569,-320,-26,108,-278
11801,2753,0,2023-03-01T18:56:05.844229,1955381,1228,1944,-358,-1037,-573,-316,-26,108,-278
11802,2754,0,2023-03-01T18:56:05.850357,1955387,1228,1944,-358,-1037,-573,-316,-26,108,-278
11803,2755,0,2023-03-01T18:56:05.856791,1955393,1228,1944,-358,-1037,-573,-316,-26,108,-278
11804,2756,0,2023-03-01T18:56:05.862051,1955398,1228,1944,-358,-1037,-573,-316,-26,108,-278
11805,2757,0,2023-03-01T18:56:05.867892,1955404,1230,1944,-355,-1039,-575,-322,-21,115,-283
11806,2758,0,2023-03-01T18:56:05.873102,1955409,1230,1944,-355,-1039,-575,-322,-21,115,-283
11807,2759,0,2023-03-01T18:56:05.877982,1955415,1230,1944,-355,-1039,-575,-322,-21,115,-283
11808,2760,0,2023-03-01T18:56:05.883169,1955420,1228,1945,-359,-1036,-578,-322,-21,115,-283
11809,2761,0,2023-03-01T18:56:05.892512,1955429,1228,1945,-359,-1036,-578,-322,-21,115,-283
11810,2762,0,2023-03-01T18:56:05.897193,1955434,1228,1945,-359,-1036,-578,-322,-21,115,-283
11811,2763,0,2023-03-01T18:56:05.902166,1955439,1231,1941,-357,-1036,-573,-323,-21,115,-283
11812,2764,0,2023-03-01T18:56:05.908823,1955445,1231,1941,-357,-1036,-573,-323,-21,115,-283
11813,2765,0,2023-03-01T18:56:05.913479,1955450,1231,1941,-357,-1036,-573,-323,-21,115,-283
11814,2766,0,2023-03-01T18:56:05.918938,1955454,1231,1941,-357,-1036,-573,-323,-21,115,-283
11815,2767,0,2023-03-01T18:56:05.924109,1955461,1231,1946,-355,-1041,-569,-320,-21,115,-283
11816,2768,0,2023-03-01T18:56:05.929403,1955466,1231,1946,-355,-1041,-569,-320,-21,115,-283
11817,2769,0,2023-03-01T18:56:05.934590,1955471,1231,1946,-355,-1041,-569,-320,-21,115,-283
11818,2770,0,2023-03-01T18:56:05.939907,1955476,1231,1946,-355,-1041,-569,-320,-21,115,-283
11819,2771,0,2023-03-01T18:56:05.944772,1955481,1228,1941,-351,-1035,-573,-316,-21,115,-283
11820,2772,0,2023-03-01T18:56:05.950881,1955487,1228,1941,-351,-1035,-573,-316,-21,115,-283
11821,2773,0,2023-03-01T18:56:05.956707,1955493,1228,1941,-351,-1035,-573,-316,-21,115,-283
11822,2774,0,2023-03-01T18:56:05.961809,1955499,1228,1941,-351,-1035,-573,-316,-21,115,-283
11823,2775,0,2023-03-01T18:56:05.967517,1955504,1229,1944,-353,-1035,-572,-326,-21,115,-283
11824,2776,0,2023-03-01T18:56:05.973236,1955510,1229,1944,-353,-1035,-572,-326,-21,115,-283
11825,2777,0,2023-03-01T18:56:05.977861,1955515,1229,1944,-353,-1035,-572,-326,-21,115,-283
11826,2778,0,2023-03-01T18:56:05.982754,1955519,1230,1942,-355,-1040,-571,-325,-21,115,-283
11827,2779,0,2023-03-01T18:56:05.988946,1955525,1230,1942,-355,-1040,-571,-325,-21,115,-283
11828,2780,0,2023-03-01T18:56:05.994539,1955531,1230,1942,-355,-1040,-571,-325,-21,115,-283
11829,2781,0,2023-03-01T18:56:06.000079,1955536,1230,1942,-355,-1040,-571,-325,-21,115,-283
11830,2782,0,2023-03-01T18:56:06.004779,1955542,1229,1941,-352,-1038,-561,-325,-22,114,-268
11831,2783,0,2023-03-01T18:56:06.010523,1955548,1229,1941,-352,-1038,-561,-325,-22,114,-268
11832,2784,0,2023-03-01T18:56:06.015167,1955552,1229,1941,-352,-1038,-561,-325,-22,114,-268
11833,2785,0,2023-03-01T18:56:06.019797,1955557,1229,1941,-352,-1038,-561,-325,-22,114,-268
11834,2786,0,2023-03-01T18:56:06.024522,1955561,1231,1943,-349,-1038,-567,-328,-22,114,-268
11835,2787,0,2023-03-01T18:56:06.030994,1955567,1231,1943,-349,-1038,-567,-328,-22,114,-268
11836,2788,0,2023-03-01T18:56:06.035894,1955572,1231,1943,-349,-1038,-567,-328,-22,114,-268
11837,2789,0,2023-03-01T18:56:06.040835,1955577,1231,1943,-349,-1038,-567,-328,-22,114,-268
11838,2790,0,2023-03-01T18:56:06.045989,1955582,1231,1943,-354,-1039,-569,-317,-22,114,-268
11839,2791,0,2023-03-01T18:56:06.052173,1955589,1231,1943,-354,-1039,-569,-317,-22,114,-268
11840,2792,0,2023-03-01T18:56:06.057461,1955594,1231,1943,-354,-1039,-569,-317,-22,114,-268
11841,2793,0,2023-03-01T18:56:06.062169,1955599,1231,1943,-354,-1039,-569,-317,-22,114,-268
11842,2794,0,2023-03-01T18:56:06.067647,1955604,1230,1944,-354,-1031,-567,-325,-22,114,-268
11843,2795,0,2023-03-01T18:56:06.073439,1955610,1230,1944,-354,-1031,-567,-325,-22,114,-268
11844,2796,0,2023-03-01T18:56:06.078299,1955614,1230,1944,-354,-1031,-567,-325,-22,114,-268
11845,2797,0,2023-03-01T18:56:06.083228,1955619,1230,1947,-355,-1031,-572,-325,-22,114,-268
11846,2798,0,2023-03-01T18:56:06.089417,1955625,1230,1947,-355,-1031,-572,-325,-22,114,-268
11847,2799,0,2023-03-01T18:56:06.094343,1955631,1230,1947,-355,-1031,-572,-325,-22,114,-268
11848,2800,0,2023-03-01T18:56:06.099931,1955637,1230,1947,-355,-1031,-572,-325,-22,114,-268
11849,2801,0,2023-03-01T18:56:06.104914,1955641,1230,1947,-354,-1036,-568,-329,-22,114,-268
11850,2802,0,2023-03-01T18:56:06.111731,1955648,1230,1947,-354,-1036,-568,-329,-22,114,-268
11851,2803,0,2023-03-01T18:56:06.117456,1955654,1230,1947,-354,-1036,-568,-329,-22,114,-268
11852,2804,0,2023-03-01T18:56:06.123186,1955659,1231,1947,-355,-1037,-570,-324,-22,114,-268
11853,2805,0,2023-03-01T18:56:06.129828,1955665,1231,1947,-355,-1037,-570,-324,-24,114,-268
11854,2806,0,2023-03-01T18:56:06.134991,1955672,1231,1947,-355,-1037,-570,-324,-24,114,-268
11855,2807,0,2023-03-01T18:56:06.140918,1955678,1231,1947,-355,-1037,-570,-324,-24,114,-268
11856,2808,0,2023-03-01T18:56:06.146007,1955683,1230,1942,-351,-1043,-573,-316,-24,114,-268
11857,2809,0,2023-03-01T18:56:06.151489,1955688,1230,1942,-351,-1043,-573,-316,-24,114,-268
11858,2810,0,2023-03-01T18:56:06.156707,1955693,1230,1942,-351,-1043,-573,-316,-24,114,-268
11859,2811,0,2023-03-01T18:56:06.162036,1955698,1230,1942,-351,-1043,-573,-316,-24,114,-268
11860,2812,0,2023-03-01T18:56:06.168300,1955704,1231,1944,-351,-1037,-573,-320,-24,114,-268
11861,2813,0,2023-03-01T18:56:06.174476,1955712,1231,1944,-351,-1037,-573,-320,-24,114,-268
11862,2814,0,2023-03-01T18:56:06.180052,1955717,1231,1944,-351,-1037,-573,-320,-24,114,-268
11863,2815,0,2023-03-01T18:56:06.186244,1955722,1228,1941,-350,-1042,-570,-320,-24,114,-268
11864,2816,0,2023-03-01T18:56:06.192465,1955729,1228,1941,-350,-1042,-570,-320,-24,114,-268
11865,2817,0,2023-03-01T18:56:06.197687,1955734,1228,1941,-350,-1042,-570,-320,-24,114,-268
11866,2818,0,2023-03-01T18:56:06.202822,1955739,1229,1940,-355,-1037,-575,-319,-24,114,-268
11867,2819,0,2023-03-01T18:56:06.208803,1955745,1229,1940,-355,-1037,-575,-319,-24,114,-268
11868,2820,0,2023-03-01T18:56:06.214004,1955750,1229,1940,-355,-1037,-575,-319,-24,114,-268
11869,2821,0,2023-03-01T18:56:06.219980,1955757,1229,1940,-355,-1037,-575,-319,-24,114,-268
11870,2822,0,2023-03-01T18:56:06.225282,1955762,1234,1943,-352,-1041,-575,-321,-24,114,-268
11871,2823,0,2023-03-01T18:56:06.231145,1955768,1234,1943,-352,-1041,-575,-321,-24,114,-268
11872,2824,0,2023-03-01T18:56:06.236397,1955773,1234,1943,-352,-1041,-575,-321,-24,114,-268
11873,2825,0,2023-03-01T18:56:06.241166,1955778,1234,1943,-352,-1041,-575,-321,-24,114,-268
11874,2826,0,2023-03-01T18:56:06.247140,1955783,1230,1944,-352,-1046,-576,-320,-16,108,-278
11875,2827,0,2023-03-01T18:56:06.253862,1955790,1230,1944,-352,-1046,-576,-320,-16,108,-278
11876,2828,0,2023-03-01T18:56:06.260616,1955798,1230,1944,-352,-1046,-576,-320,-16,108,-278
11877,2829,0,2023-03-01T18:56:06.265423,1955802,1231,1945,-352,-1036,-569,-323,-16,108,-278
11878,2830,0,2023-03-01T18:56:06.271735,1955808,1231,1945,-352,-1036,-569,-323,-16,108,-278
11879,2831,0,2023-03-01T18:56:06.276748,1955813,1231,1945,-352,-1036,-569,-323,-16,108,-278
11880,2832,0,2023-03-01T18:56:06.281901,1955818,1231,1945,-352,-1036,-569,-323,-16,108,-278
11881,2833,0,2023-03-01T18:56:06.286984,1955823,1229,1945,-351,-1036,-575,-322,-16,108,-278
11882,2834,0,2023-03-01T18:56:06.292744,1955829,1229,1945,-351,-1036,-575,-322,-16,108,-278
11883,2835,0,2023-03-01T18:56:06.298614,1955835,1229,1945,-351,-1036,-575,-322,-16,108,-278
11884,2836,0,2023-03-01T18:56:06.304297,1955841,1232,1944,-353,-1034,-573,-319,-16,108,-278
11885,2837,0,2023-03-01T18:56:06.310819,1955848,1232,1944,-353,-1034,-573,-319,-16,108,-278
11886,2838,0,2023-03-01T18:56:06.315580,1955852,1232,1944,-353,-1034,-573,-319,-16,108,-278
11887,2839,0,2023-03-01T18:56:06.320834,1955857,1232,1944,-353,-1034,-573,-319,-16,108,-278
11888,2840,0,2023-03-01T18:56:06.325988,1955862,1230,1941,-352,-1039,-570,-321,-16,108,-278
11889,2841,0,2023-03-01T18:56:06.332569,1955869,1230,1941,-352,-1039,-570,-321,-16,108,-278
11890,2842,0,2023-03-01T18:56:06.338579,1955875,1230,1941,-352,-1039,-570,-321,-16,108,-278
11891,2843,0,2023-03-01T18:56:06.343180,1955880,1231,1941,-352,-1032,-575,-329,-16,108,-278
11892,2844,0,2023-03-01T18:56:06.349703,1955886,1231,1941,-352,-1032,-575,-329,-16,108,-278
11893,2845,0,2023-03-01T18:56:06.354637,1955891,1231,1941,-352,-1032,-575,-329,-16,108,-278
11894,2846,0,2023-03-01T18:56:06.359668,1955896,1231,1941,-352,-1032,-575,-329,-16,108,-278
11895,2847,0,2023-03-01T18:56:06.365244,1955902,1230,1940,-354,-1039,-578,-323,-16,108,-278
11896,2848,0,2023-03-01T18:56:06.371408,1955908,1230,1940,-354,-1039,-578,-323,-16,108,-278
11897,2849,0,2023-03-01T18:56:06.376835,1955913,1230,1940,-354,-1039,-578,-323,-16,108,-278
11898,2850,0,2023-03-01T18:56:06.382003,1955918,1230,1940,-354,-1039,-578,-323,-16,108,-278
11899,2851,0,2023-03-01T18:56:06.387835,1955924,1233,1941,-351,-1035,-578,-318,-20,112,-278
11900,2852,0,2023-03-01T18:56:06.394471,1955931,1233,1941,-351,-1035,-578,-318,-20,112,-278
11901,2853,0,2023-03-01T18:56:06.399542,1955936,1233,1941,-351,-1035,-578,-318,-20,112,-278
11902,2854,0,2023-03-01T18:56:06.405200,1955942,1232,1942,-346,-1036,-580,-318,-20,112,-278
11903,2855,0,2023-03-01T18:56:06.411719,1955948,1232,1942,-346,-1036,-580,-318,-20,112,-278
11904,2856,0,2023-03-01T18:56:06.416638,1955953,1232,1942,-346,-1036,-580,-318,-20,112,-278
11905,2857,0,2023-03-01T18:56:06.421421,1955958,1232,1942,-346,-1036,-580,-318,-20,112,-278
11906,2858,0,2023-03-01T18:56:06.426793,1955963,1228,1941,-355,-1044,-578,-326,-20,112,-278
11907,2859,0,2023-03-01T18:56:06.431875,1955969,1228,1941,-355,-1044,-578,-326,-20,112,-278
11908,2860,0,2023-03-01T18:56:06.437393,1955974,1228,1941,-355,-1044,-578,-326,-20,112,-278
11909,2861,0,2023-03-01T18:56:06.442526,1955979,1228,1941,-355,-1044,-578,-326,-20,112,-278
11910,2862,0,2023-03-01T18:56:06.448229,1955985,1229,1944,-357,-1046,-580,-326,-20,112,-278
11911,2863,0,2023-03-01T18:56:06.453539,1955990,1229,1944,-357,-1046,-580,-326,-20,112,-278
11912,2864,0,2023-03-01T18:56:06.459307,1955995,1229,1944,-357,-1046,-580,-326,-20,112,-278
11913,2865,0,2023-03-01T18:56:06.464279,1956001,1228,1940,-356,-1046,-579,-324,-20,112,-278
11914,2866,0,2023-03-01T18:56:06.470403,1956007,1228,1940,-356,-1046,-579,-324,-20,112,-278
11915,2867,0,2023-03-01T18:56:06.475166,1956012,1228,1940,-356,-1046,-579,-324,-20,112,-278
11916,2868,0,2023-03-01T18:56:06.480309,1956017,1228,1940,-356,-1046,-579,-324,-20,112,-278
11917,2869,0,2023-03-01T18:56:06.485258,1956022,1228,1946,-351,-1043,-573,-319,-20,112,-278
11918,2870,0,2023-03-01T18:56:06.491032,1956028,1228,1946,-351,-1043,-573,-319,-20,112,-278
11919,2871,0,2023-03-01T18:56:06.496743,1956033,1228,1946,-351,-1043,-573,-319,-20,112,-278
11920,2872,0,2023-03-01T18:56:06.502257,1956039,1228,1946,-351,-1043,-573,-319,-20,112,-278
11921,2873,0,2023-03-01T18:56:06.507648,1956044,1231,1945,-350,-1032,-569,-321,-29,121,-275
11922,2874,0,2023-03-01T18:56:06.514174,1956049,1231,1945,-350,-1032,-569,-321,-29,121,-275
11923,2875,0,2023-03-01T18:56:06.521350,1956058,1231,1945,-350,-1032,-569,-321,-29,121,-275
11924,2876,0,2023-03-01T18:56:06.527112,1956064,1230,1946,-350,-1037,-576,-315,-29,121,-275
11925,2877,0,2023-03-01T18:56:06.532725,1956069,1230,1946,-350,-1037,-576,-315,-29,121,-275
11926,2878,0,2023-03-01T18:56:06.537808,1956075,1230,1946,-350,-1037,-576,-315,-29,121,-275
11927,2879,0,2023-03-01T18:56:06.542955,1956079,1230,1946,-350,-1037,-576,-315,-29,121,-275
11928,2880,0,2023-03-01T18:56:06.548783,1956085,1233,1943,-350,-1037,-575,-321,-29,121,-275
11929,2881,0,2023-03-01T18:56:06.554990,1956091,1233,1943,-350,-1037,-575,-321,-29,121,-275
11930,2882,0,2023-03-01T18:56:06.559788,1956097,1233,1943,-350,-1037,-575,-321,-29,121,-275
11931,2883,0,2023-03-01T18:56:06.564472,1956102,1231,1941,-350,-1040,-571,-322,-29,121,-275
11932,2884,0,2023-03-01T18:56:06.570471,1956107,1231,1941,-350,-1040,-571,-322,-29,121,-275
11933,2885,0,2023-03-01T18:56:06.575642,1956112,1231,1941,-350,-1040,-571,-322,-29,121,-275
11934,2886,0,2023-03-01T18:56:06.580371,1956117,1231,1941,-350,-1040,-571,-322,-29,121,-275
11935,2887,0,2023-03-01T18:56:06.585564,1956122,1230,1942,-353,-1046,-580,-325,-29,121,-275
11936,2888,0,2023-03-01T18:56:06.592079,1956128,1230,1942,-353,-1046,-580,-325,-29,121,-275
11937,2889,0,2023-03-01T18:56:06.597107,1956133,1230,1942,-353,-1046,-580,-325,-29,121,-275
11938,2890,0,2023-03-01T18:56:06.602691,1956139,1230,1942,-353,-1046,-580,-325,-29,121,-275
11939,2891,0,2023-03-01T18:56:06.608062,1956145,1226,1944,-351,-1035,-577,-323,-29,121,-275
11940,2892,0,2023-03-01T18:56:06.614443,1956151,1226,1944,-351,-1035,-577,-323,-29,121,-275
11941,2893,0,2023-03-01T18:56:06.620223,1956157,1226,1944,-351,-1035,-577,-323,-29,121,-275
11942,2894,0,2023-03-01T18:56:06.625520,1956162,1228,1948,-355,-1031,-570,-319,-29,121,-275
11943,2895,0,2023-03-01T18:56:06.631833,1956168,1228,1948,-355,-1031,-570,-319,-29,121,-275
11944,2896,0,2023-03-01T18:56:06.636856,1956173,1228,1948,-355,-1031,-570,-319,-29,121,-275
11945,2897,0,2023-03-01T18:56:06.641917,1956178,1228,1948,-355,-1031,-570,-319,-29,121,-275
11946,2898,0,2023-03-01T18:56:06.648063,1956185,1229,1945,-350,-1035,-569,-320,-29,111,-275
11947,2899,0,2023-03-01T18:56:06.653759,1956190,1229,1945,-350,-1035,-569,-320,-29,111,-275
11948,2900,0,2023-03-01T18:56:06.659511,1956196,1229,1945,-350,-1035,-569,-320,-29,111,-275
11949,2901,0,2023-03-01T18:56:06.664297,1956201,1232,1945,-354,-1031,-560,-319,-29,111,-275
11950,2902,0,2023-03-01T18:56:06.670382,1956207,1232,1945,-354,-1031,-560,-319,-29,111,-275
11951,2903,0,2023-03-01T18:56:06.675415,1956211,1232,1945,-354,-1031,-560,-319,-29,111,-275
11952,2904,0,2023-03-01T18:56:06.680927,1956217,1232,1945,-354,-1031,-560,-319,-29,111,-275
11953,2905,0,2023-03-01T18:56:06.685827,1956222,1232,1943,-351,-1028,-571,-322,-29,111,-275
11954,2906,0,2023-03-01T18:56:06.691892,1956229,1232,1943,-351,-1028,-571,-322,-29,111,-275
11955,2907,0,2023-03-01T18:56:06.697888,1956234,1232,1943,-351,-1028,-571,-322,-29,111,-275
11956,2908,0,2023-03-01T18:56:06.702977,1956240,1232,1943,-351,-1028,-571,-322,-29,111,-275
11957,2909,0,2023-03-01T18:56:06.708795,1956245,1230,1942,-351,-1031,-562,-320,-29,111,-275
11958,2910,0,2023-03-01T18:56:06.714535,1956251,1230,1942,-351,-1031,-562,-320,-29,111,-275
11959,2911,0,2023-03-01T18:56:06.719763,1956256,1230,1942,-351,-1031,-562,-320,-29,111,-275
11960,2912,0,2023-03-01T18:56:06.724902,1956261,1231,1941,-355,-1037,-566,-321,-29,111,-275
11961,2913,0,2023-03-01T18:56:06.731573,1956269,1231,1941,-355,-1037,-566,-321,-29,111,-275
11962,2914,0,2023-03-01T18:56:06.738189,1956274,1231,1941,-355,-1037,-566,-321,-29,111,-275
11963,2915,0,2023-03-01T18:56:06.744424,1956281,1228,1942,-350,-1035,-575,-320,-29,111,-275
11964,2916,0,2023-03-01T18:56:06.751107,1956287,1228,1942,-350,-1035,-575,-320,-29,111,-275
11965,2917,0,2023-03-01T18:56:06.756337,1956293,1228,1942,-350,-1035,-575,-320,-29,111,-275
11966,2918,0,2023-03-01T18:56:06.761849,1956298,1228,1942,-350,-1035,-575,-320,-29,111,-275
11967,2919,0,2023-03-01T18:56:06.766819,1956303,1229,1943,-349,-1038,-576,-326,-26,106,-270
11968,2920,0,2023-03-01T18:56:06.772226,1956308,1229,1943,-349,-1038,-576,-326,-26,106,-270
11969,2921,0,2023-03-01T18:56:06.777503,1956314,1229,1943,-349,-1038,-576,-326,-26,106,-270
11970,2922,0,2023-03-01T18:56:06.782180,1956319,1229,1943,-349,-1038,-576,-326,-26,106,-270
11971,2923,0,2023-03-01T18:56:06.788099,1956325,1232,1943,-355,-1040,-579,-316,-26,106,-270
11972,2924,0,2023-03-01T18:56:06.793383,1956330,1232,1943,-355,-1040,-579,-316,-26,106,-270
11973,2925,0,2023-03-01T18:56:06.797978,1956334,1232,1943,-355,-1040,-579,-316,-26,106,-270
11974,2926,0,2023-03-01T18:56:06.803365,1956339,1232,1943,-355,-1040,-579,-316,-26,106,-270
11975,2927,0,2023-03-01T18:56:06.809112,1956345,1227,1945,-349,-1038,-574,-311,-26,106,-270
11976,2928,0,2023-03-01T18:56:06.816081,1956352,1227,1945,-349,-1038,-574,-311,-26,106,-270
11977,2929,0,2023-03-01T18:56:06.821577,1956359,1227,1945,-349,-1038,-574,-311,-26,106,-270
11978,2930,0,2023-03-01T18:56:06.827148,1956364,1230,1942,-350,-1042,-571,-319,-26,106,-270
11979,2931,0,2023-03-01T18:56:06.832944,1956369,1230,1942,-350,-1042,-571,-319,-26,106,-270
11980,2932,0,2023-03-01T18:56:06.838144,1956374,1230,1942,-350,-1042,-571,-319,-26,106,-270
11981,2933,0,2023-03-01T18:56:06.843213,1956380,1230,1942,-350,-1042,-571,-319,-26,106,-270
11982,2934,0,2023-03-01T18:56:06.849057,1956385,1230,1943,-356,-1032,-570,-324,-26,106,-270
11983,2935,0,2023-03-01T18:56:06.855373,1956391,1230,1943,-356,-1032,-570,-324,-26,106,-270
11984,2936,0,2023-03-01T18:56:06.860965,1956398,1230,1943,-356,-1032,-570,-324,-26,106,-270
11985,2937,0,2023-03-01T18:56:06.866611,1956403,1231,1942,-352,-1042,-573,-327,-26,106,-270
11986,2938,0,2023-03-01T18:56:06.872921,1956410,1231,1942,-352,-1042,-573,-327,-26,106,-270
11987,2939,0,2023-03-01T18:56:06.877589,1956414,1231,1942,-352,-1042,-573,-327,-26,106,-270
11988,2940,0,2023-03-01T18:56:06.882586,1956419,1231,1942,-352,-1042,-573,-327,-26,106,-270
11989,2941,0,2023-03-01T18:56:06.887750,1956424,1231,1944,-353,-1038,-573,-325,-26,106,-270
11990,2942,0,2023-03-01T18:56:06.894054,1956429,1231,1944,-353,-1038,-573,-325,-26,106,-270
11991,2943,0,2023-03-01T18:56:06.898843,1956435,1231,1944,-353,-1038,-573,-325,-26,106,-270
11992,2944,0,2023-03-01T18:56:06.904062,1956441,1228,1941,-349,-1032,-569,-327,-22,116,-280
11993,2945,0,2023-03-01T18:56:06.910081,1956447,1228,1941,-349,-1032,-569,-327,-22,116,-280
11994,2946,0,2023-03-01T18:56:06.915303,1956452,1228,1941,-349,-1032,-569,-327,-22,116,-280
11995,2947,0,2023-03-01T18:56:06.921574,1956458,1228,1941,-349,-1032,-569,-327,-22,116,-280
11996,2948,0,2023-03-01T18:56:06.927242,1956464,1227,1940,-352,-1034,-567,-325,-22,116,-280
11997,2949,0,2023-03-01T18:56:06.932468,1956469,1227,1940,-352,-1034,-567,-325,-22,116,-280
11998,2950,0,2023-03-01T18:56:06.937467,1956474,1227,1940,-352,-1034,-567,-325,-22,116,-280
11999,2951,0,2023-03-01T18:56:06.942848,1956480,1227,1940,-352,-1034,-567,-325,-22,116,-280
12000,2952,0,2023-03-01T18:56:06.947828,1956485,1230,1943,-358,-1040,-574,-330,-22,116,-280
12001,2953,0,2023-03-01T18:56:06.953641,1956490,1230,1943,-358,-1040,-574,-330,-22,116,-280
12002,2954,0,2023-03-01T18:56:06.959359,1956496,1230,1943,-358,-1040,-574,-330,-22,116,-280
12003,2955,0,2023-03-01T18:56:06.964129,1956501,1227,1942,-356,-1037,-577,-323,-22,116,-280
12004,2956,0,2023-03-01T18:56:06.969522,1956506,1227,1942,-356,-1037,-577,-323,-22,116,-280
12005,2957,0,2023-03-01T18:56:06.974422,1956511,1227,1942,-356,-1037,-577,-323,-22,116,-280
12006,2958,0,2023-03-01T18:56:06.980466,1956516,1227,1942,-356,-1037,-577,-323,-22,116,-280
12007,2959,0,2023-03-01T18:56:06.985311,1956521,1227,1944,-353,-1040,-572,-321,-22,116,-280
12008,2960,0,2023-03-01T18:56:06.990978,1956528,1227,1944,-353,-1040,-572,-321,-22,116,-280
12009,2961,0,2023-03-01T18:56:06.997588,1956534,1227,1944,-353,-1040,-572,-321,-22,116,-280
12010,2962,0,2023-03-01T18:56:07.002344,1956539,1227,1944,-353,-1040,-572,-321,-22,116,-280
12011,2963,0,2023-03-01T18:56:07.007671,1956544,1229,1940,-353,-1040,-572,-324,-22,116,-280
12012,2964,0,2023-03-01T18:56:07.013210,1956550,1229,1940,-353,-1040,-572,-324,-22,116,-280
12013,2965,0,2023-03-01T18:56:07.018026,1956554,1229,1940,-353,-1040,-572,-324,-22,116,-280
12014,2966,0,2023-03-01T18:56:07.022923,1956559,1229,1940,-353,-1040,-572,-324,-22,116,-280
12015,2967,0,2023-03-01T18:56:07.028306,1956564,1231,1941,-355,-1039,-568,-323,-25,115,-273
12016,2968,0,2023-03-01T18:56:07.034209,1956571,1231,1941,-355,-1039,-568,-323,-25,115,-273
12017,2969,0,2023-03-01T18:56:07.040321,1956577,1231,1941,-355,-1039,-568,-323,-25,115,-273
