,Unnamed: 0,imu,server_time,arduino_time,ax,ay,az,gx,gy,gz,mx,my,mz
14290,5242,0,2023-03-01T18:56:19.801777,1969339,197,848,1556,-1031,-580,-316,35,183,-125
14291,5243,0,2023-03-01T18:56:19.807194,1969344,197,848,1556,-1031,-580,-316,35,183,-125
14292,5244,0,2023-03-01T18:56:19.812964,1969350,197,848,1556,-1031,-580,-316,35,183,-125
14293,5245,0,2023-03-01T18:56:19.818138,1969355,197,848,1556,-1031,-580,-316,35,183,-125
14294,5246,0,2023-03-01T18:56:19.822845,1969360,202,850,1552,-1029,-581,-318,35,183,-125
14295,5247,0,2023-03-01T18:56:19.828617,1969366,202,850,1552,-1029,-581,-318,35,183,-125
14296,5248,0,2023-03-01T18:56:19.833159,1969371,202,850,1552,-1029,-581,-318,35,183,-125
14297,5249,0,2023-03-01T18:56:19.837691,1969375,202,850,1552,-1029,-581,-318,35,183,-125
14298,5250,0,2023-03-01T18:56:19.842344,1969380,202,844,1550,-1039,-577,-326,35,183,-125
14299,5251,0,2023-03-01T18:56:19.848490,1969386,202,844,1550,-1039,-577,-326,35,183,-125
14300,5252,0,2023-03-01T18:56:19.854603,1969392,202,844,1550,-1039,-577,-326,35,183,-125
14301,5253,0,2023-03-01T18:56:19.859485,1969396,202,844,1550,-1039,-577,-326,35,183,-125
14302,5254,0,2023-03-01T18:56:19.864515,1969401,197,845,1554,-1042,-561,-323,35,183,-125
14303,5255,0,2023-03-01T18:56:19.870901,1969409,197,845,1554,-1042,-561,-323,35,183,-125
14304,5256,0,2023-03-01T18:56:19.877071,1969415,197,845,1554,-1042,-561,-323,35,183,-125
14305,5257,0,2023-03-01T18:56:19.881969,1969419,194,843,1554,-1049,-565,-322,33,187,-137
14306,5258,0,2023-03-01T18:56:19.887028,1969425,194,843,1554,-1049,-565,-322,33,187,-137
14307,5259,0,2023-03-01T18:56:19.893128,1969430,194,843,1554,-1049,-565,-322,33,187,-137
14308,5260,0,2023-03-01T18:56:19.897942,1969435,194,843,1554,-1049,-565,-322,33,187,-137
14309,5261,0,2023-03-01T18:56:19.903460,1969440,191,843,1559,-1043,-572,-321,33,187,-137
14310,5262,0,2023-03-01T18:56:19.909495,1969446,191,843,1559,-1043,-572,-321,33,187,-137
14311,5263,0,2023-03-01T18:56:19.914361,1969452,191,843,1559,-1043,-572,-321,33,187,-137
14312,5264,0,2023-03-01T18:56:19.919100,1969457,191,843,1559,-1043,-572,-321,33,187,-137
14313,5265,0,2023-03-01T18:56:19.924401,1969462,195,845,1552,-1027,-577,-321,33,187,-137
14314,5266,0,2023-03-01T18:56:19.929728,1969467,195,845,1552,-1027,-577,-321,33,187,-137
14315,5267,0,2023-03-01T18:56:19.935215,1969472,195,845,1552,-1027,-577,-321,33,187,-137
14316,5268,0,2023-03-01T18:56:19.940038,1969477,196,850,1556,-1030,-583,-317,33,187,-137
14317,5269,0,2023-03-01T18:56:19.945652,1969482,196,850,1556,-1030,-583,-317,33,187,-137
14318,5270,0,2023-03-01T18:56:19.951166,1969488,196,850,1556,-1030,-583,-317,33,187,-137
14319,5271,0,2023-03-01T18:56:19.956140,1969494,196,850,1556,-1030,-583,-317,33,187,-137
14320,5272,0,2023-03-01T18:56:19.961419,1969499,197,847,1553,-1032,-576,-314,33,187,-137
14321,5273,0,2023-03-01T18:56:19.967360,1969505,197,847,1553,-1032,-576,-314,33,187,-137
14322,5274,0,2023-03-01T18:56:19.973665,1969511,197,847,1553,-1032,-576,-314,33,187,-137
14323,5275,0,2023-03-01T18:56:19.978638,1969516,197,847,1553,-1032,-576,-314,33,187,-137
14324,5276,0,2023-03-01T18:56:19.984393,1969521,200,847,1555,-1037,-572,-318,33,187,-137
14325,5277,0,2023-03-01T18:56:19.990851,1969528,200,847,1555,-1037,-572,-318,33,187,-137
14326,5278,0,2023-03-01T18:56:19.996684,1969533,200,847,1555,-1037,-572,-318,33,187,-137
14327,5279,0,2023-03-01T18:56:20.001945,1969540,196,844,1550,-1037,-563,-324,33,187,-137
14328,5280,0,2023-03-01T18:56:20.008291,1969545,196,844,1550,-1037,-563,-324,33,187,-137
14329,5281,0,2023-03-01T18:56:20.014898,1969552,196,844,1550,-1037,-563,-324,33,187,-137
14330,5282,0,2023-03-01T18:56:20.020274,1969557,195,845,1562,-1039,-560,-326,37,177,-125
14331,5283,0,2023-03-01T18:56:20.025803,1969563,195,845,1562,-1039,-560,-326,37,177,-125
14332,5284,0,2023-03-01T18:56:20.031837,1969569,195,845,1562,-1039,-560,-326,37,177,-125
14333,5285,0,2023-03-01T18:56:20.036656,1969574,195,845,1562,-1039,-560,-326,37,177,-125
14334,5286,0,2023-03-01T18:56:20.041806,1969579,196,843,1557,-1038,-563,-320,37,177,-125
14335,5287,0,2023-03-01T18:56:20.047937,1969585,196,843,1557,-1038,-563,-320,37,177,-125
14336,5288,0,2023-03-01T18:56:20.054562,1969592,196,843,1557,-1038,-563,-320,37,177,-125
14337,5289,0,2023-03-01T18:56:20.059572,1969597,196,843,1557,-1038,-563,-320,37,177,-125
14338,5290,0,2023-03-01T18:56:20.064672,1969602,193,845,1555,-1032,-580,-327,37,177,-125
14339,5291,0,2023-03-01T18:56:20.070516,1969607,193,845,1555,-1032,-580,-327,37,177,-125
14340,5292,0,2023-03-01T18:56:20.076389,1969613,193,845,1555,-1032,-580,-327,37,177,-125
14341,5293,0,2023-03-01T18:56:20.081572,1969618,199,847,1552,-1031,-585,-320,37,177,-125
14342,5294,0,2023-03-01T18:56:20.087352,1969625,199,847,1552,-1031,-585,-320,37,177,-125
14343,5295,0,2023-03-01T18:56:20.094575,1969632,199,847,1552,-1031,-585,-320,37,177,-125
14344,5296,0,2023-03-01T18:56:20.100056,1969637,197,850,1551,-1035,-579,-314,37,177,-125
14345,5297,0,2023-03-01T18:56:20.105671,1969643,197,850,1551,-1035,-579,-314,37,177,-125
14346,5298,0,2023-03-01T18:56:20.111891,1969649,197,850,1551,-1035,-579,-314,37,177,-125
14347,5299,0,2023-03-01T18:56:20.116701,1969654,197,850,1551,-1035,-579,-314,37,177,-125
14348,5300,0,2023-03-01T18:56:20.122296,1969659,199,849,1551,-1041,-571,-317,37,177,-125
14349,5301,0,2023-03-01T18:56:20.129871,1969667,199,849,1551,-1041,-571,-317,37,177,-125
14350,5302,0,2023-03-01T18:56:20.135506,1969673,199,849,1551,-1041,-571,-317,37,177,-125
14351,5303,0,2023-03-01T18:56:20.140285,1969678,198,845,1559,-1038,-571,-327,35,193,-131
14352,5304,0,2023-03-01T18:56:20.146616,1969684,198,845,1559,-1038,-571,-327,35,193,-131
14353,5305,0,2023-03-01T18:56:20.152996,1969690,198,845,1559,-1038,-571,-327,35,193,-131
14354,5306,0,2023-03-01T18:56:20.157848,1969695,198,845,1559,-1038,-571,-327,35,193,-131
14355,5307,0,2023-03-01T18:56:20.162961,1969700,195,847,1556,-1036,-562,-326,35,193,-131
14356,5308,0,2023-03-01T18:56:20.169966,1969708,195,847,1556,-1036,-562,-326,35,193,-131
14357,5309,0,2023-03-01T18:56:20.175751,1969713,195,847,1556,-1036,-562,-326,35,193,-131
14358,5310,0,2023-03-01T18:56:20.180828,1969718,192,848,1555,-1031,-571,-333,35,193,-131
14359,5311,0,2023-03-01T18:56:20.186403,1969724,192,848,1555,-1031,-571,-333,35,193,-131
14360,5312,0,2023-03-01T18:56:20.192546,1969730,192,848,1555,-1031,-571,-333,35,193,-131
14361,5313,0,2023-03-01T18:56:20.197802,1969735,192,848,1555,-1031,-571,-333,35,193,-131
14362,5314,0,2023-03-01T18:56:20.203079,1969740,194,847,1555,-1031,-581,-332,35,193,-131
14363,5315,0,2023-03-01T18:56:20.209248,1969746,194,847,1555,-1031,-581,-332,35,193,-131
14364,5316,0,2023-03-01T18:56:20.214883,1969752,194,847,1555,-1031,-581,-332,35,193,-131
14365,5317,0,2023-03-01T18:56:20.219534,1969757,194,847,1555,-1031,-581,-332,35,193,-131
14366,5318,0,2023-03-01T18:56:20.224764,1969762,196,848,1560,-1030,-584,-311,35,193,-131
14367,5319,0,2023-03-01T18:56:20.231776,1969769,196,848,1560,-1030,-584,-311,35,193,-131
14368,5320,0,2023-03-01T18:56:20.237623,1969775,196,848,1560,-1030,-584,-311,35,193,-131
14369,5321,0,2023-03-01T18:56:20.242411,1969780,199,848,1553,-1030,-571,-318,35,193,-131
14370,5322,0,2023-03-01T18:56:20.248070,1969785,199,848,1553,-1030,-571,-318,35,193,-131
14371,5323,0,2023-03-01T18:56:20.253646,1969792,199,848,1553,-1030,-571,-318,35,193,-131
14372,5324,0,2023-03-01T18:56:20.258882,1969796,199,848,1553,-1030,-571,-318,35,193,-131
14373,5325,0,2023-03-01T18:56:20.264182,1969802,196,845,1555,-1039,-572,-319,35,193,-131
14374,5326,0,2023-03-01T18:56:20.270198,1969808,196,845,1555,-1039,-572,-319,35,193,-131
14375,5327,0,2023-03-01T18:56:20.275427,1969813,196,845,1555,-1039,-572,-319,35,193,-131
14376,5328,0,2023-03-01T18:56:20.280108,1969817,196,845,1555,-1039,-572,-319,35,193,-131
14377,5329,0,2023-03-01T18:56:20.285486,1969822,197,843,1555,-1045,-574,-324,43,183,-131
14378,5330,0,2023-03-01T18:56:20.291910,1969829,197,843,1555,-1045,-574,-324,43,183,-131
14379,5331,0,2023-03-01T18:56:20.296858,1969835,197,843,1555,-1045,-574,-324,43,183,-131
14380,5332,0,2023-03-01T18:56:20.301649,1969840,193,843,1558,-1045,-570,-327,43,183,-131
14381,5333,0,2023-03-01T18:56:20.306750,1969845,193,843,1558,-1045,-570,-327,43,183,-131
14382,5334,0,2023-03-01T18:56:20.312862,1969850,193,843,1558,-1045,-570,-327,43,183,-131
14383,5335,0,2023-03-01T18:56:20.318135,1969855,193,843,1558,-1045,-570,-327,43,183,-131
14384,5336,0,2023-03-01T18:56:20.323116,1969860,195,847,1556,-1030,-570,-326,43,183,-131
14385,5337,0,2023-03-01T18:56:20.329050,1969866,195,847,1556,-1030,-570,-326,43,183,-131
14386,5338,0,2023-03-01T18:56:20.334648,1969872,195,847,1556,-1030,-570,-326,43,183,-131
14387,5339,0,2023-03-01T18:56:20.340042,1969878,195,847,1556,-1030,-570,-326,43,183,-131
14388,5340,0,2023-03-01T18:56:20.344954,1969882,199,848,1555,-1031,-578,-318,43,183,-131
14389,5341,0,2023-03-01T18:56:20.351589,1969889,199,848,1555,-1031,-578,-318,43,183,-131
14390,5342,0,2023-03-01T18:56:20.357106,1969895,199,848,1555,-1031,-578,-318,43,183,-131
14391,5343,0,2023-03-01T18:56:20.361941,1969899,198,848,1553,-1035,-576,-335,43,183,-131
14392,5344,0,2023-03-01T18:56:20.367759,1969905,198,848,1553,-1035,-576,-335,43,183,-131
14393,5345,0,2023-03-01T18:56:20.375669,1969912,198,848,1553,-1035,-576,-335,43,183,-131
14394,5346,0,2023-03-01T18:56:20.380343,1969917,205,847,1549,-1034,-572,-328,43,183,-131
14395,5347,0,2023-03-01T18:56:20.385834,1969924,205,847,1549,-1034,-572,-328,43,183,-131
14396,5348,0,2023-03-01T18:56:20.391920,1969929,205,847,1549,-1034,-572,-328,43,183,-131
14397,5349,0,2023-03-01T18:56:20.396724,1969934,205,847,1549,-1034,-572,-328,43,183,-131
14398,5350,0,2023-03-01T18:56:20.401888,1969939,200,848,1551,-1040,-570,-326,35,183,-119
14399,5351,0,2023-03-01T18:56:20.407703,1969945,200,848,1551,-1040,-570,-326,35,183,-119
14400,5352,0,2023-03-01T18:56:20.412438,1969950,200,848,1551,-1040,-570,-326,35,183,-119
14401,5353,0,2023-03-01T18:56:20.417917,1969955,200,848,1551,-1040,-570,-326,35,183,-119
14402,5354,0,2023-03-01T18:56:20.423341,1969960,196,846,1558,-1041,-568,-330,35,183,-119
14403,5355,0,2023-03-01T18:56:20.428944,1969967,196,846,1558,-1041,-568,-330,35,183,-119
14404,5356,0,2023-03-01T18:56:20.435252,1969973,196,846,1558,-1041,-568,-330,35,183,-119
14405,5357,0,2023-03-01T18:56:20.440366,1969978,195,844,1557,-1036,-569,-325,35,183,-119
14406,5358,0,2023-03-01T18:56:20.445756,1969983,195,844,1557,-1036,-569,-325,35,183,-119
14407,5359,0,2023-03-01T18:56:20.451818,1969989,195,844,1557,-1036,-569,-325,35,183,-119
14408,5360,0,2023-03-01T18:56:20.456960,1969994,195,844,1557,-1036,-569,-325,35,183,-119
14409,5361,0,2023-03-01T18:56:20.462217,1969999,196,843,1555,-1039,-579,-327,35,183,-119
14410,5362,0,2023-03-01T18:56:20.468000,1970006,196,843,1555,-1039,-579,-327,35,183,-119
14411,5363,0,2023-03-01T18:56:20.473995,1970012,196,843,1555,-1039,-579,-327,35,183,-119
14412,5364,0,2023-03-01T18:56:20.478950,1970016,196,843,1555,-1039,-579,-327,35,183,-119
14413,5365,0,2023-03-01T18:56:20.484184,1970021,196,847,1553,-1030,-574,-319,35,183,-119
14414,5366,0,2023-03-01T18:56:20.490483,1970028,196,847,1553,-1030,-574,-319,35,183,-119
14415,5367,0,2023-03-01T18:56:20.495548,1970033,196,847,1553,-1030,-574,-319,35,183,-119
14416,5368,0,2023-03-01T18:56:20.500527,1970037,199,848,1557,-1034,-576,-313,35,183,-119
14417,5369,0,2023-03-01T18:56:20.506294,1970043,199,848,1557,-1034,-576,-313,35,183,-119
14418,5370,0,2023-03-01T18:56:20.512599,1970050,199,848,1557,-1034,-576,-313,35,183,-119
14419,5371,0,2023-03-01T18:56:20.518217,1970055,199,848,1557,-1034,-576,-313,35,183,-119
14420,5372,0,2023-03-01T18:56:20.523119,1970061,199,849,1555,-1035,-568,-325,34,188,-122
14421,5373,0,2023-03-01T18:56:20.529246,1970066,199,849,1555,-1035,-568,-325,34,188,-122
14422,5374,0,2023-03-01T18:56:20.536128,1970073,199,849,1555,-1035,-568,-325,34,188,-122
14423,5375,0,2023-03-01T18:56:20.541276,1970078,195,843,1553,-1041,-571,-331,34,188,-122
14424,5376,0,2023-03-01T18:56:20.546747,1970084,195,843,1553,-1041,-571,-331,34,188,-122
14425,5377,0,2023-03-01T18:56:20.553174,1970091,195,843,1553,-1041,-571,-331,34,188,-122
14426,5378,0,2023-03-01T18:56:20.558806,1970096,195,843,1553,-1041,-571,-331,34,188,-122
14427,5379,0,2023-03-01T18:56:20.564043,1970102,196,844,1559,-1039,-576,-323,34,188,-122
14428,5380,0,2023-03-01T18:56:20.572040,1970109,196,844,1559,-1039,-576,-323,34,188,-122
14429,5381,0,2023-03-01T18:56:20.577067,1970114,196,844,1559,-1039,-576,-323,34,188,-122
14430,5382,0,2023-03-01T18:56:20.582039,1970119,195,845,1555,-1043,-577,-319,34,188,-122
14431,5383,0,2023-03-01T18:56:20.588413,1970125,195,845,1555,-1043,-577,-319,34,188,-122
14432,5384,0,2023-03-01T18:56:20.595096,1970132,195,845,1555,-1043,-577,-319,34,188,-122
14433,5385,0,2023-03-01T18:56:20.600247,1970138,195,845,1555,-1043,-577,-319,34,188,-122
14434,5386,0,2023-03-01T18:56:20.605011,1970143,196,844,1554,-1034,-576,-318,34,188,-122
14435,5387,0,2023-03-01T18:56:20.610852,1970148,196,844,1554,-1034,-576,-318,34,188,-122
14436,5388,0,2023-03-01T18:56:20.617261,1970154,196,844,1554,-1034,-576,-318,34,188,-122
14437,5389,0,2023-03-01T18:56:20.622388,1970159,194,847,1557,-1029,-573,-321,34,188,-122
14438,5390,0,2023-03-01T18:56:20.627844,1970165,194,847,1557,-1029,-573,-321,34,188,-122
14439,5391,0,2023-03-01T18:56:20.634278,1970171,194,847,1557,-1029,-573,-321,34,188,-122
14440,5392,0,2023-03-01T18:56:20.639326,1970177,194,847,1557,-1029,-573,-321,34,188,-122
14441,5393,0,2023-03-01T18:56:20.644438,1970182,198,848,1551,-1032,-574,-327,34,188,-122
14442,5394,0,2023-03-01T18:56:20.651055,1970188,198,848,1551,-1032,-574,-327,34,188,-122
14443,5395,0,2023-03-01T18:56:20.656644,1970194,198,848,1551,-1032,-574,-327,34,188,-122
14444,5396,0,2023-03-01T18:56:20.662147,1970199,199,847,1557,-1036,-559,-327,44,188,-120
14445,5397,0,2023-03-01T18:56:20.668626,1970205,199,847,1557,-1036,-559,-327,44,188,-120
14446,5398,0,2023-03-01T18:56:20.674039,1970211,199,847,1557,-1036,-559,-327,44,188,-120
14447,5399,0,2023-03-01T18:56:20.679551,1970216,199,847,1557,-1036,-559,-327,44,188,-120
14448,5400,0,2023-03-01T18:56:20.684391,1970222,198,849,1557,-1039,-561,-330,44,188,-120
14449,5401,0,2023-03-01T18:56:20.690140,1970228,198,849,1557,-1039,-561,-330,44,188,-120
14450,5402,0,2023-03-01T18:56:20.695908,1970233,198,849,1557,-1039,-561,-330,44,188,-120
14451,5403,0,2023-03-01T18:56:20.700663,1970238,195,846,1558,-1035,-565,-327,44,188,-120
14452,5404,0,2023-03-01T18:56:20.707103,1970244,195,846,1558,-1035,-565,-327,44,188,-120
14453,5405,0,2023-03-01T18:56:20.713896,1970251,195,846,1558,-1035,-565,-327,44,188,-120
14454,5406,0,2023-03-01T18:56:20.718434,1970256,195,846,1558,-1035,-565,-327,44,188,-120
14455,5407,0,2023-03-01T18:56:20.723238,1970260,196,848,1560,-1033,-567,-325,44,188,-120
14456,5408,0,2023-03-01T18:56:20.728522,1970266,196,848,1560,-1033,-567,-325,44,188,-120
14457,5409,0,2023-03-01T18:56:20.734504,1970272,196,848,1560,-1033,-567,-325,44,188,-120
14458,5410,0,2023-03-01T18:56:20.739750,1970277,196,848,1560,-1033,-567,-325,44,188,-120
14459,5411,0,2023-03-01T18:56:20.745037,1970282,192,847,1553,-1028,-567,-327,44,188,-120
14460,5412,0,2023-03-01T18:56:20.750331,1970287,192,847,1553,-1028,-567,-327,44,188,-120
14461,5413,0,2023-03-01T18:56:20.756043,1970293,192,847,1553,-1028,-567,-327,44,188,-120
14462,5414,0,2023-03-01T18:56:20.761179,1970298,195,846,1558,-1038,-570,-319,44,188,-120
14463,5415,0,2023-03-01T18:56:20.766343,1970304,195,846,1558,-1038,-570,-319,44,188,-120
14464,5416,0,2023-03-01T18:56:20.772639,1970310,195,846,1558,-1038,-570,-319,44,188,-120
14465,5417,0,2023-03-01T18:56:20.777797,1970315,195,846,1558,-1038,-570,-319,44,188,-120
14466,5418,0,2023-03-01T18:56:20.782877,1970320,198,848,1553,-1041,-571,-320,39,185,-123
14467,5419,0,2023-03-01T18:56:20.789731,1970326,198,848,1553,-1041,-571,-320,39,185,-123
14468,5420,0,2023-03-01T18:56:20.796681,1970334,198,848,1553,-1041,-571,-320,39,185,-123
14469,5421,0,2023-03-01T18:56:20.802035,1970339,197,847,1553,-1042,-568,-324,39,185,-123
14470,5422,0,2023-03-01T18:56:20.808127,1970344,197,847,1553,-1042,-568,-324,39,185,-123
14471,5423,0,2023-03-01T18:56:20.814475,1970352,197,847,1553,-1042,-568,-324,39,185,-123
14472,5424,0,2023-03-01T18:56:20.819822,1970357,197,847,1553,-1042,-568,-324,39,185,-123
14473,5425,0,2023-03-01T18:56:20.824725,1970362,195,846,1555,-1036,-572,-331,39,185,-123
14474,5426,0,2023-03-01T18:56:20.829983,1970367,195,846,1555,-1036,-572,-331,39,185,-123
14475,5427,0,2023-03-01T18:56:20.835729,1970373,195,846,1555,-1036,-572,-331,39,185,-123
14476,5428,0,2023-03-01T18:56:20.840950,1970378,195,846,1555,-1036,-572,-331,39,185,-123
14477,5429,0,2023-03-01T18:56:20.846088,1970383,195,847,1554,-1045,-570,-319,39,185,-123
14478,5430,0,2023-03-01T18:56:20.853027,1970391,195,847,1554,-1045,-570,-319,39,185,-123
14479,5431,0,2023-03-01T18:56:20.857919,1970396,195,847,1554,-1045,-570,-319,39,185,-123
14480,5432,0,2023-03-01T18:56:20.863006,1970400,195,847,1553,-1034,-565,-323,39,185,-123
14481,5433,0,2023-03-01T18:56:20.868285,1970405,195,847,1553,-1034,-565,-323,39,185,-123
14482,5434,0,2023-03-01T18:56:20.874495,1970411,195,847,1553,-1034,-565,-323,39,185,-123
14483,5435,0,2023-03-01T18:56:20.880063,1970417,195,847,1553,-1034,-565,-323,39,185,-123
14484,5436,0,2023-03-01T18:56:20.884986,1970422,196,846,1554,-1031,-572,-327,39,185,-123
14485,5437,0,2023-03-01T18:56:20.890886,1970428,196,846,1554,-1031,-572,-327,39,185,-123
14486,5438,0,2023-03-01T18:56:20.897143,1970434,196,846,1554,-1031,-572,-327,39,185,-123
14487,5439,0,2023-03-01T18:56:20.902913,1970440,197,846,1559,-1035,-573,-321,39,185,-123
14488,5440,0,2023-03-01T18:56:20.908788,1970446,197,846,1559,-1035,-573,-321,39,185,-123
14489,5441,0,2023-03-01T18:56:20.915666,1970453,197,846,1559,-1035,-573,-321,39,185,-123
14490,5442,0,2023-03-01T18:56:20.920396,1970458,197,846,1559,-1035,-573,-321,39,185,-123
14491,5443,0,2023-03-01T18:56:20.925324,1970462,198,846,1553,-1037,-573,-320,39,183,-129
14492,5444,0,2023-03-01T18:56:20.931732,1970469,198,846,1553,-1037,-573,-320,39,183,-129
14493,5445,0,2023-03-01T18:56:20.937599,1970475,198,846,1553,-1037,-573,-320,39,183,-129
14494,5446,0,2023-03-01T18:56:20.942717,1970480,198,848,1559,-1043,-570,-321,39,183,-129
14495,5447,0,2023-03-01T18:56:20.948667,1970486,198,848,1559,-1043,-570,-321,39,183,-129
14496,5448,0,2023-03-01T18:56:20.955785,1970493,198,848,1559,-1043,-570,-321,39,183,-129
14497,5449,0,2023-03-01T18:56:20.960650,1970498,198,848,1559,-1043,-570,-321,39,183,-129
14498,5450,0,2023-03-01T18:56:20.965843,1970503,198,846,1554,-1039,-570,-316,39,183,-129
14499,5451,0,2023-03-01T18:56:20.971347,1970508,198,846,1554,-1039,-570,-316,39,183,-129
14500,5452,0,2023-03-01T18:56:20.976824,1970514,198,846,1554,-1039,-570,-316,39,183,-129
14501,5453,0,2023-03-01T18:56:20.982229,1970520,198,845,1555,-1033,-574,-319,39,183,-129
14502,5454,0,2023-03-01T18:56:20.987873,1970525,198,845,1555,-1033,-574,-319,39,183,-129
14503,5455,0,2023-03-01T18:56:20.994428,1970532,198,845,1555,-1033,-574,-319,39,183,-129
14504,5456,0,2023-03-01T18:56:20.999321,1970537,198,845,1555,-1033,-574,-319,39,183,-129
14505,5457,0,2023-03-01T18:56:21.004694,1970542,194,845,1552,-1035,-577,-326,39,183,-129
14506,5458,0,2023-03-01T18:56:21.012244,1970549,194,845,1552,-1035,-577,-326,39,183,-129
14507,5459,0,2023-03-01T18:56:21.017457,1970554,194,845,1552,-1035,-577,-326,39,183,-129
14508,5460,0,2023-03-01T18:56:21.022440,1970560,195,843,1554,-1038,-578,-323,39,183,-129
14509,5461,0,2023-03-01T18:56:21.027915,1970566,195,843,1554,-1038,-578,-323,39,183,-129
14510,5462,0,2023-03-01T18:56:21.034019,1970571,195,843,1554,-1038,-578,-323,39,183,-129
14511,5463,0,2023-03-01T18:56:21.039379,1970577,195,843,1554,-1038,-578,-323,39,183,-129
14512,5464,0,2023-03-01T18:56:21.044398,1970582,197,845,1562,-1042,-581,-319,41,187,-123
14513,5465,0,2023-03-01T18:56:21.050414,1970588,197,845,1562,-1042,-581,-319,41,187,-123
14514,5466,0,2023-03-01T18:56:21.055973,1970593,197,845,1562,-1042,-581,-319,41,187,-123
14515,5467,0,2023-03-01T18:56:21.061318,1970598,197,845,1562,-1042,-581,-319,41,187,-123
14516,5468,0,2023-03-01T18:56:21.066436,1970604,197,850,1554,-1030,-580,-318,41,187,-123
14517,5469,0,2023-03-01T18:56:21.073304,1970611,197,850,1554,-1030,-580,-318,41,187,-123
14518,5470,0,2023-03-01T18:56:21.078138,1970616,197,850,1554,-1030,-580,-318,41,187,-123
14519,5471,0,2023-03-01T18:56:21.083113,1970620,194,847,1553,-1043,-573,-328,41,187,-123
14520,5472,0,2023-03-01T18:56:21.088643,1970626,194,847,1553,-1043,-573,-328,41,187,-123
14521,5473,0,2023-03-01T18:56:21.098483,1970632,194,847,1553,-1043,-573,-328,41,187,-123
14522,5474,0,2023-03-01T18:56:21.104106,1970641,194,846,1554,-1042,-573,-319,41,187,-123
14523,5475,0,2023-03-01T18:56:21.110556,1970648,194,846,1554,-1042,-573,-319,41,187,-123
14524,5476,0,2023-03-01T18:56:21.117995,1970655,194,846,1554,-1042,-573,-319,41,187,-123
14525,5477,0,2023-03-01T18:56:21.124040,1970661,195,845,1551,-1047,-568,-320,41,187,-123
14526,5478,0,2023-03-01T18:56:21.129521,1970667,195,845,1551,-1047,-568,-320,41,187,-123
14527,5479,0,2023-03-01T18:56:21.135489,1970673,195,845,1551,-1047,-568,-320,41,187,-123
14528,5480,0,2023-03-01T18:56:21.140389,1970678,195,845,1551,-1047,-568,-320,41,187,-123
14529,5481,0,2023-03-01T18:56:21.145489,1970682,192,849,1554,-1033,-573,-331,41,187,-123
14530,5482,0,2023-03-01T18:56:21.150402,1970688,192,849,1554,-1033,-573,-331,41,187,-123
14531,5483,0,2023-03-01T18:56:21.156634,1970694,192,849,1554,-1033,-573,-331,41,187,-123
14532,5484,0,2023-03-01T18:56:21.161785,1970699,193,848,1555,-1037,-576,-323,41,187,-123
14533,5485,0,2023-03-01T18:56:21.168058,1970705,193,848,1555,-1037,-576,-323,35,189,-121
14534,5486,0,2023-03-01T18:56:21.174059,1970711,193,848,1555,-1037,-576,-323,35,189,-121
14535,5487,0,2023-03-01T18:56:21.179059,1970716,193,848,1555,-1037,-576,-323,35,189,-121
14536,5488,0,2023-03-01T18:56:21.184222,1970721,198,847,1554,-1051,-578,-318,35,189,-121
14537,5489,0,2023-03-01T18:56:21.190073,1970727,198,847,1554,-1051,-578,-318,35,189,-121
14538,5490,0,2023-03-01T18:56:21.195616,1970734,198,847,1554,-1051,-578,-318,35,189,-121
14539,5491,0,2023-03-01T18:56:21.200208,1970738,198,847,1554,-1051,-578,-318,35,189,-121
14540,5492,0,2023-03-01T18:56:21.206015,1970742,200,848,1555,-1048,-573,-320,35,189,-121
14541,5493,0,2023-03-01T18:56:21.212715,1970750,200,848,1555,-1048,-573,-320,35,189,-121
14542,5494,0,2023-03-01T18:56:21.218228,1970755,200,848,1555,-1048,-573,-320,35,189,-121
14543,5495,0,2023-03-01T18:56:21.223650,1970760,197,847,1565,-1045,-568,-320,35,189,-121
14544,5496,0,2023-03-01T18:56:21.231100,1970768,197,847,1565,-1045,-568,-320,35,189,-121
14545,5497,0,2023-03-01T18:56:21.237572,1970775,197,847,1565,-1045,-568,-320,35,189,-121
14546,5498,0,2023-03-01T18:56:21.242371,1970780,198,845,1560,-1039,-573,-320,35,189,-121
14547,5499,0,2023-03-01T18:56:21.247466,1970785,198,845,1560,-1039,-573,-320,35,189,-121
14548,5500,0,2023-03-01T18:56:21.252879,1970790,198,845,1560,-1039,-573,-320,35,189,-121
14549,5501,0,2023-03-01T18:56:21.258596,1970795,198,845,1560,-1039,-573,-320,35,189,-121
14550,5502,0,2023-03-01T18:56:21.263790,1970801,199,847,1556,-1030,-572,-314,35,189,-121
14551,5503,0,2023-03-01T18:56:21.269800,1970807,199,847,1556,-1030,-572,-314,35,189,-121
14552,5504,0,2023-03-01T18:56:21.274432,1970812,199,847,1556,-1030,-572,-314,35,189,-121
14553,5505,0,2023-03-01T18:56:21.279221,1970817,199,847,1556,-1030,-572,-314,35,189,-121
14554,5506,0,2023-03-01T18:56:21.284077,1970822,197,846,1556,-1032,-576,-316,35,189,-121
14555,5507,0,2023-03-01T18:56:21.289387,1970827,197,846,1556,-1032,-576,-316,35,189,-121
14556,5508,0,2023-03-01T18:56:21.294087,1970832,197,846,1556,-1032,-576,-316,35,189,-121
14557,5509,0,2023-03-01T18:56:21.299317,1970836,197,846,1556,-1032,-576,-316,35,189,-121
14558,5510,0,2023-03-01T18:56:21.303908,1970841,197,847,1551,-1038,-582,-318,35,183,-125
14559,5511,0,2023-03-01T18:56:21.309923,1970847,197,847,1551,-1038,-582,-318,35,183,-125
14560,5512,0,2023-03-01T18:56:21.315467,1970852,197,847,1551,-1038,-582,-318,35,183,-125
14561,5513,0,2023-03-01T18:56:21.320586,1970857,197,847,1551,-1038,-582,-318,35,183,-125
14562,5514,0,2023-03-01T18:56:21.325407,1970863,199,849,1555,-1035,-572,-316,35,183,-125
14563,5515,0,2023-03-01T18:56:21.331580,1970869,199,849,1555,-1035,-572,-316,35,183,-125
14564,5516,0,2023-03-01T18:56:21.337568,1970875,199,849,1555,-1035,-572,-316,35,183,-125
14565,5517,0,2023-03-01T18:56:21.342861,1970880,197,847,1555,-1034,-579,-320,35,183,-125
14566,5518,0,2023-03-01T18:56:21.348375,1970886,197,847,1555,-1034,-579,-320,35,183,-125
14567,5519,0,2023-03-01T18:56:21.352915,1970890,197,847,1555,-1034,-579,-320,35,183,-125
14568,5520,0,2023-03-01T18:56:21.357966,1970895,197,847,1555,-1034,-579,-320,35,183,-125
14569,5521,0,2023-03-01T18:56:21.363227,1970900,198,848,1551,-1042,-569,-322,35,183,-125
14570,5522,0,2023-03-01T18:56:21.369241,1970907,198,848,1551,-1042,-569,-322,35,183,-125
14571,5523,0,2023-03-01T18:56:21.375449,1970913,198,848,1551,-1042,-569,-322,35,183,-125
14572,5524,0,2023-03-01T18:56:21.380000,1970918,198,848,1551,-1042,-569,-322,35,183,-125
14573,5525,0,2023-03-01T18:56:21.384524,1970922,195,846,1550,-1048,-573,-325,35,183,-125
14574,5526,0,2023-03-01T18:56:21.390900,1970928,195,846,1550,-1048,-573,-325,35,183,-125
14575,5527,0,2023-03-01T18:56:21.396331,1970933,195,846,1550,-1048,-573,-325,35,183,-125
14576,5528,0,2023-03-01T18:56:21.401838,1970939,197,847,1554,-1036,-572,-323,35,183,-125
14577,5529,0,2023-03-01T18:56:21.407307,1970945,197,847,1554,-1036,-572,-323,35,183,-125
14578,5530,0,2023-03-01T18:56:21.414382,1970951,197,847,1554,-1036,-572,-323,35,183,-125
14579,5531,0,2023-03-01T18:56:21.419399,1970957,197,847,1554,-1036,-572,-323,35,183,-125
14580,5532,0,2023-03-01T18:56:21.425311,1970962,195,844,1558,-1034,-569,-322,33,179,-123
14581,5533,0,2023-03-01T18:56:21.431384,1970969,195,844,1558,-1034,-569,-322,33,179,-123
14582,5534,0,2023-03-01T18:56:21.436714,1970974,195,844,1558,-1034,-569,-322,33,179,-123
14583,5535,0,2023-03-01T18:56:21.441921,1970978,195,844,1558,-1034,-569,-322,33,179,-123
14584,5536,0,2023-03-01T18:56:21.447440,1970984,194,847,1553,-1032,-566,-325,33,179,-123
14585,5537,0,2023-03-01T18:56:21.454192,1970992,194,847,1553,-1032,-566,-325,33,179,-123
14586,5538,0,2023-03-01T18:56:21.459378,1970997,194,847,1553,-1032,-566,-325,33,179,-123
14587,5539,0,2023-03-01T18:56:21.464360,1971002,195,845,1552,-1030,-568,-316,33,179,-123
14588,5540,0,2023-03-01T18:56:21.471745,1971008,195,845,1552,-1030,-568,-316,33,179,-123
14589,5541,0,2023-03-01T18:56:21.477242,1971014,195,845,1552,-1030,-568,-316,33,179,-123
14590,5542,0,2023-03-01T18:56:21.482314,1971019,196,847,1550,-1039,-572,-324,33,179,-123
14591,5543,0,2023-03-01T18:56:21.488162,1971025,196,847,1550,-1039,-572,-324,33,179,-123
14592,5544,0,2023-03-01T18:56:21.494494,1971032,196,847,1550,-1039,-572,-324,33,179,-123
14593,5545,0,2023-03-01T18:56:21.499359,1971037,196,847,1550,-1039,-572,-324,33,179,-123
14594,5546,0,2023-03-01T18:56:21.504855,1971042,195,847,1551,-1042,-568,-322,33,179,-123
14595,5547,0,2023-03-01T18:56:21.510747,1971048,195,847,1551,-1042,-568,-322,33,179,-123
14596,5548,0,2023-03-01T18:56:21.516382,1971054,195,847,1551,-1042,-568,-322,33,179,-123
14597,5549,0,2023-03-01T18:56:21.521452,1971059,195,847,1551,-1042,-568,-322,33,179,-123
14598,5550,0,2023-03-01T18:56:21.526426,1971063,195,847,1552,-1034,-559,-316,33,179,-123
14599,5551,0,2023-03-01T18:56:21.533201,1971070,195,847,1552,-1034,-559,-316,33,179,-123
14600,5552,0,2023-03-01T18:56:21.538857,1971076,195,847,1552,-1034,-559,-316,33,179,-123
14601,5553,0,2023-03-01T18:56:21.544489,1971082,193,844,1557,-1039,-572,-322,33,179,-123
14602,5554,0,2023-03-01T18:56:21.550367,1971088,193,844,1557,-1039,-572,-322,33,179,-123
14603,5555,0,2023-03-01T18:56:21.557690,1971095,193,844,1557,-1039,-572,-322,33,179,-123
14604,5556,0,2023-03-01T18:56:21.563170,1971100,194,847,1555,-1032,-580,-325,36,188,-132
14605,5557,0,2023-03-01T18:56:21.569175,1971106,194,847,1555,-1032,-580,-325,36,188,-132
14606,5558,0,2023-03-01T18:56:21.575412,1971112,194,847,1555,-1032,-580,-325,36,188,-132
14607,5559,0,2023-03-01T18:56:21.580243,1971118,194,847,1555,-1032,-580,-325,36,188,-132
14608,5560,0,2023-03-01T18:56:21.585295,1971123,196,848,1554,-1033,-582,-322,36,188,-132
14609,5561,0,2023-03-01T18:56:21.591816,1971129,196,848,1554,-1033,-582,-322,36,188,-132
14610,5562,0,2023-03-01T18:56:21.597643,1971135,196,848,1554,-1033,-582,-322,36,188,-132
14611,5563,0,2023-03-01T18:56:21.602246,1971140,198,847,1553,-1036,-571,-326,36,188,-132
14612,5564,0,2023-03-01T18:56:21.607799,1971145,198,847,1553,-1036,-571,-326,36,188,-132
14613,5565,0,2023-03-01T18:56:21.613680,1971151,198,847,1553,-1036,-571,-326,36,188,-132
14614,5566,0,2023-03-01T18:56:21.618371,1971155,198,847,1553,-1036,-571,-326,36,188,-132
14615,5567,0,2023-03-01T18:56:21.623678,1971161,196,848,1555,-1030,-572,-319,36,188,-132
14616,5568,0,2023-03-01T18:56:21.629116,1971167,196,848,1555,-1030,-572,-319,36,188,-132
14617,5569,0,2023-03-01T18:56:21.634474,1971172,196,848,1555,-1030,-572,-319,36,188,-132
14618,5570,0,2023-03-01T18:56:21.639662,1971177,196,848,1555,-1030,-572,-319,36,188,-132
14619,5571,0,2023-03-01T18:56:21.644796,1971182,197,845,1554,-1027,-574,-322,36,188,-132
14620,5572,0,2023-03-01T18:56:21.650984,1971188,197,845,1554,-1027,-574,-322,36,188,-132
14621,5573,0,2023-03-01T18:56:21.656557,1971194,197,845,1554,-1027,-574,-322,36,188,-132
14622,5574,0,2023-03-01T18:56:21.662326,1971198,197,845,1554,-1027,-574,-322,36,188,-132
14623,5575,0,2023-03-01T18:56:21.668042,1971205,197,845,1557,-1026,-573,-324,36,188,-132
14624,5576,0,2023-03-01T18:56:21.674512,1971212,197,845,1557,-1026,-573,-324,36,188,-132
14625,5577,0,2023-03-01T18:56:21.679528,1971217,197,845,1557,-1026,-573,-324,36,188,-132
14626,5578,0,2023-03-01T18:56:21.684521,1971222,198,846,1557,-1042,-570,-321,32,188,-126
14627,5579,0,2023-03-01T18:56:21.689710,1971227,198,846,1557,-1042,-570,-321,32,188,-126
14628,5580,0,2023-03-01T18:56:21.694682,1971232,198,846,1557,-1042,-570,-321,32,188,-126
14629,5581,0,2023-03-01T18:56:21.700372,1971237,198,846,1557,-1042,-570,-321,32,188,-126
14630,5582,0,2023-03-01T18:56:21.705167,1971243,195,845,1554,-1040,-573,-323,32,188,-126
14631,5583,0,2023-03-01T18:56:21.710964,1971249,195,845,1554,-1040,-573,-323,32,188,-126
14632,5584,0,2023-03-01T18:56:21.716543,1971254,195,845,1554,-1040,-573,-323,32,188,-126
14633,5585,0,2023-03-01T18:56:21.721227,1971259,195,845,1554,-1040,-573,-323,32,188,-126
14634,5586,0,2023-03-01T18:56:21.725873,1971263,198,848,1556,-1034,-563,-327,32,188,-126
14635,5587,0,2023-03-01T18:56:21.731935,1971269,198,848,1556,-1034,-563,-327,32,188,-126
14636,5588,0,2023-03-01T18:56:21.737891,1971275,198,848,1556,-1034,-563,-327,32,188,-126
14637,5589,0,2023-03-01T18:56:21.742617,1971280,195,846,1553,-1031,-562,-336,32,188,-126
14638,5590,0,2023-03-01T18:56:21.747963,1971286,195,846,1553,-1031,-562,-336,32,188,-126
14639,5591,0,2023-03-01T18:56:21.753907,1971291,195,846,1553,-1031,-562,-336,32,188,-126
14640,5592,0,2023-03-01T18:56:21.758896,1971297,195,846,1553,-1031,-562,-336,32,188,-126
14641,5593,0,2023-03-01T18:56:21.763671,1971301,198,847,1553,-1037,-571,-328,32,188,-126
14642,5594,0,2023-03-01T18:56:21.768892,1971306,198,847,1553,-1037,-571,-328,32,188,-126
14643,5595,0,2023-03-01T18:56:21.775294,1971312,198,847,1553,-1037,-571,-328,32,188,-126
14644,5596,0,2023-03-01T18:56:21.780060,1971317,198,847,1553,-1037,-571,-328,32,188,-126
14645,5597,0,2023-03-01T18:56:21.785157,1971322,197,844,1552,-1043,-571,-323,32,188,-126
14646,5598,0,2023-03-01T18:56:21.791655,1971330,197,844,1552,-1043,-571,-323,32,188,-126
14647,5599,0,2023-03-01T18:56:21.797506,1971335,197,844,1552,-1043,-571,-323,32,188,-126
14648,5600,0,2023-03-01T18:56:21.802634,1971340,195,847,1556,-1038,-573,-328,32,188,-126
14649,5601,0,2023-03-01T18:56:21.808328,1971345,195,847,1556,-1038,-573,-328,32,188,-126
14650,5602,0,2023-03-01T18:56:21.814974,1971352,195,847,1556,-1038,-573,-328,32,188,-126
14651,5603,0,2023-03-01T18:56:21.819646,1971357,195,847,1556,-1038,-573,-328,32,188,-126
14652,5604,0,2023-03-01T18:56:21.824462,1971362,198,848,1561,-1039,-574,-330,28,192,-120
14653,5605,0,2023-03-01T18:56:21.830829,1971367,198,848,1561,-1039,-574,-330,28,192,-120
14654,5606,0,2023-03-01T18:56:21.836440,1971374,198,848,1561,-1039,-574,-330,28,192,-120
14655,5607,0,2023-03-01T18:56:21.841854,1971379,198,848,1561,-1039,-574,-330,28,192,-120
14656,5608,0,2023-03-01T18:56:21.846661,1971384,196,847,1558,-1031,-572,-322,28,192,-120
14657,5609,0,2023-03-01T18:56:21.853399,1971391,196,847,1558,-1031,-572,-322,28,192,-120
14658,5610,0,2023-03-01T18:56:21.858705,1971396,196,847,1558,-1031,-572,-322,28,192,-120
14659,5611,0,2023-03-01T18:56:21.863894,1971401,193,847,1553,-1038,-575,-321,28,192,-120
14660,5612,0,2023-03-01T18:56:21.869730,1971407,193,847,1553,-1038,-575,-321,28,192,-120
14661,5613,0,2023-03-01T18:56:21.876050,1971414,193,847,1553,-1038,-575,-321,28,192,-120
14662,5614,0,2023-03-01T18:56:21.881291,1971419,193,847,1553,-1038,-575,-321,28,192,-120
14663,5615,0,2023-03-01T18:56:21.887867,1971425,199,846,1555,-1041,-578,-321,28,192,-120
14664,5616,0,2023-03-01T18:56:21.894871,1971431,199,846,1555,-1041,-578,-321,28,192,-120
14665,5617,0,2023-03-01T18:56:21.900069,1971437,199,846,1555,-1041,-578,-321,28,192,-120
14666,5618,0,2023-03-01T18:56:21.905122,1971442,195,846,1553,-1044,-579,-321,28,192,-120
14667,5619,0,2023-03-01T18:56:21.911023,1971448,195,846,1553,-1044,-579,-321,28,192,-120
14668,5620,0,2023-03-01T18:56:21.916489,1971453,195,846,1553,-1044,-579,-321,28,192,-120
14669,5621,0,2023-03-01T18:56:21.921959,1971460,195,846,1553,-1044,-579,-321,28,192,-120
14670,5622,0,2023-03-01T18:56:21.927735,1971465,194,848,1549,-1039,-577,-323,28,192,-120
14671,5623,0,2023-03-01T18:56:21.934552,1971472,194,848,1549,-1039,-577,-323,28,192,-120
14672,5624,0,2023-03-01T18:56:21.939312,1971477,194,848,1549,-1039,-577,-323,28,192,-120
14673,5625,0,2023-03-01T18:56:21.944351,1971481,190,847,1560,-1038,-564,-317,38,182,-120
14674,5626,0,2023-03-01T18:56:21.950797,1971487,190,847,1560,-1038,-564,-317,38,182,-120
14675,5627,0,2023-03-01T18:56:21.957065,1971494,190,847,1560,-1038,-564,-317,38,182,-120
14676,5628,0,2023-03-01T18:56:21.962260,1971500,190,847,1560,-1038,-564,-317,38,182,-120
14677,5629,0,2023-03-01T18:56:21.967314,1971505,193,842,1554,-1038,-566,-328,38,182,-120
14678,5630,0,2023-03-01T18:56:21.973862,1971511,193,842,1554,-1038,-566,-328,38,182,-120
14679,5631,0,2023-03-01T18:56:21.979326,1971517,193,842,1554,-1038,-566,-328,38,182,-120
14680,5632,0,2023-03-01T18:56:21.984398,1971522,193,849,1559,-1038,-570,-329,38,182,-120
14681,5633,0,2023-03-01T18:56:21.992014,1971528,193,849,1559,-1038,-570,-329,38,182,-120
14682,5634,0,2023-03-01T18:56:21.998334,1971535,193,849,1559,-1038,-570,-329,38,182,-120
14683,5635,0,2023-03-01T18:56:22.003735,1971540,197,844,1556,-1045,-580,-326,38,182,-120
14684,5636,0,2023-03-01T18:56:22.009597,1971547,197,844,1556,-1045,-580,-326,38,182,-120
14685,5637,0,2023-03-01T18:56:22.016603,1971554,197,844,1556,-1045,-580,-326,38,182,-120
14686,5638,0,2023-03-01T18:56:22.022073,1971559,197,844,1556,-1045,-580,-326,38,182,-120
14687,5639,0,2023-03-01T18:56:22.027332,1971565,195,847,1555,-1039,-568,-318,38,182,-120
14688,5640,0,2023-03-01T18:56:22.034242,1971571,195,847,1555,-1039,-568,-318,38,182,-120
14689,5641,0,2023-03-01T18:56:22.039687,1971577,195,847,1555,-1039,-568,-318,38,182,-120
14690,5642,0,2023-03-01T18:56:22.044726,1971582,194,844,1553,-1035,-567,-319,38,182,-120
14691,5643,0,2023-03-01T18:56:22.050555,1971588,194,844,1553,-1035,-567,-319,38,182,-120
14692,5644,0,2023-03-01T18:56:22.056486,1971594,194,844,1553,-1035,-567,-319,38,182,-120
14693,5645,0,2023-03-01T18:56:22.062933,1971599,194,844,1553,-1035,-567,-319,38,182,-120
14694,5646,0,2023-03-01T18:56:22.068183,1971605,196,845,1549,-1037,-571,-332,34,186,-124
14695,5647,0,2023-03-01T18:56:22.075356,1971613,196,845,1549,-1037,-571,-332,34,186,-124
14696,5648,0,2023-03-01T18:56:22.080272,1971617,196,845,1549,-1037,-571,-332,34,186,-124
14697,5649,0,2023-03-01T18:56:22.085094,1971622,195,845,1556,-1033,-571,-328,34,186,-124
14698,5650,0,2023-03-01T18:56:22.091956,1971629,195,845,1556,-1033,-571,-328,34,186,-124
14699,5651,0,2023-03-01T18:56:22.097917,1971635,195,845,1556,-1033,-571,-328,34,186,-124
14700,5652,0,2023-03-01T18:56:22.103005,1971640,194,846,1556,-1040,-578,-323,34,186,-124
14701,5653,0,2023-03-01T18:56:22.108846,1971646,194,846,1556,-1040,-578,-323,34,186,-124
14702,5654,0,2023-03-01T18:56:22.113741,1971651,194,846,1556,-1040,-578,-323,34,186,-124
14703,5655,0,2023-03-01T18:56:22.118597,1971656,194,846,1556,-1040,-578,-323,34,186,-124
14704,5656,0,2023-03-01T18:56:22.123531,1971661,194,845,1556,-1027,-570,-321,34,186,-124
14705,5657,0,2023-03-01T18:56:22.129717,1971667,194,845,1556,-1027,-570,-321,34,186,-124
14706,5658,0,2023-03-01T18:56:22.135490,1971673,194,845,1556,-1027,-570,-321,34,186,-124
14707,5659,0,2023-03-01T18:56:22.140648,1971678,194,845,1556,-1027,-570,-321,34,186,-124
14708,5660,0,2023-03-01T18:56:22.145703,1971683,199,847,1557,-1033,-565,-319,34,186,-124
14709,5661,0,2023-03-01T18:56:22.152058,1971690,199,847,1557,-1033,-565,-319,34,186,-124
14710,5662,0,2023-03-01T18:56:22.157348,1971694,199,847,1557,-1033,-565,-319,34,186,-124
14711,5663,0,2023-03-01T18:56:22.162975,1971700,196,849,1553,-1038,-576,-320,34,186,-124
14712,5664,0,2023-03-01T18:56:22.169295,1971706,196,849,1553,-1038,-576,-320,34,186,-124
14713,5665,0,2023-03-01T18:56:22.175675,1971713,196,849,1553,-1038,-576,-320,34,186,-124
14714,5666,0,2023-03-01T18:56:22.180842,1971719,196,849,1553,-1038,-576,-320,34,186,-124
14715,5667,0,2023-03-01T18:56:22.185955,1971724,196,846,1554,-1033,-576,-321,34,186,-124
14716,5668,0,2023-03-01T18:56:22.192910,1971730,196,846,1554,-1033,-576,-321,34,186,-124
14717,5669,0,2023-03-01T18:56:22.198284,1971735,196,846,1554,-1033,-576,-321,34,186,-124
14718,5670,0,2023-03-01T18:56:22.203602,1971740,198,845,1552,-1034,-570,-325,31,189,-127
14719,5671,0,2023-03-01T18:56:22.210098,1971746,198,845,1552,-1034,-570,-325,31,189,-127
14720,5672,0,2023-03-01T18:56:22.218559,1971756,198,845,1552,-1034,-570,-325,31,189,-127
14721,5673,0,2023-03-01T18:56:22.223799,1971761,196,845,1550,-1036,-577,-321,31,189,-127
14722,5674,0,2023-03-01T18:56:22.230488,1971768,196,845,1550,-1036,-577,-321,31,189,-127
14723,5675,0,2023-03-01T18:56:22.237128,1971774,196,845,1550,-1036,-577,-321,31,189,-127
14724,5676,0,2023-03-01T18:56:22.242353,1971780,196,845,1550,-1036,-577,-321,31,189,-127
14725,5677,0,2023-03-01T18:56:22.247367,1971784,198,846,1558,-1031,-577,-324,31,189,-127
14726,5678,0,2023-03-01T18:56:22.253943,1971790,198,846,1558,-1031,-577,-324,31,189,-127
14727,5679,0,2023-03-01T18:56:22.259328,1971796,198,846,1558,-1031,-577,-324,31,189,-127
14728,5680,0,2023-03-01T18:56:22.264777,1971802,197,846,1545,-1035,-571,-328,31,189,-127
14729,5681,0,2023-03-01T18:56:22.270253,1971808,197,846,1545,-1035,-571,-328,31,189,-127
14730,5682,0,2023-03-01T18:56:22.276451,1971814,197,846,1545,-1035,-571,-328,31,189,-127
14731,5683,0,2023-03-01T18:56:22.281192,1971819,197,846,1545,-1035,-571,-328,31,189,-127
14732,5684,0,2023-03-01T18:56:22.286079,1971823,194,843,1550,-1037,-576,-321,31,189,-127
14733,5685,0,2023-03-01T18:56:22.291561,1971829,194,843,1550,-1037,-576,-321,31,189,-127
14734,5686,0,2023-03-01T18:56:22.297119,1971834,194,843,1550,-1037,-576,-321,31,189,-127
14735,5687,0,2023-03-01T18:56:22.301969,1971840,194,843,1550,-1037,-576,-321,31,189,-127
14736,5688,0,2023-03-01T18:56:22.307815,1971845,196,846,1550,-1035,-578,-322,31,189,-127
14737,5689,0,2023-03-01T18:56:22.314136,1971852,196,846,1550,-1035,-578,-322,31,189,-127
14738,5690,0,2023-03-01T18:56:22.319851,1971856,196,846,1550,-1035,-578,-322,31,189,-127
14739,5691,0,2023-03-01T18:56:22.326065,1971863,196,846,1554,-1034,-575,-323,32,188,-126
14740,5692,0,2023-03-01T18:56:22.332448,1971870,196,846,1554,-1034,-575,-323,32,188,-126
14741,5693,0,2023-03-01T18:56:22.338041,1971875,196,846,1554,-1034,-575,-323,32,188,-126
14742,5694,0,2023-03-01T18:56:22.343012,1971880,197,846,1562,-1038,-574,-316,32,188,-126
14743,5695,0,2023-03-01T18:56:22.349016,1971886,197,846,1562,-1038,-574,-316,32,188,-126
14744,5696,0,2023-03-01T18:56:22.354935,1971893,197,846,1562,-1038,-574,-316,32,188,-126
14745,5697,0,2023-03-01T18:56:22.359892,1971897,197,846,1562,-1038,-574,-316,32,188,-126
14746,5698,0,2023-03-01T18:56:22.364832,1971902,196,847,1557,-1037,-573,-317,32,188,-126
14747,5699,0,2023-03-01T18:56:22.371289,1971909,196,847,1557,-1037,-573,-317,32,188,-126
14748,5700,0,2023-03-01T18:56:22.376708,1971914,196,847,1557,-1037,-573,-317,32,188,-126
14749,5701,0,2023-03-01T18:56:22.381748,1971919,196,847,1557,-1037,-573,-317,32,188,-126
14750,5702,0,2023-03-01T18:56:22.386411,1971924,199,848,1553,-1026,-571,-324,32,188,-126
14751,5703,0,2023-03-01T18:56:22.392242,1971930,199,848,1553,-1026,-571,-324,32,188,-126
14752,5704,0,2023-03-01T18:56:22.397456,1971935,199,848,1553,-1026,-571,-324,32,188,-126
14753,5705,0,2023-03-01T18:56:22.402642,1971940,199,848,1553,-1026,-571,-324,32,188,-126
14754,5706,0,2023-03-01T18:56:22.407395,1971945,200,845,1556,-1034,-569,-324,32,188,-126
14755,5707,0,2023-03-01T18:56:22.413904,1971951,200,845,1556,-1034,-569,-324,32,188,-126
14756,5708,0,2023-03-01T18:56:22.418804,1971956,200,845,1556,-1034,-569,-324,32,188,-126
14757,5709,0,2023-03-01T18:56:22.423918,1971961,200,845,1556,-1034,-569,-324,32,188,-126
14758,5710,0,2023-03-01T18:56:22.429234,1971966,200,845,1556,-1034,-569,-324,32,188,-126
14759,5711,0,2023-03-01T18:56:22.435790,1971973,200,845,1556,-1034,-569,-324,32,188,-126
14760,5712,0,2023-03-01T18:56:22.440513,1971978,200,845,1556,-1034,-569,-324,32,188,-126
14761,5713,0,2023-03-01T18:56:22.446288,1971983,192,850,1557,-1040,-571,-325,32,188,-126
14762,5714,0,2023-03-01T18:56:22.453150,1971990,192,850,1557,-1040,-571,-325,32,188,-126
14763,5715,0,2023-03-01T18:56:22.459118,1971996,192,850,1557,-1040,-571,-325,32,188,-126
14764,5716,0,2023-03-01T18:56:22.464288,1972001,197,846,1552,-1040,-568,-321,36,200,-126
14765,5717,0,2023-03-01T18:56:22.469750,1972007,197,846,1552,-1040,-568,-321,36,200,-126
14766,5718,0,2023-03-01T18:56:22.476242,1972014,197,846,1552,-1040,-568,-321,36,200,-126
14767,5719,0,2023-03-01T18:56:22.481437,1972019,197,846,1552,-1040,-568,-321,36,200,-126
14768,5720,0,2023-03-01T18:56:22.487319,1972024,193,849,1551,-1039,-572,-317,36,200,-126
14769,5721,0,2023-03-01T18:56:22.494201,1972032,193,849,1551,-1039,-572,-317,36,200,-126
14770,5722,0,2023-03-01T18:56:22.499092,1972036,193,849,1551,-1039,-572,-317,36,200,-126
14771,5723,0,2023-03-01T18:56:22.504394,1972042,193,849,1551,-1039,-572,-317,36,200,-126
14772,5724,0,2023-03-01T18:56:22.511026,1972047,193,849,1551,-1039,-572,-317,36,200,-126
14773,5725,0,2023-03-01T18:56:22.517149,1972055,193,849,1551,-1039,-572,-317,36,200,-126
14774,5726,0,2023-03-01T18:56:22.522820,1972060,193,849,1551,-1039,-572,-317,36,200,-126
14775,5727,0,2023-03-01T18:56:22.528034,1972065,197,843,1553,-1037,-579,-323,36,200,-126
14776,5728,0,2023-03-01T18:56:22.534825,1972072,197,843,1553,-1037,-579,-323,36,200,-126
14777,5729,0,2023-03-01T18:56:22.539718,1972077,197,843,1553,-1037,-579,-323,36,200,-126
14778,5730,0,2023-03-01T18:56:22.544943,1972082,195,846,1553,-1031,-576,-318,36,200,-126
14779,5731,0,2023-03-01T18:56:22.551026,1972088,195,846,1553,-1031,-576,-318,36,200,-126
14780,5732,0,2023-03-01T18:56:22.556864,1972094,195,846,1553,-1031,-576,-318,36,200,-126
14781,5733,0,2023-03-01T18:56:22.562350,1972100,195,846,1553,-1031,-576,-318,36,200,-126
14782,5734,0,2023-03-01T18:56:22.567683,1972105,194,847,1545,-1033,-575,-319,36,200,-126
14783,5735,0,2023-03-01T18:56:22.574421,1972112,194,847,1545,-1033,-575,-319,36,200,-126
14784,5736,0,2023-03-01T18:56:22.579575,1972117,194,847,1545,-1033,-575,-319,36,200,-126
14785,5737,0,2023-03-01T18:56:22.584943,1972122,200,847,1557,-1034,-577,-321,40,188,-124
14786,5738,0,2023-03-01T18:56:22.590465,1972128,200,847,1557,-1034,-577,-321,40,188,-124
14787,5739,0,2023-03-01T18:56:22.596676,1972134,200,847,1557,-1034,-577,-321,40,188,-124
14788,5740,0,2023-03-01T18:56:22.601943,1972140,200,847,1557,-1034,-577,-321,40,188,-124
14789,5741,0,2023-03-01T18:56:22.607600,1972145,197,847,1555,-1036,-574,-326,40,188,-124
14790,5742,0,2023-03-01T18:56:22.613946,1972151,197,847,1555,-1036,-574,-326,40,188,-124
14791,5743,0,2023-03-01T18:56:22.619253,1972157,197,847,1555,-1036,-574,-326,40,188,-124
14792,5744,0,2023-03-01T18:56:22.624593,1972162,195,842,1551,-1037,-570,-321,40,188,-124
14793,5745,0,2023-03-01T18:56:22.630207,1972168,195,842,1551,-1037,-570,-321,40,188,-124
14794,5746,0,2023-03-01T18:56:22.636575,1972174,195,842,1551,-1037,-570,-321,40,188,-124
14795,5747,0,2023-03-01T18:56:22.641596,1972179,195,842,1551,-1037,-570,-321,40,188,-124
14796,5748,0,2023-03-01T18:56:22.647804,1972185,198,843,1556,-1030,-570,-326,40,188,-124
14797,5749,0,2023-03-01T18:56:22.655515,1972193,198,843,1556,-1030,-570,-326,40,188,-124
14798,5750,0,2023-03-01T18:56:22.660458,1972198,198,843,1556,-1030,-570,-326,40,188,-124
14799,5751,0,2023-03-01T18:56:22.665366,1972203,194,846,1552,-1036,-575,-323,40,188,-124
14800,5752,0,2023-03-01T18:56:22.671602,1972209,194,846,1552,-1036,-575,-323,40,188,-124
14801,5753,0,2023-03-01T18:56:22.677108,1972214,194,846,1552,-1036,-575,-323,40,188,-124
14802,5754,0,2023-03-01T18:56:22.682253,1972219,194,846,1552,-1036,-575,-323,40,188,-124
14803,5755,0,2023-03-01T18:56:22.687522,1972226,199,844,1550,-1040,-572,-325,40,188,-124
14804,5756,0,2023-03-01T18:56:22.693869,1972232,199,844,1550,-1040,-572,-325,40,188,-124
14805,5757,0,2023-03-01T18:56:22.698449,1972236,199,844,1550,-1040,-572,-325,40,188,-124
14806,5758,0,2023-03-01T18:56:22.703253,1972241,199,844,1550,-1040,-572,-325,40,188,-124
14807,5759,0,2023-03-01T18:56:22.708317,1972245,199,844,1550,-1040,-572,-325,40,188,-124
14808,5760,0,2023-03-01T18:56:22.714380,1972251,199,844,1550,-1040,-572,-325,40,188,-124
14809,5761,0,2023-03-01T18:56:22.720197,1972257,199,844,1550,-1040,-572,-325,40,188,-124
14810,5762,0,2023-03-01T18:56:22.725201,1972262,196,846,1555,-1035,-568,-324,40,186,-128
14811,5763,0,2023-03-01T18:56:22.732010,1972269,196,846,1555,-1035,-568,-324,40,186,-128
14812,5764,0,2023-03-01T18:56:22.738247,1972276,196,846,1555,-1035,-568,-324,40,186,-128
14813,5765,0,2023-03-01T18:56:22.743477,1972281,195,845,1557,-1032,-570,-322,40,186,-128
14814,5766,0,2023-03-01T18:56:22.748804,1972287,195,845,1557,-1032,-570,-322,40,186,-128
14815,5767,0,2023-03-01T18:56:22.754899,1972292,195,845,1557,-1032,-570,-322,40,186,-128
14816,5768,0,2023-03-01T18:56:22.760152,1972297,195,845,1557,-1032,-570,-322,40,186,-128
14817,5769,0,2023-03-01T18:56:22.765579,1972303,196,847,1551,-1035,-577,-321,40,186,-128
14818,5770,0,2023-03-01T18:56:22.770832,1972308,196,847,1551,-1035,-577,-321,40,186,-128
14819,5771,0,2023-03-01T18:56:22.776656,1972314,196,847,1551,-1035,-577,-321,40,186,-128
14820,5772,0,2023-03-01T18:56:22.782016,1972319,196,847,1551,-1035,-577,-321,40,186,-128
14821,5773,0,2023-03-01T18:56:22.786661,1972324,197,844,1557,-1038,-571,-318,40,186,-128
14822,5774,0,2023-03-01T18:56:22.793822,1972331,197,844,1557,-1038,-571,-318,40,186,-128
14823,5775,0,2023-03-01T18:56:22.798633,1972336,197,844,1557,-1038,-571,-318,40,186,-128
14824,5776,0,2023-03-01T18:56:22.803412,1972341,197,846,1557,-1029,-568,-324,40,186,-128
14825,5777,0,2023-03-01T18:56:22.808857,1972346,197,846,1557,-1029,-568,-324,40,186,-128
14826,5778,0,2023-03-01T18:56:22.814519,1972352,197,846,1557,-1029,-568,-324,40,186,-128
14827,5779,0,2023-03-01T18:56:22.819569,1972357,197,846,1557,-1029,-568,-324,40,186,-128
14828,5780,0,2023-03-01T18:56:22.824365,1972362,196,844,1549,-1036,-571,-330,40,186,-128
14829,5781,0,2023-03-01T18:56:22.829701,1972368,196,844,1549,-1036,-571,-330,40,186,-128
14830,5782,0,2023-03-01T18:56:22.835799,1972373,196,844,1549,-1036,-571,-330,40,186,-128
14831,5783,0,2023-03-01T18:56:22.840739,1972378,196,844,1549,-1036,-571,-330,40,186,-128
14832,5784,0,2023-03-01T18:56:22.845953,1972383,193,847,1552,-1031,-571,-325,39,185,-121
14833,5785,0,2023-03-01T18:56:22.853237,1972390,193,847,1552,-1031,-571,-325,39,185,-121
14834,5786,0,2023-03-01T18:56:22.858439,1972397,193,847,1552,-1031,-571,-325,39,185,-121
14835,5787,0,2023-03-01T18:56:22.864122,1972401,195,849,1553,-1022,-570,-326,39,185,-121
14836,5788,0,2023-03-01T18:56:22.870957,1972408,195,849,1553,-1022,-570,-326,39,185,-121
14837,5789,0,2023-03-01T18:56:22.877252,1972414,195,849,1553,-1022,-570,-326,39,185,-121
14838,5790,0,2023-03-01T18:56:22.882480,1972420,195,849,1553,-1022,-570,-326,39,185,-121
14839,5791,0,2023-03-01T18:56:22.887514,1972425,197,849,1557,-1030,-569,-324,39,185,-121
14840,5792,0,2023-03-01T18:56:22.892240,1972429,197,849,1557,-1030,-569,-324,39,185,-121
14841,5793,0,2023-03-01T18:56:22.897129,1972434,197,849,1557,-1030,-569,-324,39,185,-121
14842,5794,0,2023-03-01T18:56:22.902272,1972440,197,849,1557,-1030,-569,-324,39,185,-121
14843,5795,0,2023-03-01T18:56:22.907396,1972445,193,845,1557,-1041,-568,-325,39,185,-121
14844,5796,0,2023-03-01T18:56:22.913931,1972451,193,845,1557,-1041,-568,-325,39,185,-121
14845,5797,0,2023-03-01T18:56:22.918810,1972456,193,845,1557,-1041,-568,-325,39,185,-121
14846,5798,0,2023-03-01T18:56:22.923734,1972461,196,846,1547,-1046,-570,-323,39,185,-121
14847,5799,0,2023-03-01T18:56:22.929850,1972467,196,846,1547,-1046,-570,-323,39,185,-121
14848,5800,0,2023-03-01T18:56:22.935786,1972473,196,846,1547,-1046,-570,-323,39,185,-121
14849,5801,0,2023-03-01T18:56:22.940754,1972478,196,846,1547,-1046,-570,-323,39,185,-121
14850,5802,0,2023-03-01T18:56:22.945919,1972484,197,845,1559,-1038,-574,-320,39,185,-121
14851,5803,0,2023-03-01T18:56:22.952353,1972490,197,845,1559,-1038,-574,-320,39,185,-121
14852,5804,0,2023-03-01T18:56:22.958175,1972495,197,845,1559,-1038,-574,-320,39,185,-121
14853,5805,0,2023-03-01T18:56:22.963679,1972501,197,845,1554,-1039,-574,-320,39,185,-121
14854,5806,0,2023-03-01T18:56:22.969125,1972507,197,845,1554,-1039,-574,-320,42,190,-128
14855,5807,0,2023-03-01T18:56:22.975363,1972512,197,845,1554,-1039,-574,-320,42,190,-128
14856,5808,0,2023-03-01T18:56:22.980446,1972517,197,845,1554,-1039,-574,-320,42,190,-128
14857,5809,0,2023-03-01T18:56:22.985822,1972524,198,843,1559,-1041,-580,-315,42,190,-128
14858,5810,0,2023-03-01T18:56:22.991864,1972530,198,843,1559,-1041,-580,-315,42,190,-128
14859,5811,0,2023-03-01T18:56:22.997262,1972535,198,843,1559,-1041,-580,-315,42,190,-128
14860,5812,0,2023-03-01T18:56:23.001942,1972540,198,843,1559,-1041,-580,-315,42,190,-128
14861,5813,0,2023-03-01T18:56:23.006718,1972544,195,844,1553,-1038,-573,-321,42,190,-128
14862,5814,0,2023-03-01T18:56:23.013457,1972550,195,844,1553,-1038,-573,-321,42,190,-128
14863,5815,0,2023-03-01T18:56:23.018609,1972556,195,844,1553,-1038,-573,-321,42,190,-128
14864,5816,0,2023-03-01T18:56:23.023316,1972560,195,844,1553,-1038,-573,-321,42,190,-128
14865,5817,0,2023-03-01T18:56:23.028803,1972566,195,847,1559,-1034,-584,-323,42,190,-128
14866,5818,0,2023-03-01T18:56:23.034465,1972572,195,847,1559,-1034,-584,-323,42,190,-128
14867,5819,0,2023-03-01T18:56:23.039927,1972577,195,847,1559,-1034,-584,-323,42,190,-128
14868,5820,0,2023-03-01T18:56:23.045343,1972583,195,843,1553,-1045,-571,-329,42,190,-128
14869,5821,0,2023-03-01T18:56:23.050951,1972588,195,843,1553,-1045,-571,-329,42,190,-128
14870,5822,0,2023-03-01T18:56:23.056879,1972594,195,843,1553,-1045,-571,-329,42,190,-128
14871,5823,0,2023-03-01T18:56:23.062467,1972599,195,843,1553,-1045,-571,-329,42,190,-128
14872,5824,0,2023-03-01T18:56:23.067827,1972604,195,846,1553,-1044,-569,-329,42,190,-128
14873,5825,0,2023-03-01T18:56:23.074651,1972613,195,846,1553,-1044,-569,-329,42,190,-128
14874,5826,0,2023-03-01T18:56:23.079412,1972617,195,846,1553,-1044,-569,-329,42,190,-128
14875,5827,0,2023-03-01T18:56:23.085152,1972622,196,845,1554,-1038,-578,-321,42,190,-128
14876,5828,0,2023-03-01T18:56:23.091364,1972629,196,845,1554,-1038,-578,-321,42,190,-128
14877,5829,0,2023-03-01T18:56:23.098199,1972635,196,845,1554,-1038,-578,-321,42,190,-128
14878,5830,0,2023-03-01T18:56:23.103369,1972640,196,845,1554,-1038,-578,-321,42,190,-128
14879,5831,0,2023-03-01T18:56:23.108225,1972645,199,847,1555,-1036,-575,-319,39,189,-119
14880,5832,0,2023-03-01T18:56:23.113724,1972651,199,847,1555,-1036,-575,-319,39,189,-119
14881,5833,0,2023-03-01T18:56:23.118986,1972657,199,847,1555,-1036,-575,-319,39,189,-119
14882,5834,0,2023-03-01T18:56:23.124109,1972662,197,844,1556,-1039,-572,-322,39,189,-119
14883,5835,0,2023-03-01T18:56:23.129578,1972667,197,844,1556,-1039,-572,-322,39,189,-119
14884,5836,0,2023-03-01T18:56:23.136062,1972673,197,844,1556,-1039,-572,-322,39,189,-119
14885,5837,0,2023-03-01T18:56:23.140703,1972678,197,844,1556,-1039,-572,-322,39,189,-119
14886,5838,0,2023-03-01T18:56:23.146661,1972683,197,846,1552,-1018,-568,-318,39,189,-119
14887,5839,0,2023-03-01T18:56:23.153290,1972690,197,846,1552,-1018,-568,-318,39,189,-119
14888,5840,0,2023-03-01T18:56:23.158992,1972697,197,846,1552,-1018,-568,-318,39,189,-119
14889,5841,0,2023-03-01T18:56:23.163810,1972702,196,846,1553,-1028,-565,-327,39,189,-119
14890,5842,0,2023-03-01T18:56:23.169307,1972707,196,846,1553,-1028,-565,-327,39,189,-119
14891,5843,0,2023-03-01T18:56:23.175059,1972712,196,846,1553,-1028,-565,-327,39,189,-119
14892,5844,0,2023-03-01T18:56:23.180501,1972718,196,846,1553,-1028,-565,-327,39,189,-119
14893,5845,0,2023-03-01T18:56:23.185221,1972723,194,846,1557,-1034,-573,-322,39,189,-119
14894,5846,0,2023-03-01T18:56:23.191087,1972728,194,846,1557,-1034,-573,-322,39,189,-119
14895,5847,0,2023-03-01T18:56:23.196965,1972734,194,846,1557,-1034,-573,-322,39,189,-119
14896,5848,0,2023-03-01T18:56:23.202337,1972740,194,846,1557,-1034,-573,-322,39,189,-119
14897,5849,0,2023-03-01T18:56:23.207914,1972745,193,846,1553,-1029,-578,-331,39,189,-119
14898,5850,0,2023-03-01T18:56:23.214615,1972752,193,846,1553,-1029,-578,-331,39,189,-119
14899,5851,0,2023-03-01T18:56:23.219594,1972757,193,846,1553,-1029,-578,-331,39,189,-119
14900,5852,0,2023-03-01T18:56:23.224772,1972762,195,848,1554,-1037,-574,-327,35,185,-123
14901,5853,0,2023-03-01T18:56:23.230772,1972768,195,848,1554,-1037,-574,-327,35,185,-123
14902,5854,0,2023-03-01T18:56:23.236826,1972774,195,848,1554,-1037,-574,-327,35,185,-123
14903,5855,0,2023-03-01T18:56:23.241991,1972780,195,848,1554,-1037,-574,-327,35,185,-123
14904,5856,0,2023-03-01T18:56:23.247493,1972785,197,845,1561,-1036,-576,-321,35,185,-123
14905,5857,0,2023-03-01T18:56:23.253957,1972791,197,845,1561,-1036,-576,-321,35,185,-123
14906,5858,0,2023-03-01T18:56:23.258888,1972796,197,845,1561,-1036,-576,-321,35,185,-123
14907,5859,0,2023-03-01T18:56:23.264657,1972801,199,849,1553,-1040,-575,-329,35,185,-123
14908,5860,0,2023-03-01T18:56:23.270296,1972808,199,849,1553,-1040,-575,-329,35,185,-123
14909,5861,0,2023-03-01T18:56:23.277730,1972815,199,849,1553,-1040,-575,-329,35,185,-123
14910,5862,0,2023-03-01T18:56:23.282858,1972820,199,849,1553,-1040,-575,-329,35,185,-123
14911,5863,0,2023-03-01T18:56:23.288313,1972826,198,843,1558,-1046,-576,-331,35,185,-123
14912,5864,0,2023-03-01T18:56:23.294829,1972833,198,843,1558,-1046,-576,-331,35,185,-123
14913,5865,0,2023-03-01T18:56:23.299887,1972838,198,843,1558,-1046,-576,-331,35,185,-123
14914,5866,0,2023-03-01T18:56:23.304993,1972842,195,845,1553,-1032,-570,-329,35,185,-123
14915,5867,0,2023-03-01T18:56:23.310755,1972848,195,845,1553,-1032,-570,-329,35,185,-123
14916,5868,0,2023-03-01T18:56:23.316326,1972853,195,845,1553,-1032,-570,-329,35,185,-123
14917,5869,0,2023-03-01T18:56:23.321527,1972859,195,845,1553,-1032,-570,-329,35,185,-123
14918,5870,0,2023-03-01T18:56:23.326420,1972864,193,846,1548,-1028,-568,-328,35,185,-123
14919,5871,0,2023-03-01T18:56:23.332842,1972871,193,846,1548,-1028,-568,-328,35,185,-123
14920,5872,0,2023-03-01T18:56:23.338075,1972875,193,846,1548,-1028,-568,-328,35,185,-123
14921,5873,0,2023-03-01T18:56:23.343294,1972881,193,846,1548,-1028,-568,-328,35,185,-123
14922,5874,0,2023-03-01T18:56:23.348428,1972886,199,843,1552,-1032,-564,-324,35,185,-123
14923,5875,0,2023-03-01T18:56:23.355739,1972893,199,843,1552,-1032,-564,-324,35,185,-123
14924,5876,0,2023-03-01T18:56:23.360348,1972898,199,843,1552,-1032,-564,-324,35,185,-123
14925,5877,0,2023-03-01T18:56:23.365262,1972902,197,847,1556,-1041,-566,-323,35,185,-119
14926,5878,0,2023-03-01T18:56:23.370992,1972909,197,847,1556,-1041,-566,-323,35,185,-119
14927,5879,0,2023-03-01T18:56:23.377262,1972915,197,847,1556,-1041,-566,-323,35,185,-119
14928,5880,0,2023-03-01T18:56:23.382042,1972920,197,847,1556,-1041,-566,-323,35,185,-119
14929,5881,0,2023-03-01T18:56:23.387165,1972925,196,846,1548,-1044,-567,-322,35,185,-119
14930,5882,0,2023-03-01T18:56:23.393453,1972931,196,846,1548,-1044,-567,-322,35,185,-119
14931,5883,0,2023-03-01T18:56:23.398187,1972936,196,846,1548,-1044,-567,-322,35,185,-119
14932,5884,0,2023-03-01T18:56:23.403311,1972940,196,846,1548,-1044,-567,-322,35,185,-119
14933,5885,0,2023-03-01T18:56:23.408768,1972945,196,846,1550,-1032,-567,-327,35,185,-119
14934,5886,0,2023-03-01T18:56:23.414061,1972952,196,846,1550,-1032,-567,-327,35,185,-119
14935,5887,0,2023-03-01T18:56:23.419934,1972957,196,846,1550,-1032,-567,-327,35,185,-119
14936,5888,0,2023-03-01T18:56:23.425027,1972963,195,847,1549,-1033,-566,-328,35,185,-119
14937,5889,0,2023-03-01T18:56:23.430578,1972968,195,847,1549,-1033,-566,-328,35,185,-119
14938,5890,0,2023-03-01T18:56:23.437042,1972975,195,847,1549,-1033,-566,-328,35,185,-119
14939,5891,0,2023-03-01T18:56:23.441795,1972979,195,847,1549,-1033,-566,-328,35,185,-119
14940,5892,0,2023-03-01T18:56:23.446518,1972984,195,845,1554,-1035,-567,-326,35,185,-119
14941,5893,0,2023-03-01T18:56:23.452241,1972989,195,845,1554,-1035,-567,-326,35,185,-119
14942,5894,0,2023-03-01T18:56:23.456994,1972995,195,845,1554,-1035,-567,-326,35,185,-119
14943,5895,0,2023-03-01T18:56:23.461821,1973000,195,845,1554,-1035,-567,-326,35,185,-119
14944,5896,0,2023-03-01T18:56:23.466777,1973005,193,847,1554,-1031,-568,-322,35,185,-119
14945,5897,0,2023-03-01T18:56:23.473459,1973011,193,847,1554,-1031,-568,-322,35,185,-119
14946,5898,0,2023-03-01T18:56:23.478622,1973016,193,847,1554,-1031,-568,-322,35,185,-119
14947,5899,0,2023-03-01T18:56:23.483362,1973021,193,847,1554,-1031,-568,-322,35,185,-119
14948,5900,0,2023-03-01T18:56:23.488713,1973026,197,848,1556,-1036,-573,-322,32,182,-130
14949,5901,0,2023-03-01T18:56:23.495301,1973032,197,848,1556,-1036,-573,-322,32,182,-130
14950,5902,0,2023-03-01T18:56:23.500108,1973038,197,848,1556,-1036,-573,-322,32,182,-130
14951,5903,0,2023-03-01T18:56:23.504899,1973043,192,846,1553,-1034,-571,-314,32,182,-130
14952,5904,0,2023-03-01T18:56:23.510423,1973048,192,846,1553,-1034,-571,-314,32,182,-130
14953,5905,0,2023-03-01T18:56:23.515389,1973053,192,846,1553,-1034,-571,-314,32,182,-130
14954,5906,0,2023-03-01T18:56:23.520534,1973058,192,846,1553,-1034,-571,-314,32,182,-130
14955,5907,0,2023-03-01T18:56:23.525950,1973063,195,846,1559,-1032,-569,-323,32,182,-130
14956,5908,0,2023-03-01T18:56:23.532470,1973070,195,846,1559,-1032,-569,-323,32,182,-130
14957,5909,0,2023-03-01T18:56:23.538788,1973075,195,846,1559,-1032,-569,-323,32,182,-130
14958,5910,0,2023-03-01T18:56:23.544124,1973082,195,846,1559,-1032,-569,-323,32,182,-130
14959,5911,0,2023-03-01T18:56:23.549031,1973087,196,846,1557,-1049,-567,-320,32,182,-130
14960,5912,0,2023-03-01T18:56:23.556599,1973094,196,846,1557,-1049,-567,-320,32,182,-130
14961,5913,0,2023-03-01T18:56:23.561483,1973099,196,846,1557,-1049,-567,-320,32,182,-130
14962,5914,0,2023-03-01T18:56:23.566857,1973104,197,845,1555,-1033,-575,-318,32,182,-130
14963,5915,0,2023-03-01T18:56:23.573437,1973111,197,845,1555,-1033,-575,-318,32,182,-130
14964,5916,0,2023-03-01T18:56:23.578802,1973116,197,845,1555,-1033,-575,-318,32,182,-130
14965,5917,0,2023-03-01T18:56:23.583753,1973121,197,845,1555,-1033,-575,-318,32,182,-130
14966,5918,0,2023-03-01T18:56:23.588730,1973126,199,846,1561,-1030,-577,-323,32,182,-130
14967,5919,0,2023-03-01T18:56:23.595386,1973133,199,846,1561,-1030,-577,-323,32,182,-130
14968,5920,0,2023-03-01T18:56:23.601212,1973138,199,846,1561,-1030,-577,-323,32,182,-130
14969,5921,0,2023-03-01T18:56:23.606575,1973144,196,848,1548,-1037,-579,-316,32,182,-130
14970,5922,0,2023-03-01T18:56:23.612953,1973150,196,848,1548,-1037,-579,-316,32,182,-130
14971,5923,0,2023-03-01T18:56:23.617969,1973155,196,848,1548,-1037,-579,-316,32,182,-130
14972,5924,0,2023-03-01T18:56:23.623328,1973160,196,848,1548,-1037,-579,-316,32,182,-130
14973,5925,0,2023-03-01T18:56:23.628598,1973167,195,846,1556,-1034,-572,-321,39,185,-121
14974,5926,0,2023-03-01T18:56:23.636591,1973174,195,846,1556,-1034,-572,-321,39,185,-121
14975,5927,0,2023-03-01T18:56:23.641861,1973179,195,846,1556,-1034,-572,-321,39,185,-121
14976,5928,0,2023-03-01T18:56:23.646905,1973184,195,844,1558,-1034,-570,-324,39,185,-121
14977,5929,0,2023-03-01T18:56:23.654105,1973191,195,844,1558,-1034,-570,-324,39,185,-121
14978,5930,0,2023-03-01T18:56:23.659486,1973197,195,844,1558,-1034,-570,-324,39,185,-121
14979,5931,0,2023-03-01T18:56:23.664726,1973202,196,846,1560,-1034,-568,-322,39,185,-121
14980,5932,0,2023-03-01T18:56:23.670325,1973208,196,846,1560,-1034,-568,-322,39,185,-121
14981,5933,0,2023-03-01T18:56:23.676470,1973214,196,846,1560,-1034,-568,-322,39,185,-121
14982,5934,0,2023-03-01T18:56:23.681789,1973219,196,846,1560,-1034,-568,-322,39,185,-121
14983,5935,0,2023-03-01T18:56:23.686970,1973224,197,847,1559,-1040,-581,-325,39,185,-121
14984,5936,0,2023-03-01T18:56:23.694225,1973231,197,847,1559,-1040,-581,-325,39,185,-121
14985,5937,0,2023-03-01T18:56:23.699285,1973237,197,847,1559,-1040,-581,-325,39,185,-121
14986,5938,0,2023-03-01T18:56:23.704051,1973241,197,847,1559,-1040,-581,-325,39,185,-121
14987,5939,0,2023-03-01T18:56:23.709577,1973246,198,845,1549,-1053,-571,-321,39,185,-121
14988,5940,0,2023-03-01T18:56:23.716935,1973255,198,845,1549,-1053,-571,-321,39,185,-121
14989,5941,0,2023-03-01T18:56:23.722155,1973260,198,845,1549,-1053,-571,-321,39,185,-121
14990,5942,0,2023-03-01T18:56:23.727062,1973265,196,844,1557,-1037,-573,-326,39,185,-121
14991,5943,0,2023-03-01T18:56:23.733860,1973271,196,844,1557,-1037,-573,-326,39,185,-121
14992,5944,0,2023-03-01T18:56:23.739661,1973276,196,844,1557,-1037,-573,-326,39,185,-121
14993,5945,0,2023-03-01T18:56:23.745366,1973283,196,845,1556,-1039,-576,-325,42,188,-124
14994,5946,0,2023-03-01T18:56:23.751103,1973288,196,845,1556,-1039,-576,-325,42,188,-124
14995,5947,0,2023-03-01T18:56:23.756471,1973295,196,845,1556,-1039,-576,-325,42,188,-124
14996,5948,0,2023-03-01T18:56:23.761308,1973299,196,845,1556,-1039,-576,-325,42,188,-124
14997,5949,0,2023-03-01T18:56:23.766821,1973304,197,845,1561,-1036,-569,-320,42,188,-124
14998,5950,0,2023-03-01T18:56:23.772599,1973310,197,845,1561,-1036,-569,-320,42,188,-124
14999,5951,0,2023-03-01T18:56:23.778206,1973316,197,845,1561,-1036,-569,-320,42,188,-124
15000,5952,0,2023-03-01T18:56:23.783131,1973320,197,845,1561,-1036,-569,-320,42,188,-124
15001,5953,0,2023-03-01T18:56:23.787915,1973325,196,844,1554,-1033,-574,-328,42,188,-124
15002,5954,0,2023-03-01T18:56:23.794828,1973332,196,844,1554,-1033,-574,-328,42,188,-124
15003,5955,0,2023-03-01T18:56:23.799884,1973338,196,844,1554,-1033,-574,-328,42,188,-124
15004,5956,0,2023-03-01T18:56:23.804906,1973343,197,848,1560,-1034,-571,-323,42,188,-124
15005,5957,0,2023-03-01T18:56:23.810047,1973348,197,848,1560,-1034,-571,-323,42,188,-124
15006,5958,0,2023-03-01T18:56:23.816259,1973353,197,848,1560,-1034,-571,-323,42,188,-124
15007,5959,0,2023-03-01T18:56:23.821679,1973359,197,848,1560,-1034,-571,-323,42,188,-124
15008,5960,0,2023-03-01T18:56:23.826827,1973364,195,847,1558,-1042,-572,-324,42,188,-124
15009,5961,0,2023-03-01T18:56:23.833315,1973371,195,847,1558,-1042,-572,-324,42,188,-124
15010,5962,0,2023-03-01T18:56:23.838148,1973376,195,847,1558,-1042,-572,-324,42,188,-124
15011,5963,0,2023-03-01T18:56:23.843326,1973381,195,847,1558,-1042,-572,-324,42,188,-124
15012,5964,0,2023-03-01T18:56:23.849080,1973386,194,845,1553,-1032,-572,-319,42,188,-124
15013,5965,0,2023-03-01T18:56:23.856282,1973394,194,845,1553,-1032,-572,-319,42,188,-124
15014,5966,0,2023-03-01T18:56:23.862105,1973399,194,845,1553,-1032,-572,-319,42,188,-124
15015,5967,0,2023-03-01T18:56:23.866604,1973404,193,845,1553,-1035,-572,-326,37,185,-123
15016,5968,0,2023-03-01T18:56:23.873125,1973410,193,845,1553,-1035,-572,-326,37,185,-123
15017,5969,0,2023-03-01T18:56:23.878198,1973415,193,845,1553,-1035,-572,-326,37,185,-123
15018,5970,0,2023-03-01T18:56:23.883403,1973422,193,845,1553,-1035,-572,-326,37,185,-123
15019,5971,0,2023-03-01T18:56:23.888439,1973426,198,844,1554,-1040,-574,-325,37,185,-123
15020,5972,0,2023-03-01T18:56:23.894528,1973432,198,844,1554,-1040,-574,-325,37,185,-123
15021,5973,0,2023-03-01T18:56:23.899955,1973437,198,844,1554,-1040,-574,-325,37,185,-123
15022,5974,0,2023-03-01T18:56:23.905137,1973442,197,845,1553,-1037,-572,-326,37,185,-123
15023,5975,0,2023-03-01T18:56:23.910785,1973448,197,845,1553,-1037,-572,-326,37,185,-123
15024,5976,0,2023-03-01T18:56:23.917482,1973455,197,845,1553,-1037,-572,-326,37,185,-123
15025,5977,0,2023-03-01T18:56:23.922584,1973460,197,845,1553,-1037,-572,-326,37,185,-123
15026,5978,0,2023-03-01T18:56:23.927338,1973465,199,846,1547,-1040,-569,-327,37,185,-123
15027,5979,0,2023-03-01T18:56:23.933842,1973471,199,846,1547,-1040,-569,-327,37,185,-123
15028,5980,0,2023-03-01T18:56:23.938858,1973476,199,846,1547,-1040,-569,-327,37,185,-123
15029,5981,0,2023-03-01T18:56:23.943466,1973481,199,846,1547,-1040,-569,-327,37,185,-123
15030,5982,0,2023-03-01T18:56:23.948525,1973486,195,846,1557,-1041,-564,-323,37,185,-123
15031,5983,0,2023-03-01T18:56:23.955909,1973492,195,846,1557,-1041,-564,-323,37,185,-123
15032,5984,0,2023-03-01T18:56:23.962215,1973499,195,846,1557,-1041,-564,-323,37,185,-123
15033,5985,0,2023-03-01T18:56:23.967366,1973505,196,846,1552,-1036,-578,-323,37,185,-123
15034,5986,0,2023-03-01T18:56:23.973938,1973512,196,846,1552,-1036,-578,-323,37,185,-123
15035,5987,0,2023-03-01T18:56:23.978811,1973516,196,846,1552,-1036,-578,-323,37,185,-123
15036,5988,0,2023-03-01T18:56:23.983761,1973521,196,846,1552,-1036,-578,-323,37,185,-123
15037,5989,0,2023-03-01T18:56:23.988822,1973526,197,844,1552,-1035,-580,-319,37,185,-123
15038,5990,0,2023-03-01T18:56:23.995809,1973533,197,844,1552,-1035,-580,-319,37,185,-123
15039,5991,0,2023-03-01T18:56:24.000472,1973538,197,844,1552,-1035,-580,-319,37,185,-123
15040,5992,0,2023-03-01T18:56:24.005201,1973542,199,848,1558,-1035,-576,-322,36,190,-130
15041,5993,0,2023-03-01T18:56:24.011110,1973549,199,848,1558,-1035,-576,-322,36,190,-130
15042,5994,0,2023-03-01T18:56:24.017172,1973555,199,848,1558,-1035,-576,-322,36,190,-130
15043,5995,0,2023-03-01T18:56:24.022932,1973560,199,848,1558,-1035,-576,-322,36,190,-130
15044,5996,0,2023-03-01T18:56:24.028072,1973566,197,848,1559,-1039,-575,-322,36,190,-130
15045,5997,0,2023-03-01T18:56:24.034537,1973572,197,848,1559,-1039,-575,-322,36,190,-130
15046,5998,0,2023-03-01T18:56:24.039689,1973577,197,848,1559,-1039,-575,-322,36,190,-130
15047,5999,0,2023-03-01T18:56:24.045094,1973582,197,847,1555,-1038,-572,-329,36,190,-130
15048,6000,0,2023-03-01T18:56:24.050719,1973588,197,847,1555,-1038,-572,-329,36,190,-130
15049,6001,0,2023-03-01T18:56:24.056719,1973595,197,847,1555,-1038,-572,-329,36,190,-130
15050,6002,0,2023-03-01T18:56:24.061869,1973599,197,847,1555,-1038,-572,-329,36,190,-130
15051,6003,0,2023-03-01T18:56:24.067265,1973604,197,847,1555,-1042,-570,-327,36,190,-130
15052,6004,0,2023-03-01T18:56:24.074568,1973612,197,847,1555,-1042,-570,-327,36,190,-130
15053,6005,0,2023-03-01T18:56:24.079440,1973617,197,847,1555,-1042,-570,-327,36,190,-130
15054,6006,0,2023-03-01T18:56:24.084698,1973622,197,847,1555,-1042,-570,-327,36,190,-130
15055,6007,0,2023-03-01T18:56:24.090105,1973627,196,849,1558,-1034,-569,-322,36,190,-130
15056,6008,0,2023-03-01T18:56:24.099812,1973637,196,849,1558,-1034,-569,-322,36,190,-130
15057,6009,0,2023-03-01T18:56:24.105055,1973643,196,849,1558,-1034,-569,-322,36,190,-130
15058,6010,0,2023-03-01T18:56:24.110097,1973648,196,845,1552,-1040,-575,-319,36,190,-130
15059,6011,0,2023-03-01T18:56:24.117138,1973654,196,845,1552,-1040,-575,-319,36,190,-130
15060,6012,0,2023-03-01T18:56:24.122244,1973660,196,845,1552,-1040,-575,-319,36,190,-130
15061,6013,0,2023-03-01T18:56:24.127587,1973665,195,845,1559,-1027,-573,-325,40,176,-124
15062,6014,0,2023-03-01T18:56:24.134656,1973671,195,845,1559,-1027,-573,-325,40,176,-124
15063,6015,0,2023-03-01T18:56:24.139876,1973678,195,845,1559,-1027,-573,-325,40,176,-124
15064,6016,0,2023-03-01T18:56:24.144958,1973683,195,845,1559,-1027,-573,-325,40,176,-124
15065,6017,0,2023-03-01T18:56:24.150264,1973688,194,847,1559,-1033,-569,-333,40,176,-124
15066,6018,0,2023-03-01T18:56:24.157322,1973694,194,847,1559,-1033,-569,-333,40,176,-124
15067,6019,0,2023-03-01T18:56:24.162098,1973700,194,847,1559,-1033,-569,-333,40,176,-124
15068,6020,0,2023-03-01T18:56:24.167237,1973704,197,849,1556,-1032,-575,-328,40,176,-124
15069,6021,0,2023-03-01T18:56:24.173306,1973710,197,849,1556,-1032,-575,-328,40,176,-124
15070,6022,0,2023-03-01T18:56:24.180542,1973718,197,849,1556,-1032,-575,-328,40,176,-124
15071,6023,0,2023-03-01T18:56:24.185653,1973723,194,847,1550,-1036,-574,-326,40,176,-124
15072,6024,0,2023-03-01T18:56:24.191406,1973729,194,847,1550,-1036,-574,-326,40,176,-124
15073,6025,0,2023-03-01T18:56:24.198111,1973736,194,847,1550,-1036,-574,-326,40,176,-124
15074,6026,0,2023-03-01T18:56:24.203197,1973741,194,847,1550,-1036,-574,-326,40,176,-124
15075,6027,0,2023-03-01T18:56:24.208028,1973745,199,844,1552,-1033,-576,-325,40,176,-124
15076,6028,0,2023-03-01T18:56:24.214371,1973751,199,844,1552,-1033,-576,-325,40,176,-124
15077,6029,0,2023-03-01T18:56:24.219068,1973756,199,844,1552,-1033,-576,-325,40,176,-124
15078,6030,0,2023-03-01T18:56:24.224006,1973762,199,844,1552,-1033,-576,-325,40,176,-124
15079,6031,0,2023-03-01T18:56:24.229211,1973767,195,849,1549,-1037,-566,-323,40,176,-124
15080,6032,0,2023-03-01T18:56:24.235506,1973773,195,849,1549,-1037,-566,-323,40,176,-124
15081,6033,0,2023-03-01T18:56:24.240631,1973778,195,849,1549,-1037,-566,-323,40,176,-124
15082,6034,0,2023-03-01T18:56:24.245595,1973783,197,846,1552,-1035,-567,-323,40,176,-124
15083,6035,0,2023-03-01T18:56:24.251804,1973789,197,846,1552,-1035,-567,-323,40,176,-124
15084,6036,0,2023-03-01T18:56:24.258674,1973795,197,846,1552,-1035,-567,-323,40,176,-124
15085,6037,0,2023-03-01T18:56:24.263964,1973801,197,846,1552,-1035,-567,-323,40,176,-124
15086,6038,0,2023-03-01T18:56:24.269303,1973807,198,849,1556,-1033,-569,-323,35,189,-123
15087,6039,0,2023-03-01T18:56:24.275902,1973813,198,849,1556,-1033,-569,-323,35,189,-123
15088,6040,0,2023-03-01T18:56:24.280940,1973819,198,849,1556,-1033,-569,-323,35,189,-123
15089,6041,0,2023-03-01T18:56:24.286166,1973823,196,847,1553,-1040,-572,-320,35,189,-123
15090,6042,0,2023-03-01T18:56:24.292677,1973830,196,847,1553,-1040,-572,-320,35,189,-123
15091,6043,0,2023-03-01T18:56:24.297533,1973835,196,847,1553,-1040,-572,-320,35,189,-123
15092,6044,0,2023-03-01T18:56:24.302591,1973840,196,847,1553,-1040,-572,-320,35,189,-123
15093,6045,0,2023-03-01T18:56:24.307824,1973846,199,848,1560,-1033,-567,-327,35,189,-123
15094,6046,0,2023-03-01T18:56:24.315159,1973853,199,848,1560,-1033,-567,-327,35,189,-123
15095,6047,0,2023-03-01T18:56:24.321076,1973859,199,848,1560,-1033,-567,-327,35,189,-123
15096,6048,0,2023-03-01T18:56:24.326478,1973864,196,850,1559,-1034,-564,-322,35,189,-123
15097,6049,0,2023-03-01T18:56:24.332123,1973870,196,850,1559,-1034,-564,-322,35,189,-123
15098,6050,0,2023-03-01T18:56:24.338519,1973876,196,850,1559,-1034,-564,-322,35,189,-123
15099,6051,0,2023-03-01T18:56:24.343270,1973880,196,850,1559,-1034,-564,-322,35,189,-123
15100,6052,0,2023-03-01T18:56:24.348670,1973885,196,849,1553,-1042,-574,-327,35,189,-123
15101,6053,0,2023-03-01T18:56:24.355358,1973893,196,849,1553,-1042,-574,-327,35,189,-123
15102,6054,0,2023-03-01T18:56:24.359897,1973898,196,849,1553,-1042,-574,-327,35,189,-123
15103,6055,0,2023-03-01T18:56:24.365267,1973903,196,849,1553,-1042,-574,-327,35,189,-123
15104,6056,0,2023-03-01T18:56:24.370561,1973908,197,849,1554,-1036,-581,-325,35,189,-123
15105,6057,0,2023-03-01T18:56:24.378438,1973916,197,849,1554,-1036,-581,-325,35,189,-123
15106,6058,0,2023-03-01T18:56:24.383465,1973921,197,849,1554,-1036,-581,-325,35,189,-123
15107,6059,0,2023-03-01T18:56:24.388330,1973926,199,845,1551,-1042,-573,-324,34,186,-124
15108,6060,0,2023-03-01T18:56:24.394545,1973933,199,845,1551,-1042,-573,-324,34,186,-124
15109,6061,0,2023-03-01T18:56:24.399922,1973938,199,845,1551,-1042,-573,-324,34,186,-124
15110,6062,0,2023-03-01T18:56:24.404780,1973942,199,845,1551,-1042,-573,-324,34,186,-124
15111,6063,0,2023-03-01T18:56:24.409763,1973947,195,845,1554,-1041,-576,-327,34,186,-124
15112,6064,0,2023-03-01T18:56:24.416057,1973954,195,845,1554,-1041,-576,-327,34,186,-124
15113,6065,0,2023-03-01T18:56:24.420899,1973958,195,845,1554,-1041,-576,-327,34,186,-124
15114,6066,0,2023-03-01T18:56:24.425763,1973963,195,848,1556,-1040,-571,-316,34,186,-124
15115,6067,0,2023-03-01T18:56:24.432003,1973969,195,848,1556,-1040,-571,-316,34,186,-124
15116,6068,0,2023-03-01T18:56:24.438439,1973976,195,848,1556,-1040,-571,-316,34,186,-124
15117,6069,0,2023-03-01T18:56:24.443730,1973982,195,848,1556,-1040,-571,-316,34,186,-124
15118,6070,0,2023-03-01T18:56:24.448614,1973986,199,846,1552,-1040,-568,-325,34,186,-124
15119,6071,0,2023-03-01T18:56:24.455346,1973993,199,846,1552,-1040,-568,-325,34,186,-124
15120,6072,0,2023-03-01T18:56:24.460978,1973998,199,846,1552,-1040,-568,-325,34,186,-124
15121,6073,0,2023-03-01T18:56:24.466617,1974003,197,847,1552,-1033,-572,-322,34,186,-124
15122,6074,0,2023-03-01T18:56:24.472419,1974010,197,847,1552,-1033,-572,-322,34,186,-124
15123,6075,0,2023-03-01T18:56:24.479593,1974017,197,847,1552,-1033,-572,-322,34,186,-124
15124,6076,0,2023-03-01T18:56:24.484582,1974022,197,847,1552,-1033,-572,-322,34,186,-124
15125,6077,0,2023-03-01T18:56:24.490236,1974028,197,848,1555,-1038,-572,-324,34,186,-124
15126,6078,0,2023-03-01T18:56:24.497978,1974035,197,848,1555,-1038,-572,-324,34,186,-124
15127,6079,0,2023-03-01T18:56:24.503921,1974041,197,848,1555,-1038,-572,-324,34,186,-124
15128,6080,0,2023-03-01T18:56:24.510327,1974047,197,846,1556,-1041,-576,-322,34,186,-124
15129,6081,0,2023-03-01T18:56:24.518090,1974055,197,846,1556,-1041,-576,-322,34,186,-124
15130,6082,0,2023-03-01T18:56:24.523146,1974061,197,846,1556,-1041,-576,-322,34,186,-124
15131,6083,0,2023-03-01T18:56:24.528230,1974066,198,850,1558,-1043,-575,-323,34,186,-124
15132,6084,0,2023-03-01T18:56:24.534263,1974072,198,850,1558,-1043,-575,-323,34,186,-124
15133,6085,0,2023-03-01T18:56:24.539359,1974077,198,850,1558,-1043,-575,-323,34,186,-124
15134,6086,0,2023-03-01T18:56:24.544371,1974082,198,850,1558,-1043,-575,-323,34,186,-124
15135,6087,0,2023-03-01T18:56:24.549957,1974087,197,847,1553,-1041,-577,-324,34,186,-124
15136,6088,0,2023-03-01T18:56:24.556942,1974094,197,847,1553,-1041,-577,-324,34,186,-124
15137,6089,0,2023-03-01T18:56:24.562063,1974099,197,847,1553,-1041,-577,-324,34,186,-124
15138,6090,0,2023-03-01T18:56:24.567664,1974105,197,847,1556,-1042,-574,-322,34,186,-124
15139,6091,0,2023-03-01T18:56:24.575240,1974113,197,847,1556,-1042,-574,-322,34,186,-124
15140,6092,0,2023-03-01T18:56:24.579965,1974118,197,847,1556,-1042,-574,-322,34,186,-124
15141,6093,0,2023-03-01T18:56:24.584899,1974122,197,847,1556,-1042,-574,-322,34,186,-124
15142,6094,0,2023-03-01T18:56:24.590068,1974127,198,848,1561,-1046,-573,-323,34,186,-124
15143,6095,0,2023-03-01T18:56:24.595901,1974133,198,848,1561,-1046,-573,-323,34,186,-124
15144,6096,0,2023-03-01T18:56:24.601148,1974138,198,848,1561,-1046,-573,-323,34,186,-124
15145,6097,0,2023-03-01T18:56:24.606448,1974144,195,847,1556,-1048,-576,-316,34,186,-124
15146,6098,0,2023-03-01T18:56:24.612542,1974150,195,847,1556,-1048,-576,-316,34,186,-124
15147,6099,0,2023-03-01T18:56:24.619017,1974157,195,847,1556,-1048,-576,-316,34,186,-124
15148,6100,0,2023-03-01T18:56:24.624307,1974162,195,847,1556,-1048,-576,-316,34,186,-124
15149,6101,0,2023-03-01T18:56:24.629207,1974167,198,844,1551,-1036,-569,-318,34,186,-124
15150,6102,0,2023-03-01T18:56:24.636577,1974174,198,844,1551,-1036,-569,-318,34,186,-124
15151,6103,0,2023-03-01T18:56:24.641910,1974179,198,844,1551,-1036,-569,-318,34,186,-124
15152,6104,0,2023-03-01T18:56:24.647110,1974184,197,848,1555,-1031,-565,-322,35,187,-127
15153,6105,0,2023-03-01T18:56:24.653905,1974192,197,848,1555,-1031,-565,-322,35,187,-127
15154,6106,0,2023-03-01T18:56:24.658920,1974197,197,848,1555,-1031,-565,-322,35,187,-127
15155,6107,0,2023-03-01T18:56:24.664457,1974201,197,848,1555,-1031,-565,-322,35,187,-127
15156,6108,0,2023-03-01T18:56:24.669243,1974207,196,846,1556,-1031,-578,-327,35,187,-127
15157,6109,0,2023-03-01T18:56:24.675892,1974213,196,846,1556,-1031,-578,-327,35,187,-127
15158,6110,0,2023-03-01T18:56:24.681167,1974218,196,846,1556,-1031,-578,-327,35,187,-127
15159,6111,0,2023-03-01T18:56:24.686406,1974223,195,844,1552,-1037,-578,-322,35,187,-127
15160,6112,0,2023-03-01T18:56:24.692437,1974230,195,844,1552,-1037,-578,-322,35,187,-127
15161,6113,0,2023-03-01T18:56:24.698178,1974236,195,844,1552,-1037,-578,-322,35,187,-127
15162,6114,0,2023-03-01T18:56:24.703390,1974241,195,844,1552,-1037,-578,-322,35,187,-127
15163,6115,0,2023-03-01T18:56:24.709478,1974246,196,847,1557,-1032,-571,-317,35,187,-127
15164,6116,0,2023-03-01T18:56:24.716630,1974254,196,847,1557,-1032,-571,-317,35,187,-127
15165,6117,0,2023-03-01T18:56:24.721142,1974258,196,847,1557,-1032,-571,-317,35,187,-127
15166,6118,0,2023-03-01T18:56:24.727792,1974265,196,846,1549,-1033,-577,-323,35,187,-127
15167,6119,0,2023-03-01T18:56:24.734353,1974272,196,846,1549,-1033,-577,-323,35,187,-127
15168,6120,0,2023-03-01T18:56:24.739456,1974277,196,846,1549,-1033,-577,-323,35,187,-127
15169,6121,0,2023-03-01T18:56:24.744539,1974282,196,846,1549,-1033,-577,-323,35,187,-127
15170,6122,0,2023-03-01T18:56:24.749847,1974287,199,845,1550,-1032,-567,-324,35,187,-127
15171,6123,0,2023-03-01T18:56:24.756665,1974294,199,845,1550,-1032,-567,-324,35,187,-127
15172,6124,0,2023-03-01T18:56:24.762027,1974299,199,845,1550,-1032,-567,-324,35,187,-127
15173,6125,0,2023-03-01T18:56:24.767425,1974304,197,849,1554,-1028,-572,-323,37,187,-127
15174,6126,0,2023-03-01T18:56:24.773840,1974311,197,849,1554,-1028,-572,-323,37,187,-127
15175,6127,0,2023-03-01T18:56:24.778881,1974317,197,849,1554,-1028,-572,-323,37,187,-127
15176,6128,0,2023-03-01T18:56:24.783773,1974322,197,849,1554,-1028,-572,-323,37,187,-127
15177,6129,0,2023-03-01T18:56:24.788823,1974326,199,848,1553,-1029,-577,-327,37,187,-127
15178,6130,0,2023-03-01T18:56:24.793876,1974331,199,848,1553,-1029,-577,-327,37,187,-127
15179,6131,0,2023-03-01T18:56:24.799220,1974337,199,848,1553,-1029,-577,-327,37,187,-127
15180,6132,0,2023-03-01T18:56:24.804344,1974342,199,848,1553,-1029,-577,-327,37,187,-127
15181,6133,0,2023-03-01T18:56:24.809574,1974346,197,849,1558,-1034,-573,-331,37,187,-127
15182,6134,0,2023-03-01T18:56:24.816047,1974353,197,849,1558,-1034,-573,-331,37,187,-127
15183,6135,0,2023-03-01T18:56:24.821492,1974359,197,849,1558,-1034,-573,-331,37,187,-127
15184,6136,0,2023-03-01T18:56:24.826692,1974364,198,848,1555,-1035,-574,-318,37,187,-127
15185,6137,0,2023-03-01T18:56:24.832583,1974370,198,848,1555,-1035,-574,-318,37,187,-127
15186,6138,0,2023-03-01T18:56:24.838997,1974376,198,848,1555,-1035,-574,-318,37,187,-127
15187,6139,0,2023-03-01T18:56:24.843852,1974381,198,848,1555,-1035,-574,-318,37,187,-127
15188,6140,0,2023-03-01T18:56:24.848894,1974386,197,848,1553,-1031,-570,-324,37,187,-127
15189,6141,0,2023-03-01T18:56:24.856332,1974394,197,848,1553,-1031,-570,-324,37,187,-127
15190,6142,0,2023-03-01T18:56:24.861007,1974398,197,848,1553,-1031,-570,-324,37,187,-127
15191,6143,0,2023-03-01T18:56:24.865952,1974404,197,849,1546,-1039,-564,-318,37,187,-127
15192,6144,0,2023-03-01T18:56:24.871884,1974409,197,849,1546,-1039,-564,-318,37,187,-127
15193,6145,0,2023-03-01T18:56:24.877598,1974415,197,849,1546,-1039,-564,-318,37,187,-127
15194,6146,0,2023-03-01T18:56:24.882454,1974420,197,849,1546,-1039,-564,-318,37,187,-127
15195,6147,0,2023-03-01T18:56:24.887417,1974425,200,847,1553,-1029,-569,-327,37,187,-127
15196,6148,0,2023-03-01T18:56:24.893756,1974431,200,847,1553,-1029,-569,-327,37,187,-127
15197,6149,0,2023-03-01T18:56:24.898345,1974436,200,847,1553,-1029,-569,-327,37,187,-127
15198,6150,0,2023-03-01T18:56:24.903709,1974441,200,847,1553,-1029,-569,-327,37,187,-127
15199,6151,0,2023-03-01T18:56:24.908489,1974447,195,847,1557,-1031,-571,-322,36,184,-124
15200,6152,0,2023-03-01T18:56:24.914674,1974452,195,847,1557,-1031,-571,-322,36,184,-124
15201,6153,0,2023-03-01T18:56:24.919762,1974457,195,847,1557,-1031,-571,-322,36,184,-124
15202,6154,0,2023-03-01T18:56:24.924639,1974462,195,847,1557,-1031,-571,-322,36,184,-124
15203,6155,0,2023-03-01T18:56:24.929600,1974467,197,846,1561,-1032,-566,-323,36,184,-124
15204,6156,0,2023-03-01T18:56:24.936773,1974474,197,846,1561,-1032,-566,-323,36,184,-124
15205,6157,0,2023-03-01T18:56:24.941784,1974479,197,846,1561,-1032,-566,-323,36,184,-124
15206,6158,0,2023-03-01T18:56:24.946740,1974484,197,846,1556,-1038,-571,-324,36,184,-124
15207,6159,0,2023-03-01T18:56:24.952551,1974491,197,846,1556,-1038,-571,-324,36,184,-124
15208,6160,0,2023-03-01T18:56:24.958934,1974496,197,846,1556,-1038,-571,-324,36,184,-124
15209,6161,0,2023-03-01T18:56:24.963857,1974501,197,846,1556,-1038,-571,-324,36,184,-124
15210,6162,0,2023-03-01T18:56:24.968693,1974506,198,845,1548,-1039,-573,-323,36,184,-124
15211,6163,0,2023-03-01T18:56:24.974905,1974512,198,845,1548,-1039,-573,-323,36,184,-124
15212,6164,0,2023-03-01T18:56:24.979667,1974517,198,845,1548,-1039,-573,-323,36,184,-124
15213,6165,0,2023-03-01T18:56:24.984401,1974522,198,845,1548,-1039,-573,-323,36,184,-124
15214,6166,0,2023-03-01T18:56:24.989253,1974526,198,846,1552,-1040,-574,-316,36,184,-124
15215,6167,0,2023-03-01T18:56:24.994810,1974533,198,846,1552,-1040,-574,-316,36,184,-124
15216,6168,0,2023-03-01T18:56:25.000641,1974538,198,846,1552,-1040,-574,-316,36,184,-124
15217,6169,0,2023-03-01T18:56:25.005755,1974544,198,846,1552,-1040,-574,-316,36,184,-124
15218,6170,0,2023-03-01T18:56:25.010904,1974548,198,846,1553,-1041,-580,-323,36,184,-124
15219,6171,0,2023-03-01T18:56:25.017941,1974555,198,846,1553,-1041,-580,-323,36,184,-124
15220,6172,0,2023-03-01T18:56:25.023386,1974561,198,846,1553,-1041,-580,-323,36,184,-124
15221,6173,0,2023-03-01T18:56:25.028896,1974566,199,850,1554,-1038,-569,-321,35,193,-123
15222,6174,0,2023-03-01T18:56:25.035863,1974574,199,850,1554,-1038,-569,-321,35,193,-123
15223,6175,0,2023-03-01T18:56:25.040569,1974579,199,850,1554,-1038,-569,-321,35,193,-123
15224,6176,0,2023-03-01T18:56:25.045590,1974583,199,850,1554,-1038,-569,-321,35,193,-123
15225,6177,0,2023-03-01T18:56:25.050535,1974588,196,846,1554,-1046,-572,-326,35,193,-123
15226,6178,0,2023-03-01T18:56:25.057748,1974595,196,846,1554,-1046,-572,-326,35,193,-123
15227,6179,0,2023-03-01T18:56:25.062417,1974600,196,846,1554,-1046,-572,-326,35,193,-123
15228,6180,0,2023-03-01T18:56:25.067277,1974605,195,847,1557,-1039,-574,-328,35,193,-123
15229,6181,0,2023-03-01T18:56:25.073784,1974611,195,847,1557,-1039,-574,-328,35,193,-123
15230,6182,0,2023-03-01T18:56:25.078744,1974616,195,847,1557,-1039,-574,-328,35,193,-123
15231,6183,0,2023-03-01T18:56:25.083844,1974621,195,847,1557,-1039,-574,-328,35,193,-123
15232,6184,0,2023-03-01T18:56:25.089639,1974627,200,848,1555,-1041,-575,-329,35,193,-123
15233,6185,0,2023-03-01T18:56:25.096087,1974634,200,848,1555,-1041,-575,-329,35,193,-123
15234,6186,0,2023-03-01T18:56:25.100863,1974638,200,848,1555,-1041,-575,-329,35,193,-123
15235,6187,0,2023-03-01T18:56:25.105942,1974643,200,848,1555,-1041,-575,-329,35,193,-123
15236,6188,0,2023-03-01T18:56:25.111784,1974648,194,847,1551,-1028,-577,-326,35,193,-123
15237,6189,0,2023-03-01T18:56:25.118646,1974656,194,847,1551,-1028,-577,-326,35,193,-123
15238,6190,0,2023-03-01T18:56:25.123816,1974662,194,847,1551,-1028,-577,-326,35,193,-123
15239,6191,0,2023-03-01T18:56:25.128800,1974667,195,845,1557,-1024,-572,-324,35,193,-123
15240,6192,0,2023-03-01T18:56:25.134601,1974672,195,845,1557,-1024,-572,-324,35,193,-123
15241,6193,0,2023-03-01T18:56:25.139772,1974677,195,845,1557,-1024,-572,-324,35,193,-123
15242,6194,0,2023-03-01T18:56:25.144875,1974682,195,845,1557,-1024,-572,-324,35,193,-123
15243,6195,0,2023-03-01T18:56:25.149845,1974687,198,845,1556,-1040,-574,-317,35,193,-123
15244,6196,0,2023-03-01T18:56:25.156834,1974694,198,845,1556,-1040,-574,-317,35,193,-123
15245,6197,0,2023-03-01T18:56:25.162824,1974700,198,845,1556,-1040,-574,-317,35,193,-123
15246,6198,0,2023-03-01T18:56:25.168580,1974706,198,847,1558,-1042,-573,-328,36,182,-124
15247,6199,0,2023-03-01T18:56:25.176196,1974714,198,847,1558,-1042,-573,-328,36,182,-124
15248,6200,0,2023-03-01T18:56:25.181286,1974719,198,847,1558,-1042,-573,-328,36,182,-124
15249,6201,0,2023-03-01T18:56:25.185899,1974723,198,847,1558,-1042,-573,-328,36,182,-124
15250,6202,0,2023-03-01T18:56:25.190587,1974728,194,848,1557,-1030,-570,-320,36,182,-124
15251,6203,0,2023-03-01T18:56:25.196888,1974734,194,848,1557,-1030,-570,-320,36,182,-124
15252,6204,0,2023-03-01T18:56:25.201437,1974739,194,848,1557,-1030,-570,-320,36,182,-124
15253,6205,0,2023-03-01T18:56:25.206626,1974745,197,846,1557,-1036,-574,-322,36,182,-124
15254,6206,0,2023-03-01T18:56:25.211544,1974749,197,846,1557,-1036,-574,-322,36,182,-124
15255,6207,0,2023-03-01T18:56:25.216353,1974754,197,846,1557,-1036,-574,-322,36,182,-124
15256,6208,0,2023-03-01T18:56:25.221506,1974759,197,846,1557,-1036,-574,-322,36,182,-124
15257,6209,0,2023-03-01T18:56:25.227206,1974765,198,847,1552,-1030,-574,-317,36,182,-124
15258,6210,0,2023-03-01T18:56:25.233492,1974771,198,847,1552,-1030,-574,-317,36,182,-124
15259,6211,0,2023-03-01T18:56:25.239056,1974776,198,847,1552,-1030,-574,-317,36,182,-124
15260,6212,0,2023-03-01T18:56:25.244182,1974781,198,847,1552,-1030,-574,-317,36,182,-124
15261,6213,0,2023-03-01T18:56:25.249313,1974787,194,848,1553,-1038,-569,-329,36,182,-124
15262,6214,0,2023-03-01T18:56:25.256218,1974794,194,848,1553,-1038,-569,-329,36,182,-124
15263,6215,0,2023-03-01T18:56:25.261286,1974799,194,848,1553,-1038,-569,-329,36,182,-124
15264,6216,0,2023-03-01T18:56:25.266506,1974804,195,846,1555,-1037,-580,-323,36,182,-124
15265,6217,0,2023-03-01T18:56:25.272227,1974809,195,846,1555,-1037,-580,-323,36,182,-124
15266,6218,0,2023-03-01T18:56:25.279112,1974816,195,846,1555,-1037,-580,-323,36,182,-124
15267,6219,0,2023-03-01T18:56:25.283942,1974821,195,846,1555,-1037,-580,-323,36,182,-124
15268,6220,0,2023-03-01T18:56:25.289161,1974827,196,847,1553,-1035,-575,-325,41,195,-115
15269,6221,0,2023-03-01T18:56:25.295603,1974833,196,847,1553,-1035,-575,-325,41,195,-115
15270,6222,0,2023-03-01T18:56:25.300572,1974838,196,847,1553,-1035,-575,-325,41,195,-115
15271,6223,0,2023-03-01T18:56:25.306025,1974843,196,847,1553,-1035,-575,-325,41,195,-115
15272,6224,0,2023-03-01T18:56:25.310969,1974848,198,846,1556,-1043,-575,-323,41,195,-115
15273,6225,0,2023-03-01T18:56:25.317459,1974855,198,846,1556,-1043,-575,-323,41,195,-115
15274,6226,0,2023-03-01T18:56:25.322799,1974860,198,846,1556,-1043,-575,-323,41,195,-115
15275,6227,0,2023-03-01T18:56:25.327826,1974865,195,846,1557,-1037,-575,-324,41,195,-115
15276,6228,0,2023-03-01T18:56:25.334701,1974872,195,846,1557,-1037,-575,-324,41,195,-115
15277,6229,0,2023-03-01T18:56:25.340094,1974878,195,846,1557,-1037,-575,-324,41,195,-115
15278,6230,0,2023-03-01T18:56:25.344994,1974883,195,846,1557,-1037,-575,-324,41,195,-115
15279,6231,0,2023-03-01T18:56:25.350061,1974888,198,846,1553,-1034,-576,-319,41,195,-115
15280,6232,0,2023-03-01T18:56:25.358089,1974894,198,846,1553,-1034,-576,-319,41,195,-115
15281,6233,0,2023-03-01T18:56:25.363366,1974901,198,846,1553,-1034,-576,-319,41,195,-115
15282,6234,0,2023-03-01T18:56:25.368625,1974906,198,846,1555,-1044,-566,-321,41,195,-115
15283,6235,0,2023-03-01T18:56:25.375808,1974914,198,846,1555,-1044,-566,-321,41,195,-115
15284,6236,0,2023-03-01T18:56:25.381152,1974919,198,846,1555,-1044,-566,-321,41,195,-115
15285,6237,0,2023-03-01T18:56:25.386415,1974924,196,846,1552,-1041,-573,-330,41,195,-115
15286,6238,0,2023-03-01T18:56:25.392008,1974930,196,846,1552,-1041,-573,-330,41,195,-115
15287,6239,0,2023-03-01T18:56:25.397743,1974935,196,846,1552,-1041,-573,-330,41,195,-115
15288,6240,0,2023-03-01T18:56:25.402572,1974940,196,846,1552,-1041,-573,-330,41,195,-115
15289,6241,0,2023-03-01T18:56:25.407513,1974945,197,847,1555,-1039,-571,-331,43,185,-125
15290,6242,0,2023-03-01T18:56:25.414068,1974951,197,847,1555,-1039,-571,-331,43,185,-125
15291,6243,0,2023-03-01T18:56:25.419308,1974957,197,847,1555,-1039,-571,-331,43,185,-125
15292,6244,0,2023-03-01T18:56:25.424744,1974963,197,847,1555,-1039,-571,-331,43,185,-125
15293,6245,0,2023-03-01T18:56:25.429796,1974967,198,847,1554,-1040,-573,-325,43,185,-125
15294,6246,0,2023-03-01T18:56:25.436230,1974974,198,847,1554,-1040,-573,-325,43,185,-125
15295,6247,0,2023-03-01T18:56:25.441251,1974979,198,847,1554,-1040,-573,-325,43,185,-125
15296,6248,0,2023-03-01T18:56:25.446317,1974984,198,847,1554,-1040,-573,-325,43,185,-125
15297,6249,0,2023-03-01T18:56:25.451477,1974989,198,845,1557,-1039,-574,-324,43,185,-125
15298,6250,0,2023-03-01T18:56:25.457821,1974994,198,845,1557,-1039,-574,-324,43,185,-125
15299,6251,0,2023-03-01T18:56:25.462579,1975000,198,845,1557,-1039,-574,-324,43,185,-125
15300,6252,0,2023-03-01T18:56:25.467400,1975005,198,848,1551,-1046,-579,-321,43,185,-125
15301,6253,0,2023-03-01T18:56:25.474330,1975012,198,848,1551,-1046,-579,-321,43,185,-125
15302,6254,0,2023-03-01T18:56:25.479505,1975017,198,848,1551,-1046,-579,-321,43,185,-125
15303,6255,0,2023-03-01T18:56:25.484629,1975022,198,848,1551,-1046,-579,-321,43,185,-125
15304,6256,0,2023-03-01T18:56:25.489648,1975027,198,848,1551,-1046,-579,-321,43,185,-125
15305,6257,0,2023-03-01T18:56:25.496277,1975033,198,848,1551,-1046,-579,-321,43,185,-125
15306,6258,0,2023-03-01T18:56:25.501706,1975040,198,848,1551,-1046,-579,-321,43,185,-125
15307,6259,0,2023-03-01T18:56:25.506802,1975045,196,847,1557,-1035,-576,-324,43,185,-125
15308,6260,0,2023-03-01T18:56:25.511961,1975050,196,847,1557,-1035,-576,-324,43,185,-125
15309,6261,0,2023-03-01T18:56:25.517886,1975055,196,847,1557,-1035,-576,-324,43,185,-125
15310,6262,0,2023-03-01T18:56:25.522884,1975060,196,847,1557,-1035,-576,-324,43,185,-125
15311,6263,0,2023-03-01T18:56:25.527911,1975065,198,845,1558,-1038,-572,-321,43,185,-125
15312,6264,0,2023-03-01T18:56:25.535311,1975072,198,845,1558,-1038,-572,-321,43,185,-125
15313,6265,0,2023-03-01T18:56:25.540025,1975077,198,845,1558,-1038,-572,-321,43,185,-125
15314,6266,0,2023-03-01T18:56:25.544772,1975083,198,845,1558,-1038,-572,-321,43,185,-125
15315,6267,0,2023-03-01T18:56:25.549847,1975088,195,851,1555,-1033,-564,-330,38,188,-132
15316,6268,0,2023-03-01T18:56:25.556824,1975095,195,851,1555,-1033,-564,-330,38,188,-132
15317,6269,0,2023-03-01T18:56:25.561516,1975099,195,851,1555,-1033,-564,-330,38,188,-132
15318,6270,0,2023-03-01T18:56:25.566686,1975104,193,846,1561,-1028,-568,-327,38,188,-132
15319,6271,0,2023-03-01T18:56:25.572309,1975110,193,846,1561,-1028,-568,-327,38,188,-132
15320,6272,0,2023-03-01T18:56:25.578153,1975116,193,846,1561,-1028,-568,-327,38,188,-132
15321,6273,0,2023-03-01T18:56:25.583101,1975120,193,846,1561,-1028,-568,-327,38,188,-132
15322,6274,0,2023-03-01T18:56:25.588057,1975126,192,846,1558,-1030,-570,-319,38,188,-132
15323,6275,0,2023-03-01T18:56:25.595010,1975133,192,846,1558,-1030,-570,-319,38,188,-132
15324,6276,0,2023-03-01T18:56:25.599952,1975138,192,846,1558,-1030,-570,-319,38,188,-132
15325,6277,0,2023-03-01T18:56:25.605072,1975143,192,846,1558,-1030,-570,-319,38,188,-132
15326,6278,0,2023-03-01T18:56:25.610024,1975147,196,847,1554,-1039,-572,-324,38,188,-132
15327,6279,0,2023-03-01T18:56:25.617680,1975155,196,847,1554,-1039,-572,-324,38,188,-132
15328,6280,0,2023-03-01T18:56:25.622679,1975160,196,847,1554,-1039,-572,-324,38,188,-132
15329,6281,0,2023-03-01T18:56:25.627663,1975165,196,845,1553,-1045,-573,-322,38,188,-132
15330,6282,0,2023-03-01T18:56:25.634427,1975172,196,845,1553,-1045,-573,-322,38,188,-132
15331,6283,0,2023-03-01T18:56:25.640017,1975177,196,845,1553,-1045,-573,-322,38,188,-132
15332,6284,0,2023-03-01T18:56:25.645315,1975183,196,845,1553,-1045,-573,-322,38,188,-132
15333,6285,0,2023-03-01T18:56:25.650601,1975188,196,846,1556,-1033,-576,-321,38,188,-132
15334,6286,0,2023-03-01T18:56:25.657271,1975195,196,846,1556,-1033,-576,-321,38,188,-132
15335,6287,0,2023-03-01T18:56:25.662870,1975200,196,846,1556,-1033,-576,-321,38,188,-132
15336,6288,0,2023-03-01T18:56:25.668170,1975205,197,846,1553,-1028,-575,-328,35,191,-125
15337,6289,0,2023-03-01T18:56:25.676391,1975213,197,846,1553,-1028,-575,-328,35,191,-125
15338,6290,0,2023-03-01T18:56:25.682426,1975220,197,846,1553,-1028,-575,-328,35,191,-125
15339,6291,0,2023-03-01T18:56:25.688006,1975225,197,847,1549,-1033,-572,-328,35,191,-125
15340,6292,0,2023-03-01T18:56:25.695899,1975233,197,847,1549,-1033,-572,-328,35,191,-125
15341,6293,0,2023-03-01T18:56:25.701269,1975238,197,847,1549,-1033,-572,-328,35,191,-125
15342,6294,0,2023-03-01T18:56:25.706960,1975243,197,847,1549,-1033,-572,-328,35,191,-125
15343,6295,0,2023-03-01T18:56:25.712992,1975250,194,849,1560,-1033,-573,-319,35,191,-125
15344,6296,0,2023-03-01T18:56:25.719732,1975257,194,849,1560,-1033,-573,-319,35,191,-125
15345,6297,0,2023-03-01T18:56:25.725540,1975263,194,849,1560,-1033,-573,-319,35,191,-125
15346,6298,0,2023-03-01T18:56:25.730987,1975268,197,846,1558,-1036,-569,-323,35,191,-125
15347,6299,0,2023-03-01T18:56:25.739079,1975277,197,846,1558,-1036,-569,-323,35,191,-125
15348,6300,0,2023-03-01T18:56:25.744058,1975281,197,846,1558,-1036,-569,-323,35,191,-125
15349,6301,0,2023-03-01T18:56:25.749303,1975286,196,845,1554,-1028,-568,-326,35,191,-125
15350,6302,0,2023-03-01T18:56:25.755970,1975293,196,845,1554,-1028,-568,-326,35,191,-125
15351,6303,0,2023-03-01T18:56:25.761384,1975299,196,845,1554,-1028,-568,-326,35,191,-125
15352,6304,0,2023-03-01T18:56:25.766396,1975304,196,845,1554,-1028,-568,-326,35,191,-125
15353,6305,0,2023-03-01T18:56:25.771764,1975310,196,845,1554,-1028,-568,-326,35,191,-125
15354,6306,0,2023-03-01T18:56:25.776560,1975314,196,845,1554,-1028,-568,-326,35,191,-125
15355,6307,0,2023-03-01T18:56:25.781923,1975319,196,845,1554,-1028,-568,-326,35,191,-125
15356,6308,0,2023-03-01T18:56:25.786830,1975324,196,845,1554,-1028,-568,-326,35,191,-125
15357,6309,0,2023-03-01T18:56:25.792461,1975329,196,846,1561,-1038,-571,-318,35,191,-125
15358,6310,0,2023-03-01T18:56:25.799510,1975336,196,846,1561,-1038,-571,-318,35,191,-125
15359,6311,0,2023-03-01T18:56:25.804901,1975343,196,846,1561,-1038,-571,-318,35,191,-125
15360,6312,0,2023-03-01T18:56:25.809807,1975348,196,844,1563,-1034,-571,-320,38,188,-120
15361,6313,0,2023-03-01T18:56:25.817418,1975354,196,844,1563,-1034,-571,-320,38,188,-120
15362,6314,0,2023-03-01T18:56:25.823149,1975360,196,844,1563,-1034,-571,-320,38,188,-120
15363,6315,0,2023-03-01T18:56:25.828312,1975366,198,849,1553,-1033,-563,-321,38,188,-120
15364,6316,0,2023-03-01T18:56:25.835770,1975373,198,849,1553,-1033,-563,-321,38,188,-120
15365,6317,0,2023-03-01T18:56:25.841554,1975378,198,849,1553,-1033,-563,-321,38,188,-120
15366,6318,0,2023-03-01T18:56:25.846698,1975385,198,849,1553,-1033,-563,-321,38,188,-120
15367,6319,0,2023-03-01T18:56:25.851675,1975389,195,847,1556,-1041,-569,-321,38,188,-120
15368,6320,0,2023-03-01T18:56:25.857588,1975395,195,847,1556,-1041,-569,-321,38,188,-120
15369,6321,0,2023-03-01T18:56:25.862500,1975400,195,847,1556,-1041,-569,-321,38,188,-120
15370,6322,0,2023-03-01T18:56:25.867545,1975405,195,847,1555,-1034,-575,-323,38,188,-120
15371,6323,0,2023-03-01T18:56:25.873698,1975411,195,847,1555,-1034,-575,-323,38,188,-120
15372,6324,0,2023-03-01T18:56:25.879945,1975417,195,847,1555,-1034,-575,-323,38,188,-120
15373,6325,0,2023-03-01T18:56:25.884939,1975422,195,847,1555,-1034,-575,-323,38,188,-120
15374,6326,0,2023-03-01T18:56:25.889956,1975428,195,848,1551,-1040,-570,-317,38,188,-120
15375,6327,0,2023-03-01T18:56:25.897245,1975435,195,848,1551,-1040,-570,-317,38,188,-120
15376,6328,0,2023-03-01T18:56:25.902274,1975440,195,848,1551,-1040,-570,-317,38,188,-120
15377,6329,0,2023-03-01T18:56:25.907192,1975445,195,845,1554,-1030,-564,-317,38,188,-120
15378,6330,0,2023-03-01T18:56:25.913995,1975451,195,845,1554,-1030,-564,-317,38,188,-120
15379,6331,0,2023-03-01T18:56:25.919480,1975457,195,845,1554,-1030,-564,-317,38,188,-120
15380,6332,0,2023-03-01T18:56:25.924418,1975462,195,845,1554,-1030,-564,-317,38,188,-120
15381,6333,0,2023-03-01T18:56:25.932228,1975469,195,847,1561,-1032,-573,-315,43,185,-123
15382,6334,0,2023-03-01T18:56:25.940019,1975478,195,847,1561,-1032,-573,-315,43,185,-123
15383,6335,0,2023-03-01T18:56:25.944766,1975483,195,847,1561,-1032,-573,-315,43,185,-123
15384,6336,0,2023-03-01T18:56:25.949573,1975487,196,849,1554,-1032,-572,-326,43,185,-123
15385,6337,0,2023-03-01T18:56:25.955695,1975493,196,849,1554,-1032,-572,-326,43,185,-123
15386,6338,0,2023-03-01T18:56:25.960954,1975498,196,849,1554,-1032,-572,-326,43,185,-123
15387,6339,0,2023-03-01T18:56:25.966168,1975503,196,849,1554,-1032,-572,-326,43,185,-123
15388,6340,0,2023-03-01T18:56:25.971065,1975508,193,847,1555,-1039,-570,-323,43,185,-123
15389,6341,0,2023-03-01T18:56:25.979439,1975516,193,847,1555,-1039,-570,-323,43,185,-123
15390,6342,0,2023-03-01T18:56:25.984790,1975522,193,847,1555,-1039,-570,-323,43,185,-123
15391,6343,0,2023-03-01T18:56:25.989707,1975527,194,846,1557,-1041,-567,-328,43,185,-123
15392,6344,0,2023-03-01T18:56:25.996486,1975534,194,846,1557,-1041,-567,-328,43,185,-123
15393,6345,0,2023-03-01T18:56:26.001653,1975539,194,846,1557,-1041,-567,-328,43,185,-123
15394,6346,0,2023-03-01T18:56:26.006873,1975544,194,846,1557,-1041,-567,-328,43,185,-123
15395,6347,0,2023-03-01T18:56:26.012556,1975549,194,846,1557,-1041,-567,-328,43,185,-123
15396,6348,0,2023-03-01T18:56:26.018308,1975556,194,846,1557,-1041,-567,-328,43,185,-123
15397,6349,0,2023-03-01T18:56:26.023038,1975561,194,846,1557,-1041,-567,-328,43,185,-123
15398,6350,0,2023-03-01T18:56:26.027890,1975566,195,846,1555,-1038,-578,-328,43,185,-123
15399,6351,0,2023-03-01T18:56:26.034705,1975572,195,846,1555,-1038,-578,-328,43,185,-123
15400,6352,0,2023-03-01T18:56:26.039991,1975577,195,846,1555,-1038,-578,-328,43,185,-123
15401,6353,0,2023-03-01T18:56:26.044444,1975582,195,846,1555,-1038,-578,-328,43,185,-123
15402,6354,0,2023-03-01T18:56:26.049438,1975587,198,848,1555,-1032,-563,-318,43,185,-123
15403,6355,0,2023-03-01T18:56:26.055321,1975593,198,848,1555,-1032,-563,-318,43,185,-123
15404,6356,0,2023-03-01T18:56:26.060109,1975598,198,848,1555,-1032,-563,-318,43,185,-123
15405,6357,0,2023-03-01T18:56:26.065418,1975603,198,848,1555,-1032,-563,-318,43,185,-123
15406,6358,0,2023-03-01T18:56:26.070877,1975608,195,847,1556,-1030,-570,-320,39,189,-131
15407,6359,0,2023-03-01T18:56:26.076770,1975614,195,847,1556,-1030,-570,-320,39,189,-131
15408,6360,0,2023-03-01T18:56:26.081602,1975619,195,847,1556,-1030,-570,-320,39,189,-131
15409,6361,0,2023-03-01T18:56:26.086871,1975624,195,847,1556,-1030,-570,-320,39,189,-131
15410,6362,0,2023-03-01T18:56:26.092122,1975629,197,848,1556,-1042,-573,-321,39,189,-131
15411,6363,0,2023-03-01T18:56:26.098458,1975636,197,848,1556,-1042,-573,-321,39,189,-131
15412,6364,0,2023-03-01T18:56:26.103293,1975641,197,848,1556,-1042,-573,-321,39,189,-131
15413,6365,0,2023-03-01T18:56:26.108043,1975646,197,846,1557,-1046,-568,-323,39,189,-131
15414,6366,0,2023-03-01T18:56:26.114429,1975652,197,846,1557,-1046,-568,-323,39,189,-131
15415,6367,0,2023-03-01T18:56:26.119602,1975657,197,846,1557,-1046,-568,-323,39,189,-131
15416,6368,0,2023-03-01T18:56:26.124717,1975662,197,846,1557,-1046,-568,-323,39,189,-131
15417,6369,0,2023-03-01T18:56:26.129750,1975667,196,847,1556,-1039,-575,-329,39,189,-131
15418,6370,0,2023-03-01T18:56:26.136191,1975673,196,847,1556,-1039,-575,-329,39,189,-131
15419,6371,0,2023-03-01T18:56:26.141316,1975678,196,847,1556,-1039,-575,-329,39,189,-131
15420,6372,0,2023-03-01T18:56:26.147119,1975685,196,847,1556,-1039,-575,-329,39,189,-131
15421,6373,0,2023-03-01T18:56:26.152099,1975690,197,845,1551,-1037,-572,-320,39,189,-131
15422,6374,0,2023-03-01T18:56:26.159260,1975697,197,845,1551,-1037,-572,-320,39,189,-131
15423,6375,0,2023-03-01T18:56:26.164709,1975702,197,845,1551,-1037,-572,-320,39,189,-131
15424,6376,0,2023-03-01T18:56:26.169338,1975707,199,846,1546,-1037,-569,-329,39,189,-131
15425,6377,0,2023-03-01T18:56:26.176691,1975714,199,846,1546,-1037,-569,-329,39,189,-131
15426,6378,0,2023-03-01T18:56:26.181764,1975719,199,846,1546,-1037,-569,-329,39,189,-131
15427,6379,0,2023-03-01T18:56:26.186681,1975725,199,846,1546,-1037,-569,-329,39,189,-131
15428,6380,0,2023-03-01T18:56:26.191228,1975729,195,846,1554,-1034,-572,-322,34,186,-122
15429,6381,0,2023-03-01T18:56:26.198840,1975736,195,846,1554,-1034,-572,-322,34,186,-122
15430,6382,0,2023-03-01T18:56:26.204125,1975742,195,846,1554,-1034,-572,-322,34,186,-122
15431,6383,0,2023-03-01T18:56:26.209286,1975747,196,845,1554,-1038,-568,-321,34,186,-122
15432,6384,0,2023-03-01T18:56:26.216467,1975753,196,845,1554,-1038,-568,-321,34,186,-122
15433,6385,0,2023-03-01T18:56:26.221475,1975759,196,845,1554,-1038,-568,-321,34,186,-122
15434,6386,0,2023-03-01T18:56:26.226499,1975764,196,845,1554,-1038,-568,-321,34,186,-122
15435,6387,0,2023-03-01T18:56:26.231691,1975769,199,847,1551,-1033,-568,-326,34,186,-122
15436,6388,0,2023-03-01T18:56:26.239846,1975777,199,847,1551,-1033,-568,-326,34,186,-122
15437,6389,0,2023-03-01T18:56:26.244981,1975782,199,847,1551,-1033,-568,-326,34,186,-122
15438,6390,0,2023-03-01T18:56:26.250669,1975788,198,847,1553,-1032,-572,-324,34,186,-122
15439,6391,0,2023-03-01T18:56:26.259695,1975796,198,847,1553,-1032,-572,-324,34,186,-122
15440,6392,0,2023-03-01T18:56:26.264860,1975802,198,847,1553,-1032,-572,-324,34,186,-122
15441,6393,0,2023-03-01T18:56:26.269688,1975808,196,848,1552,-1034,-570,-320,34,186,-122
15442,6394,0,2023-03-01T18:56:26.276059,1975814,196,848,1552,-1034,-570,-320,34,186,-122
15443,6395,0,2023-03-01T18:56:26.281150,1975819,196,848,1552,-1034,-570,-320,34,186,-122
15444,6396,0,2023-03-01T18:56:26.285985,1975824,196,848,1552,-1034,-570,-320,34,186,-122
15445,6397,0,2023-03-01T18:56:26.291145,1975829,197,846,1555,-1026,-567,-319,34,186,-122
15446,6398,0,2023-03-01T18:56:26.298078,1975836,197,846,1555,-1026,-567,-319,34,186,-122
15447,6399,0,2023-03-01T18:56:26.302648,1975840,197,846,1555,-1026,-567,-319,34,186,-122
15448,6400,0,2023-03-01T18:56:26.307532,1975845,197,846,1555,-1026,-567,-319,34,186,-122
15449,6401,0,2023-03-01T18:56:26.313490,1975851,198,847,1555,-1029,-560,-318,35,181,-121
15450,6402,0,2023-03-01T18:56:26.319664,1975858,198,847,1555,-1029,-560,-318,35,181,-121
15451,6403,0,2023-03-01T18:56:26.324545,1975863,198,847,1555,-1029,-560,-318,35,181,-121
15452,6404,0,2023-03-01T18:56:26.329410,1975867,198,846,1552,-1030,-570,-317,35,181,-121
15453,6405,0,2023-03-01T18:56:26.334954,1975872,198,846,1552,-1030,-570,-317,35,181,-121
15454,6406,0,2023-03-01T18:56:26.340884,1975878,198,846,1552,-1030,-570,-317,35,181,-121
15455,6407,0,2023-03-01T18:56:26.346427,1975883,198,846,1552,-1030,-570,-317,35,181,-121
15456,6408,0,2023-03-01T18:56:26.351592,1975889,198,846,1552,-1030,-570,-317,35,181,-121
15457,6409,0,2023-03-01T18:56:26.357265,1975895,198,846,1552,-1030,-570,-317,35,181,-121
15458,6410,0,2023-03-01T18:56:26.364219,1975900,198,846,1552,-1030,-570,-317,35,181,-121
15459,6411,0,2023-03-01T18:56:26.371125,1975908,198,846,1558,-1035,-574,-322,35,181,-121
15460,6412,0,2023-03-01T18:56:26.377995,1975915,198,846,1558,-1035,-574,-322,35,181,-121
15461,6413,0,2023-03-01T18:56:26.383467,1975921,198,846,1558,-1035,-574,-322,35,181,-121
15462,6414,0,2023-03-01T18:56:26.388033,1975926,196,847,1560,-1036,-575,-323,35,181,-121
15463,6415,0,2023-03-01T18:56:26.394348,1975932,196,847,1560,-1036,-575,-323,35,181,-121
15464,6416,0,2023-03-01T18:56:26.399100,1975937,196,847,1560,-1036,-575,-323,35,181,-121
15465,6417,0,2023-03-01T18:56:26.404449,1975942,196,847,1560,-1036,-575,-323,35,181,-121
15466,6418,0,2023-03-01T18:56:26.409454,1975947,199,846,1554,-1036,-571,-326,35,181,-121
15467,6419,0,2023-03-01T18:56:26.415587,1975953,199,846,1554,-1036,-571,-326,35,181,-121
15468,6420,0,2023-03-01T18:56:26.420798,1975958,199,846,1554,-1036,-571,-326,35,181,-121
15469,6421,0,2023-03-01T18:56:26.426090,1975963,199,846,1554,-1036,-571,-326,35,181,-121
15470,6422,0,2023-03-01T18:56:26.431710,1975969,197,847,1552,-1029,-567,-321,35,181,-121
15471,6423,0,2023-03-01T18:56:26.437527,1975975,197,847,1552,-1029,-567,-321,35,181,-121
15472,6424,0,2023-03-01T18:56:26.442479,1975981,197,847,1552,-1029,-567,-321,35,181,-121
15473,6425,0,2023-03-01T18:56:26.447305,1975985,197,847,1552,-1029,-567,-321,35,181,-121
15474,6426,0,2023-03-01T18:56:26.452328,1975990,194,845,1559,-1031,-566,-315,41,185,-129
15475,6427,0,2023-03-01T18:56:26.459524,1975997,194,845,1559,-1031,-566,-315,41,185,-129
15476,6428,0,2023-03-01T18:56:26.464637,1976002,194,845,1559,-1031,-566,-315,41,185,-129
15477,6429,0,2023-03-01T18:56:26.469252,1976007,199,845,1553,-1028,-571,-316,41,185,-129
15478,6430,0,2023-03-01T18:56:26.475150,1976012,199,845,1553,-1028,-571,-316,41,185,-129
15479,6431,0,2023-03-01T18:56:26.480232,1976017,199,845,1553,-1028,-571,-316,41,185,-129
15480,6432,0,2023-03-01T18:56:26.485656,1976023,199,845,1553,-1028,-571,-316,41,185,-129
15481,6433,0,2023-03-01T18:56:26.490933,1976029,199,847,1548,-1032,-571,-317,41,185,-129
15482,6434,0,2023-03-01T18:56:26.497545,1976036,199,847,1548,-1032,-571,-317,41,185,-129
15483,6435,0,2023-03-01T18:56:26.502287,1976040,199,847,1548,-1032,-571,-317,41,185,-129
15484,6436,0,2023-03-01T18:56:26.507708,1976045,199,847,1548,-1032,-571,-317,41,185,-129
15485,6437,0,2023-03-01T18:56:26.513179,1976051,195,848,1555,-1032,-576,-321,41,185,-129
15486,6438,0,2023-03-01T18:56:26.519733,1976056,195,848,1555,-1032,-576,-321,41,185,-129
15487,6439,0,2023-03-01T18:56:26.524750,1976062,195,848,1555,-1032,-576,-321,41,185,-129
15488,6440,0,2023-03-01T18:56:26.529507,1976068,197,846,1555,-1034,-576,-323,41,185,-129
15489,6441,0,2023-03-01T18:56:26.536020,1976073,197,846,1555,-1034,-576,-323,41,185,-129
15490,6442,0,2023-03-01T18:56:26.541385,1976079,197,846,1555,-1034,-576,-323,41,185,-129
15491,6443,0,2023-03-01T18:56:26.546306,1976084,197,846,1555,-1034,-576,-323,41,185,-129
15492,6444,0,2023-03-01T18:56:26.551333,1976089,200,849,1555,-1040,-571,-322,41,185,-129
15493,6445,0,2023-03-01T18:56:26.556608,1976094,200,849,1555,-1040,-571,-322,41,185,-129
15494,6446,0,2023-03-01T18:56:26.561563,1976099,200,849,1555,-1040,-571,-322,41,185,-129
15495,6447,0,2023-03-01T18:56:26.566527,1976103,200,849,1555,-1040,-571,-322,41,185,-129
15496,6448,0,2023-03-01T18:56:26.571868,1976110,197,848,1559,-1036,-579,-320,36,180,-124
15497,6449,0,2023-03-01T18:56:26.578642,1976117,197,848,1559,-1036,-579,-320,36,180,-124
15498,6450,0,2023-03-01T18:56:26.583693,1976121,197,848,1559,-1036,-579,-320,36,180,-124
15499,6451,0,2023-03-01T18:56:26.589937,1976128,199,844,1554,-1025,-570,-321,36,180,-124
15500,6452,0,2023-03-01T18:56:26.596147,1976134,199,844,1554,-1025,-570,-321,36,180,-124
15501,6453,0,2023-03-01T18:56:26.600859,1976138,199,844,1554,-1025,-570,-321,36,180,-124
15502,6454,0,2023-03-01T18:56:26.605886,1976143,199,844,1554,-1025,-570,-321,36,180,-124
15503,6455,0,2023-03-01T18:56:26.610800,1976148,199,845,1561,-1037,-572,-317,36,180,-124
15504,6456,0,2023-03-01T18:56:26.616833,1976155,199,845,1561,-1037,-572,-317,36,180,-124
15505,6457,0,2023-03-01T18:56:26.621921,1976160,199,845,1561,-1037,-572,-317,36,180,-124
15506,6458,0,2023-03-01T18:56:26.627019,1976165,199,845,1561,-1037,-572,-317,36,180,-124
15507,6459,0,2023-03-01T18:56:26.632274,1976170,195,846,1557,-1030,-571,-323,36,180,-124
15508,6460,0,2023-03-01T18:56:26.638899,1976176,195,846,1557,-1030,-571,-323,36,180,-124
15509,6461,0,2023-03-01T18:56:26.643437,1976181,195,846,1557,-1030,-571,-323,36,180,-124
15510,6462,0,2023-03-01T18:56:26.648095,1976185,195,846,1558,-1043,-564,-327,36,180,-124
15511,6463,0,2023-03-01T18:56:26.654956,1976193,195,846,1558,-1043,-564,-327,36,180,-124
15512,6464,0,2023-03-01T18:56:26.660241,1976198,195,846,1558,-1043,-564,-327,36,180,-124
15513,6465,0,2023-03-01T18:56:26.666083,1976203,195,846,1558,-1043,-564,-327,36,180,-124
15514,6466,0,2023-03-01T18:56:26.670985,1976209,199,848,1552,-1037,-569,-326,36,180,-124
15515,6467,0,2023-03-01T18:56:26.677757,1976215,199,848,1552,-1037,-569,-326,36,180,-124
15516,6468,0,2023-03-01T18:56:26.683637,1976221,199,848,1552,-1037,-569,-326,36,180,-124
15517,6469,0,2023-03-01T18:56:26.689050,1976226,194,846,1554,-1036,-566,-322,36,180,-124
15518,6470,0,2023-03-01T18:56:26.695848,1976233,194,846,1554,-1036,-566,-322,36,180,-124
15519,6471,0,2023-03-01T18:56:26.700906,1976239,194,846,1554,-1036,-566,-322,36,180,-124
15520,6472,0,2023-03-01T18:56:26.705701,1976244,194,846,1554,-1036,-566,-322,36,180,-124
15521,6473,0,2023-03-01T18:56:26.710881,1976248,198,849,1554,-1043,-577,-320,35,183,-123
15522,6474,0,2023-03-01T18:56:26.717886,1976255,198,849,1554,-1043,-577,-320,35,183,-123
15523,6475,0,2023-03-01T18:56:26.723914,1976260,198,849,1554,-1043,-577,-320,35,183,-123
15524,6476,0,2023-03-01T18:56:26.729251,1976266,197,846,1557,-1035,-577,-324,35,183,-123
15525,6477,0,2023-03-01T18:56:26.736431,1976273,197,846,1557,-1035,-577,-324,35,183,-123
15526,6478,0,2023-03-01T18:56:26.742217,1976280,197,846,1557,-1035,-577,-324,35,183,-123
15527,6479,0,2023-03-01T18:56:26.747687,1976285,197,846,1557,-1035,-577,-324,35,183,-123
15528,6480,0,2023-03-01T18:56:26.752643,1976291,199,845,1553,-1033,-574,-324,35,183,-123
15529,6481,0,2023-03-01T18:56:26.759817,1976297,199,845,1553,-1033,-574,-324,35,183,-123
15530,6482,0,2023-03-01T18:56:26.765292,1976303,199,845,1553,-1033,-574,-324,35,183,-123
15531,6483,0,2023-03-01T18:56:26.770644,1976308,198,846,1553,-1026,-567,-328,35,183,-123
15532,6484,0,2023-03-01T18:56:26.778478,1976315,198,846,1553,-1026,-567,-328,35,183,-123
15533,6485,0,2023-03-01T18:56:26.783347,1976322,198,846,1553,-1026,-567,-328,35,183,-123
15534,6486,0,2023-03-01T18:56:26.788775,1976326,197,846,1555,-1036,-562,-325,35,183,-123
15535,6487,0,2023-03-01T18:56:26.793530,1976331,197,846,1555,-1036,-562,-325,35,183,-123
15536,6488,0,2023-03-01T18:56:26.798684,1976336,197,846,1555,-1036,-562,-325,35,183,-123
15537,6489,0,2023-03-01T18:56:26.803966,1976341,197,846,1555,-1036,-562,-325,35,183,-123
15538,6490,0,2023-03-01T18:56:26.811006,1976348,197,844,1553,-1043,-571,-324,35,183,-123
15539,6491,0,2023-03-01T18:56:26.817751,1976355,197,844,1553,-1043,-571,-324,35,183,-123
15540,6492,0,2023-03-01T18:56:26.822750,1976360,197,844,1553,-1043,-571,-324,35,183,-123
15541,6493,0,2023-03-01T18:56:26.827936,1976366,197,844,1553,-1043,-571,-324,35,183,-123
15542,6494,0,2023-03-01T18:56:26.833843,1976372,194,845,1558,-1053,-575,-328,35,181,-123
15543,6495,0,2023-03-01T18:56:26.839735,1976378,194,845,1558,-1053,-575,-328,35,181,-123
15544,6496,0,2023-03-01T18:56:26.844695,1976382,194,845,1558,-1053,-575,-328,35,181,-123
15545,6497,0,2023-03-01T18:56:26.849917,1976387,197,844,1559,-1037,-572,-333,35,181,-123
15546,6498,0,2023-03-01T18:56:26.856734,1976394,197,844,1559,-1037,-572,-333,35,181,-123
15547,6499,0,2023-03-01T18:56:26.861304,1976399,197,844,1559,-1037,-572,-333,35,181,-123
15548,6500,0,2023-03-01T18:56:26.866250,1976403,197,844,1559,-1037,-572,-333,35,181,-123
15549,6501,0,2023-03-01T18:56:26.870968,1976409,195,846,1557,-1026,-566,-329,35,181,-123
15550,6502,0,2023-03-01T18:56:26.878144,1976416,195,846,1557,-1026,-566,-329,35,181,-123
15551,6503,0,2023-03-01T18:56:26.883476,1976421,195,846,1557,-1026,-566,-329,35,181,-123
15552,6504,0,2023-03-01T18:56:26.888382,1976426,195,846,1557,-1026,-566,-329,35,181,-123
15553,6505,0,2023-03-01T18:56:26.893949,1976431,197,847,1547,-1030,-569,-322,35,181,-123
15554,6506,0,2023-03-01T18:56:26.900042,1976437,197,847,1547,-1030,-569,-322,35,181,-123
15555,6507,0,2023-03-01T18:56:26.904854,1976442,197,847,1547,-1030,-569,-322,35,181,-123
15556,6508,0,2023-03-01T18:56:26.909640,1976448,197,846,1554,-1029,-577,-322,35,181,-123
15557,6509,0,2023-03-01T18:56:26.918714,1976456,197,846,1554,-1029,-577,-322,35,181,-123
15558,6510,0,2023-03-01T18:56:26.923696,1976462,197,846,1554,-1029,-577,-322,35,181,-123
15559,6511,0,2023-03-01T18:56:26.928827,1976466,199,845,1556,-1037,-567,-318,35,181,-123
15560,6512,0,2023-03-01T18:56:26.935299,1976473,199,845,1556,-1037,-567,-318,35,181,-123
15561,6513,0,2023-03-01T18:56:26.940322,1976478,199,845,1556,-1037,-567,-318,35,181,-123
15562,6514,0,2023-03-01T18:56:26.945294,1976483,199,845,1556,-1037,-567,-318,35,181,-123
15563,6515,0,2023-03-01T18:56:26.950031,1976487,199,845,1556,-1037,-567,-318,35,181,-123
15564,6516,0,2023-03-01T18:56:26.955894,1976494,199,845,1556,-1037,-567,-318,35,181,-123
15565,6517,0,2023-03-01T18:56:26.960891,1976499,199,845,1556,-1037,-567,-318,35,181,-123
15566,6518,0,2023-03-01T18:56:26.966213,1976504,199,845,1556,-1037,-567,-318,35,181,-123
15567,6519,0,2023-03-01T18:56:26.971318,1976509,195,845,1557,-1043,-572,-324,45,191,-117
15568,6520,0,2023-03-01T18:56:26.976985,1976514,195,845,1557,-1043,-572,-324,45,191,-117
15569,6521,0,2023-03-01T18:56:26.981827,1976519,195,845,1557,-1043,-572,-324,45,191,-117
15570,6522,0,2023-03-01T18:56:26.986457,1976524,195,845,1557,-1043,-572,-324,45,191,-117
15571,6523,0,2023-03-01T18:56:26.991899,1976529,197,845,1558,-1023,-568,-320,45,191,-117
15572,6524,0,2023-03-01T18:56:26.998408,1976537,197,845,1558,-1023,-568,-320,45,191,-117
15573,6525,0,2023-03-01T18:56:27.003151,1976541,197,845,1558,-1023,-568,-320,45,191,-117
15574,6526,0,2023-03-01T18:56:27.008600,1976546,196,846,1552,-1034,-569,-319,45,191,-117
15575,6527,0,2023-03-01T18:56:27.014053,1976552,196,846,1552,-1034,-569,-319,45,191,-117
15576,6528,0,2023-03-01T18:56:27.020147,1976557,196,846,1552,-1034,-569,-319,45,191,-117
15577,6529,0,2023-03-01T18:56:27.026058,1976563,196,846,1552,-1034,-569,-319,45,191,-117
15578,6530,0,2023-03-01T18:56:27.031012,1976569,196,849,1555,-1043,-572,-317,45,191,-117
15579,6531,0,2023-03-01T18:56:27.037878,1976576,196,849,1555,-1043,-572,-317,45,191,-117
15580,6532,0,2023-03-01T18:56:27.043926,1976581,196,849,1555,-1043,-572,-317,45,191,-117
15581,6533,0,2023-03-01T18:56:27.048921,1976587,197,846,1553,-1037,-570,-311,45,191,-117
15582,6534,0,2023-03-01T18:56:27.055782,1976594,197,846,1553,-1037,-570,-311,45,191,-117
15583,6535,0,2023-03-01T18:56:27.061147,1976599,197,846,1553,-1037,-570,-311,45,191,-117
15584,6536,0,2023-03-01T18:56:27.066094,1976604,197,846,1553,-1037,-570,-311,45,191,-117
15585,6537,0,2023-03-01T18:56:27.070859,1976608,197,848,1553,-1035,-574,-317,45,191,-117
15586,6538,0,2023-03-01T18:56:27.077743,1976615,197,848,1553,-1035,-574,-317,45,191,-117
15587,6539,0,2023-03-01T18:56:27.082959,1976621,197,848,1553,-1035,-574,-317,45,191,-117
15588,6540,0,2023-03-01T18:56:27.088379,1976626,197,848,1553,-1035,-574,-317,45,191,-117
15589,6541,0,2023-03-01T18:56:27.093700,1976632,195,848,1556,-1033,-577,-334,31,187,-121
15590,6542,0,2023-03-01T18:56:27.099985,1976637,195,848,1556,-1033,-577,-334,31,187,-121
15591,6543,0,2023-03-01T18:56:27.104851,1976642,195,848,1556,-1033,-577,-334,31,187,-121
15592,6544,0,2023-03-01T18:56:27.111390,1976648,198,846,1559,-1037,-566,-317,31,187,-121
15593,6545,0,2023-03-01T18:56:27.118035,1976655,198,846,1559,-1037,-566,-317,31,187,-121
15594,6546,0,2023-03-01T18:56:27.123019,1976660,198,846,1559,-1037,-566,-317,31,187,-121
15595,6547,0,2023-03-01T18:56:27.127684,1976666,198,846,1559,-1037,-566,-317,31,187,-121
15596,6548,0,2023-03-01T18:56:27.133518,1976671,197,847,1559,-1040,-573,-324,31,187,-121
15597,6549,0,2023-03-01T18:56:27.140101,1976678,197,847,1559,-1040,-573,-324,31,187,-121
15598,6550,0,2023-03-01T18:56:27.145153,1976683,197,847,1559,-1040,-573,-324,31,187,-121
15599,6551,0,2023-03-01T18:56:27.150356,1976688,199,844,1554,-1039,-572,-320,31,187,-121
15600,6552,0,2023-03-01T18:56:27.156517,1976694,199,844,1554,-1039,-572,-320,31,187,-121
15601,6553,0,2023-03-01T18:56:27.161644,1976699,199,844,1554,-1039,-572,-320,31,187,-121
15602,6554,0,2023-03-01T18:56:27.166870,1976705,199,844,1554,-1039,-572,-320,31,187,-121
15603,6555,0,2023-03-01T18:56:27.171931,1976710,196,844,1558,-1039,-571,-321,31,187,-121
15604,6556,0,2023-03-01T18:56:27.178567,1976716,196,844,1558,-1039,-571,-321,31,187,-121
15605,6557,0,2023-03-01T18:56:27.183718,1976721,196,844,1558,-1039,-571,-321,31,187,-121
15606,6558,0,2023-03-01T18:56:27.189355,1976727,198,850,1560,-1030,-573,-318,31,187,-121
15607,6559,0,2023-03-01T18:56:27.195870,1976733,198,850,1560,-1030,-573,-318,31,187,-121
15608,6560,0,2023-03-01T18:56:27.200825,1976738,198,850,1560,-1030,-573,-318,31,187,-121
15609,6561,0,2023-03-01T18:56:27.205663,1976743,198,850,1560,-1030,-573,-318,31,187,-121
15610,6562,0,2023-03-01T18:56:27.210449,1976749,200,849,1558,-1028,-572,-321,40,186,-118
15611,6563,0,2023-03-01T18:56:27.217427,1976755,200,849,1558,-1028,-572,-321,40,186,-118
15612,6564,0,2023-03-01T18:56:27.222415,1976760,200,849,1558,-1028,-572,-321,40,186,-118
15613,6565,0,2023-03-01T18:56:27.228079,1976766,200,849,1558,-1028,-572,-321,40,186,-118
15614,6566,0,2023-03-01T18:56:27.233805,1976771,200,846,1560,-1034,-569,-327,40,186,-118
15615,6567,0,2023-03-01T18:56:27.240007,1976777,200,846,1560,-1034,-569,-327,40,186,-118
15616,6568,0,2023-03-01T18:56:27.245938,1976783,200,846,1560,-1034,-569,-327,40,186,-118
15617,6569,0,2023-03-01T18:56:27.251259,1976788,198,847,1554,-1034,-569,-322,40,186,-118
15618,6570,0,2023-03-01T18:56:27.258493,1976796,198,847,1554,-1034,-569,-322,40,186,-118
15619,6571,0,2023-03-01T18:56:27.263467,1976801,198,847,1554,-1034,-569,-322,40,186,-118
15620,6572,0,2023-03-01T18:56:27.269033,1976806,198,847,1554,-1034,-569,-322,40,186,-118
15621,6573,0,2023-03-01T18:56:27.275076,1976813,200,850,1554,-1035,-570,-319,40,186,-118
15622,6574,0,2023-03-01T18:56:27.281412,1976819,200,850,1554,-1035,-570,-319,40,186,-118
15623,6575,0,2023-03-01T18:56:27.286096,1976823,200,850,1554,-1035,-570,-319,40,186,-118
15624,6576,0,2023-03-01T18:56:27.291074,1976828,194,847,1556,-1035,-569,-323,40,186,-118
15625,6577,0,2023-03-01T18:56:27.297248,1976835,194,847,1556,-1035,-569,-323,40,186,-118
15626,6578,0,2023-03-01T18:56:27.302357,1976840,194,847,1556,-1035,-569,-323,40,186,-118
15627,6579,0,2023-03-01T18:56:27.308110,1976846,194,847,1556,-1035,-569,-323,40,186,-118
15628,6580,0,2023-03-01T18:56:27.313969,1976852,200,848,1554,-1039,-571,-321,40,186,-118
15629,6581,0,2023-03-01T18:56:27.319924,1976857,200,848,1554,-1039,-571,-321,40,186,-118
15630,6582,0,2023-03-01T18:56:27.325062,1976862,200,848,1554,-1039,-571,-321,40,186,-118
15631,6583,0,2023-03-01T18:56:27.329944,1976867,198,845,1553,-1035,-571,-320,40,186,-118
15632,6584,0,2023-03-01T18:56:27.336868,1976875,198,845,1553,-1035,-571,-320,40,186,-118
15633,6585,0,2023-03-01T18:56:27.341817,1976880,198,845,1553,-1035,-571,-320,40,186,-118
15634,6586,0,2023-03-01T18:56:27.346884,1976885,198,845,1553,-1035,-571,-320,40,186,-118
15635,6587,0,2023-03-01T18:56:27.352237,1976890,195,846,1557,-1031,-574,-317,35,185,-123
15636,6588,0,2023-03-01T18:56:27.359038,1976896,195,846,1557,-1031,-574,-317,35,185,-123
