,Unnamed: 0,imu,server_time,arduino_time,ax,ay,az,gx,gy,gz,mx,my,mz
17851,8803,0,2023-03-01T18:56:39.800886,1989340,-429,-176,1548,-1040,-562,-322,76,266,-98
17852,8804,0,2023-03-01T18:56:39.805905,1989344,-429,-174,1549,-1043,-564,-319,76,266,-98
17853,8805,0,2023-03-01T18:56:39.811347,1989350,-429,-174,1549,-1043,-564,-319,76,266,-98
17854,8806,0,2023-03-01T18:56:39.816408,1989355,-429,-174,1549,-1043,-564,-319,76,266,-98
17855,8807,0,2023-03-01T18:56:39.821219,1989360,-429,-174,1549,-1043,-564,-319,76,266,-98
17856,8808,0,2023-03-01T18:56:39.826178,1989364,-432,-182,1543,-1035,-568,-321,84,272,-90
17857,8809,0,2023-03-01T18:56:39.832114,1989370,-432,-182,1543,-1035,-568,-321,84,272,-90
17858,8810,0,2023-03-01T18:56:39.837828,1989377,-432,-182,1543,-1035,-568,-321,84,272,-90
17859,8811,0,2023-03-01T18:56:39.843079,1989382,-432,-182,1543,-1035,-568,-321,84,272,-90
17860,8812,0,2023-03-01T18:56:39.848738,1989387,-432,-178,1547,-1033,-573,-334,84,272,-90
17861,8813,0,2023-03-01T18:56:39.857165,1989395,-432,-178,1547,-1033,-573,-334,84,272,-90
17862,8814,0,2023-03-01T18:56:39.862724,1989401,-432,-178,1547,-1033,-573,-334,84,272,-90
17863,8815,0,2023-03-01T18:56:39.868245,1989406,-426,-180,1541,-1037,-577,-333,84,272,-90
17864,8816,0,2023-03-01T18:56:39.874040,1989412,-426,-180,1541,-1037,-577,-333,84,272,-90
17865,8817,0,2023-03-01T18:56:39.879568,1989417,-426,-180,1541,-1037,-577,-333,84,272,-90
17866,8818,0,2023-03-01T18:56:39.884950,1989423,-426,-180,1541,-1037,-577,-333,84,272,-90
17867,8819,0,2023-03-01T18:56:39.889701,1989428,-427,-176,1541,-1033,-585,-319,84,272,-90
17868,8820,0,2023-03-01T18:56:39.895408,1989434,-427,-176,1541,-1033,-585,-319,84,272,-90
17869,8821,0,2023-03-01T18:56:39.900962,1989439,-427,-176,1541,-1033,-585,-319,84,272,-90
17870,8822,0,2023-03-01T18:56:39.906995,1989445,-426,-176,1541,-1038,-573,-316,84,272,-90
17871,8823,0,2023-03-01T18:56:39.912942,1989451,-426,-176,1541,-1038,-573,-316,84,272,-90
17872,8824,0,2023-03-01T18:56:39.918853,1989457,-426,-176,1541,-1038,-573,-316,84,272,-90
17873,8825,0,2023-03-01T18:56:39.923695,1989463,-426,-176,1541,-1038,-573,-316,84,272,-90
17874,8826,0,2023-03-01T18:56:39.929193,1989468,-429,-176,1548,-1043,-571,-324,84,272,-90
17875,8827,0,2023-03-01T18:56:39.935450,1989474,-429,-176,1548,-1043,-571,-324,84,272,-90
17876,8828,0,2023-03-01T18:56:39.941456,1989480,-429,-176,1548,-1043,-571,-324,84,272,-90
17877,8829,0,2023-03-01T18:56:39.946451,1989485,-427,-176,1546,-1044,-566,-325,79,267,-93
17878,8830,0,2023-03-01T18:56:39.951805,1989490,-427,-176,1546,-1044,-566,-325,79,267,-93
17879,8831,0,2023-03-01T18:56:39.957432,1989495,-427,-176,1546,-1044,-566,-325,79,267,-93
17880,8832,0,2023-03-01T18:56:39.962810,1989500,-427,-176,1546,-1044,-566,-325,79,267,-93
17881,8833,0,2023-03-01T18:56:39.969121,1989508,-425,-176,1551,-1041,-565,-326,79,267,-93
17882,8834,0,2023-03-01T18:56:39.974928,1989514,-425,-176,1551,-1041,-565,-326,79,267,-93
17883,8835,0,2023-03-01T18:56:39.979378,1989518,-425,-176,1551,-1041,-565,-326,79,267,-93
17884,8836,0,2023-03-01T18:56:39.984321,1989523,-425,-176,1551,-1041,-565,-326,79,267,-93
17885,8837,0,2023-03-01T18:56:39.989018,1989527,-428,-178,1546,-1033,-570,-319,79,267,-93
17886,8838,0,2023-03-01T18:56:39.995003,1989533,-428,-178,1546,-1033,-570,-319,79,267,-93
17887,8839,0,2023-03-01T18:56:40.001294,1989539,-428,-178,1546,-1033,-570,-319,79,267,-93
17888,8840,0,2023-03-01T18:56:40.006890,1989545,-424,-175,1540,-1033,-572,-320,79,267,-93
17889,8841,0,2023-03-01T18:56:40.012404,1989551,-424,-175,1540,-1033,-572,-320,79,267,-93
17890,8842,0,2023-03-01T18:56:40.018063,1989556,-424,-175,1540,-1033,-572,-320,79,267,-93
17891,8843,0,2023-03-01T18:56:40.023338,1989561,-424,-175,1540,-1033,-572,-320,79,267,-93
17892,8844,0,2023-03-01T18:56:40.029470,1989568,-430,-174,1541,-1024,-569,-320,79,267,-93
17893,8845,0,2023-03-01T18:56:40.035177,1989573,-430,-174,1541,-1024,-569,-320,79,267,-93
17894,8846,0,2023-03-01T18:56:40.040387,1989579,-430,-174,1541,-1024,-569,-320,79,267,-93
17895,8847,0,2023-03-01T18:56:40.045810,1989584,-423,-175,1545,-1032,-570,-326,79,267,-93
17896,8848,0,2023-03-01T18:56:40.051629,1989590,-423,-175,1545,-1032,-570,-326,79,267,-93
17897,8849,0,2023-03-01T18:56:40.057440,1989595,-423,-175,1545,-1032,-570,-326,79,267,-93
17898,8850,0,2023-03-01T18:56:40.062683,1989602,-423,-175,1545,-1032,-570,-326,79,267,-93
17899,8851,0,2023-03-01T18:56:40.068292,1989607,-426,-177,1542,-1038,-575,-327,79,267,-93
17900,8852,0,2023-03-01T18:56:40.074355,1989612,-426,-177,1542,-1038,-575,-327,79,267,-93
17901,8853,0,2023-03-01T18:56:40.080760,1989619,-426,-177,1542,-1038,-575,-327,79,267,-93
17902,8854,0,2023-03-01T18:56:40.086972,1989625,-430,-177,1548,-1039,-576,-320,71,263,-93
17903,8855,0,2023-03-01T18:56:40.092546,1989632,-430,-177,1548,-1039,-576,-320,71,263,-93
17904,8856,0,2023-03-01T18:56:40.097890,1989637,-430,-177,1548,-1039,-576,-320,71,263,-93
17905,8857,0,2023-03-01T18:56:40.102837,1989641,-430,-177,1548,-1039,-576,-320,71,263,-93
17906,8858,0,2023-03-01T18:56:40.108990,1989648,-429,-175,1550,-1029,-568,-319,71,263,-93
17907,8859,0,2023-03-01T18:56:40.114590,1989653,-429,-175,1550,-1029,-568,-319,71,263,-93
17908,8860,0,2023-03-01T18:56:40.119909,1989658,-429,-175,1550,-1029,-568,-319,71,263,-93
17909,8861,0,2023-03-01T18:56:40.124571,1989663,-429,-175,1550,-1029,-568,-319,71,263,-93
17910,8862,0,2023-03-01T18:56:40.129694,1989667,-426,-179,1544,-1039,-572,-322,71,263,-93
17911,8863,0,2023-03-01T18:56:40.135195,1989673,-426,-179,1544,-1039,-572,-322,71,263,-93
17912,8864,0,2023-03-01T18:56:40.141300,1989680,-426,-179,1544,-1039,-572,-322,71,263,-93
17913,8865,0,2023-03-01T18:56:40.147110,1989686,-429,-179,1542,-1042,-579,-321,71,263,-93
17914,8866,0,2023-03-01T18:56:40.152600,1989691,-429,-179,1542,-1042,-579,-321,71,263,-93
17915,8867,0,2023-03-01T18:56:40.158165,1989696,-429,-179,1542,-1042,-579,-321,71,263,-93
17916,8868,0,2023-03-01T18:56:40.163176,1989701,-429,-179,1542,-1042,-579,-321,71,263,-93
17917,8869,0,2023-03-01T18:56:40.169840,1989708,-424,-178,1544,-1040,-576,-321,71,263,-93
17918,8870,0,2023-03-01T18:56:40.176385,1989714,-424,-178,1544,-1040,-576,-321,71,263,-93
17919,8871,0,2023-03-01T18:56:40.182155,1989721,-424,-178,1544,-1040,-576,-321,71,263,-93
17920,8872,0,2023-03-01T18:56:40.187845,1989727,-425,-179,1543,-1041,-568,-324,71,263,-93
17921,8873,0,2023-03-01T18:56:40.193619,1989732,-425,-179,1543,-1041,-568,-324,71,263,-93
17922,8874,0,2023-03-01T18:56:40.199229,1989738,-425,-179,1543,-1041,-568,-324,71,263,-93
17923,8875,0,2023-03-01T18:56:40.203959,1989742,-425,-179,1543,-1041,-568,-324,71,263,-93
17924,8876,0,2023-03-01T18:56:40.208915,1989747,-428,-175,1543,-1039,-573,-327,73,265,-99
17925,8877,0,2023-03-01T18:56:40.214623,1989753,-428,-175,1543,-1039,-573,-327,73,265,-99
17926,8878,0,2023-03-01T18:56:40.220264,1989758,-428,-175,1543,-1039,-573,-327,73,265,-99
17927,8879,0,2023-03-01T18:56:40.225616,1989764,-428,-177,1547,-1040,-573,-321,73,265,-99
17928,8880,0,2023-03-01T18:56:40.230901,1989770,-428,-177,1547,-1040,-573,-321,73,265,-99
17929,8881,0,2023-03-01T18:56:40.235643,1989774,-428,-177,1547,-1040,-573,-321,73,265,-99
17930,8882,0,2023-03-01T18:56:40.240940,1989779,-428,-177,1547,-1040,-573,-321,73,265,-99
17931,8883,0,2023-03-01T18:56:40.246557,1989784,-427,-179,1545,-1036,-578,-322,73,265,-99
17932,8884,0,2023-03-01T18:56:40.252376,1989790,-427,-179,1545,-1036,-578,-322,73,265,-99
17933,8885,0,2023-03-01T18:56:40.258238,1989796,-427,-179,1545,-1036,-578,-322,73,265,-99
17934,8886,0,2023-03-01T18:56:40.264139,1989803,-427,-179,1545,-1036,-578,-322,73,265,-99
17935,8887,0,2023-03-01T18:56:40.269454,1989808,-428,-177,1547,-1026,-582,-322,73,265,-99
17936,8888,0,2023-03-01T18:56:40.275485,1989814,-428,-177,1547,-1026,-582,-322,73,265,-99
17937,8889,0,2023-03-01T18:56:40.281297,1989820,-428,-177,1547,-1026,-582,-322,73,265,-99
17938,8890,0,2023-03-01T18:56:40.287248,1989825,-427,-178,1545,-1032,-574,-316,73,265,-99
17939,8891,0,2023-03-01T18:56:40.293008,1989831,-427,-178,1545,-1032,-574,-316,73,265,-99
17940,8892,0,2023-03-01T18:56:40.299279,1989837,-427,-178,1545,-1032,-574,-316,73,265,-99
17941,8893,0,2023-03-01T18:56:40.304372,1989842,-427,-178,1545,-1032,-574,-316,73,265,-99
17942,8894,0,2023-03-01T18:56:40.310726,1989849,-425,-177,1541,-1033,-571,-321,73,265,-99
17943,8895,0,2023-03-01T18:56:40.316262,1989855,-425,-177,1541,-1033,-571,-321,73,265,-99
17944,8896,0,2023-03-01T18:56:40.321738,1989860,-425,-177,1541,-1033,-571,-321,73,265,-99
17945,8897,0,2023-03-01T18:56:40.327483,1989866,-427,-174,1546,-1036,-567,-317,73,265,-99
17946,8898,0,2023-03-01T18:56:40.333214,1989871,-427,-174,1546,-1036,-567,-317,73,265,-99
17947,8899,0,2023-03-01T18:56:40.338753,1989877,-427,-174,1546,-1036,-567,-317,73,265,-99
17948,8900,0,2023-03-01T18:56:40.344066,1989882,-427,-174,1546,-1036,-567,-317,73,265,-99
17949,8901,0,2023-03-01T18:56:40.349978,1989889,-429,-176,1548,-1037,-575,-324,84,264,-88
17950,8902,0,2023-03-01T18:56:40.355788,1989894,-429,-176,1548,-1037,-575,-324,84,264,-88
17951,8903,0,2023-03-01T18:56:40.361740,1989900,-429,-176,1548,-1037,-575,-324,84,264,-88
17952,8904,0,2023-03-01T18:56:40.368003,1989906,-428,-177,1550,-1038,-572,-327,84,264,-88
17953,8905,0,2023-03-01T18:56:40.373892,1989912,-428,-177,1550,-1038,-572,-327,84,264,-88
17954,8906,0,2023-03-01T18:56:40.379489,1989918,-428,-177,1550,-1038,-572,-327,84,264,-88
17955,8907,0,2023-03-01T18:56:40.384796,1989923,-428,-177,1550,-1038,-572,-327,84,264,-88
17956,8908,0,2023-03-01T18:56:40.389503,1989928,-428,-175,1542,-1040,-577,-325,84,264,-88
17957,8909,0,2023-03-01T18:56:40.395233,1989934,-428,-175,1542,-1040,-577,-325,84,264,-88
17958,8910,0,2023-03-01T18:56:40.400865,1989939,-428,-175,1542,-1040,-577,-325,84,264,-88
17959,8911,0,2023-03-01T18:56:40.405954,1989944,-427,-179,1546,-1041,-580,-325,84,264,-88
17960,8912,0,2023-03-01T18:56:40.411909,1989950,-427,-179,1546,-1041,-580,-325,84,264,-88
17961,8913,0,2023-03-01T18:56:40.417667,1989956,-427,-179,1546,-1041,-580,-325,84,264,-88
17962,8914,0,2023-03-01T18:56:40.422685,1989961,-427,-179,1546,-1041,-580,-325,84,264,-88
17963,8915,0,2023-03-01T18:56:40.428199,1989966,-430,-175,1551,-1039,-587,-316,84,264,-88
17964,8916,0,2023-03-01T18:56:40.433476,1989972,-430,-175,1551,-1039,-587,-316,84,264,-88
17965,8917,0,2023-03-01T18:56:40.439222,1989978,-430,-175,1551,-1039,-587,-316,84,264,-88
17966,8918,0,2023-03-01T18:56:40.444414,1989983,-430,-175,1551,-1039,-587,-316,84,264,-88
17967,8919,0,2023-03-01T18:56:40.449131,1989988,-427,-175,1545,-1031,-576,-316,84,264,-88
17968,8920,0,2023-03-01T18:56:40.454489,1989993,-427,-175,1545,-1031,-576,-316,84,264,-88
17969,8921,0,2023-03-01T18:56:40.460073,1989999,-427,-175,1545,-1031,-576,-316,84,264,-88
17970,8922,0,2023-03-01T18:56:40.465031,1990003,-427,-175,1545,-1031,-576,-316,84,264,-88
17971,8923,0,2023-03-01T18:56:40.470854,1990009,-428,-174,1552,-1038,-578,-321,73,277,-87
17972,8924,0,2023-03-01T18:56:40.476793,1990014,-428,-174,1552,-1038,-578,-321,73,277,-87
17973,8925,0,2023-03-01T18:56:40.482689,1990021,-428,-174,1552,-1038,-578,-321,73,277,-87
17974,8926,0,2023-03-01T18:56:40.487336,1990026,-431,-174,1555,-1040,-579,-324,73,277,-87
17975,8927,0,2023-03-01T18:56:40.492993,1990031,-431,-174,1555,-1040,-579,-324,73,277,-87
17976,8928,0,2023-03-01T18:56:40.498567,1990037,-431,-174,1555,-1040,-579,-324,73,277,-87
17977,8929,0,2023-03-01T18:56:40.503413,1990042,-431,-174,1555,-1040,-579,-324,73,277,-87
17978,8930,0,2023-03-01T18:56:40.509963,1990047,-426,-177,1543,-1042,-581,-332,73,277,-87
17979,8931,0,2023-03-01T18:56:40.515786,1990054,-426,-177,1543,-1042,-581,-332,73,277,-87
17980,8932,0,2023-03-01T18:56:40.521533,1990060,-426,-177,1543,-1042,-581,-332,73,277,-87
17981,8933,0,2023-03-01T18:56:40.526565,1990065,-427,-177,1549,-1038,-573,-323,73,277,-87
17982,8934,0,2023-03-01T18:56:40.532146,1990071,-427,-177,1549,-1038,-573,-323,73,277,-87
17983,8935,0,2023-03-01T18:56:40.537996,1990076,-427,-177,1549,-1038,-573,-323,73,277,-87
17984,8936,0,2023-03-01T18:56:40.542919,1990081,-427,-177,1549,-1038,-573,-323,73,277,-87
17985,8937,0,2023-03-01T18:56:40.548019,1990086,-426,-177,1539,-1037,-567,-321,73,277,-87
17986,8938,0,2023-03-01T18:56:40.553767,1990092,-426,-177,1539,-1037,-567,-321,73,277,-87
17987,8939,0,2023-03-01T18:56:40.559685,1990097,-426,-177,1539,-1037,-567,-321,73,277,-87
17988,8940,0,2023-03-01T18:56:40.564419,1990103,-426,-177,1539,-1037,-567,-321,73,277,-87
17989,8941,0,2023-03-01T18:56:40.569196,1990108,-426,-176,1544,-1033,-570,-317,73,277,-87
17990,8942,0,2023-03-01T18:56:40.574983,1990113,-426,-176,1544,-1033,-570,-317,73,277,-87
17991,8943,0,2023-03-01T18:56:40.580389,1990119,-426,-176,1544,-1033,-570,-317,73,277,-87
17992,8944,0,2023-03-01T18:56:40.585372,1990124,-426,-176,1544,-1033,-570,-317,73,277,-87
17993,8945,0,2023-03-01T18:56:40.591634,1990130,-428,-177,1547,-1038,-573,-322,80,276,-92
17994,8946,0,2023-03-01T18:56:40.597483,1990136,-428,-177,1547,-1038,-573,-322,80,276,-92
17995,8947,0,2023-03-01T18:56:40.603429,1990141,-428,-177,1547,-1038,-573,-322,80,276,-92
17996,8948,0,2023-03-01T18:56:40.608878,1990148,-426,-173,1550,-1039,-574,-326,80,276,-92
17997,8949,0,2023-03-01T18:56:40.615418,1990153,-426,-173,1550,-1039,-574,-326,80,276,-92
17998,8950,0,2023-03-01T18:56:40.621883,1990160,-426,-173,1550,-1039,-574,-326,80,276,-92
17999,8951,0,2023-03-01T18:56:40.627940,1990166,-427,-179,1546,-1033,-576,-319,80,276,-92
18000,8952,0,2023-03-01T18:56:40.633559,1990172,-427,-179,1546,-1033,-576,-319,80,276,-92
18001,8953,0,2023-03-01T18:56:40.638240,1990176,-427,-179,1546,-1033,-576,-319,80,276,-92
18002,8954,0,2023-03-01T18:56:40.643679,1990181,-427,-179,1546,-1033,-576,-319,80,276,-92
18003,8955,0,2023-03-01T18:56:40.648867,1990188,-429,-180,1544,-1035,-580,-318,80,276,-92
18004,8956,0,2023-03-01T18:56:40.654570,1990193,-429,-180,1544,-1035,-580,-318,80,276,-92
18005,8957,0,2023-03-01T18:56:40.660122,1990199,-429,-180,1544,-1035,-580,-318,80,276,-92
18006,8958,0,2023-03-01T18:56:40.665168,1990203,-429,-180,1544,-1035,-580,-318,80,276,-92
18007,8959,0,2023-03-01T18:56:40.670983,1990209,-429,-176,1539,-1039,-582,-324,80,276,-92
18008,8960,0,2023-03-01T18:56:40.676580,1990215,-429,-176,1539,-1039,-582,-324,80,276,-92
18009,8961,0,2023-03-01T18:56:40.682351,1990220,-429,-176,1539,-1039,-582,-324,80,276,-92
18010,8962,0,2023-03-01T18:56:40.688526,1990226,-428,-177,1542,-1043,-576,-316,80,276,-92
18011,8963,0,2023-03-01T18:56:40.694619,1990233,-428,-177,1542,-1043,-576,-316,80,276,-92
18012,8964,0,2023-03-01T18:56:40.700442,1990239,-428,-177,1542,-1043,-576,-316,80,276,-92
18013,8965,0,2023-03-01T18:56:40.705353,1990244,-428,-177,1542,-1043,-576,-316,80,276,-92
18014,8966,0,2023-03-01T18:56:40.711217,1990250,-427,-177,1547,-1039,-575,-330,80,276,-92
18015,8967,0,2023-03-01T18:56:40.716668,1990255,-427,-177,1547,-1039,-575,-330,80,276,-92
18016,8968,0,2023-03-01T18:56:40.722484,1990260,-427,-177,1547,-1039,-575,-330,80,276,-92
18017,8969,0,2023-03-01T18:56:40.728809,1990266,-428,-174,1546,-1034,-576,-327,85,277,-95
18018,8970,0,2023-03-01T18:56:40.734852,1990274,-428,-174,1546,-1034,-576,-327,85,277,-95
18019,8971,0,2023-03-01T18:56:40.740823,1990279,-428,-174,1546,-1034,-576,-327,85,277,-95
18020,8972,0,2023-03-01T18:56:40.746043,1990284,-425,-177,1549,-1043,-573,-325,85,277,-95
18021,8973,0,2023-03-01T18:56:40.752290,1990291,-425,-177,1549,-1043,-573,-325,85,277,-95
18022,8974,0,2023-03-01T18:56:40.757565,1990296,-425,-177,1549,-1043,-573,-325,85,277,-95
18023,8975,0,2023-03-01T18:56:40.762418,1990301,-425,-177,1549,-1043,-573,-325,85,277,-95
18024,8976,0,2023-03-01T18:56:40.767802,1990306,-425,-176,1553,-1040,-575,-320,85,277,-95
18025,8977,0,2023-03-01T18:56:40.773725,1990311,-425,-176,1553,-1040,-575,-320,85,277,-95
18026,8978,0,2023-03-01T18:56:40.779933,1990318,-425,-176,1553,-1040,-575,-320,85,277,-95
18027,8979,0,2023-03-01T18:56:40.784923,1990324,-425,-176,1553,-1040,-575,-320,85,277,-95
18028,8980,0,2023-03-01T18:56:40.790660,1990329,-426,-178,1545,-1036,-574,-314,85,277,-95
18029,8981,0,2023-03-01T18:56:40.796693,1990335,-426,-178,1545,-1036,-574,-314,85,277,-95
18030,8982,0,2023-03-01T18:56:40.803027,1990341,-426,-178,1545,-1036,-574,-314,85,277,-95
18031,8983,0,2023-03-01T18:56:40.807985,1990346,-427,-178,1548,-1033,-569,-321,85,277,-95
18032,8984,0,2023-03-01T18:56:40.813729,1990352,-427,-178,1548,-1033,-569,-321,85,277,-95
18033,8985,0,2023-03-01T18:56:40.819391,1990358,-427,-178,1548,-1033,-569,-321,85,277,-95
18034,8986,0,2023-03-01T18:56:40.824535,1990363,-427,-178,1548,-1033,-569,-321,85,277,-95
18035,8987,0,2023-03-01T18:56:40.829865,1990368,-429,-180,1553,-1037,-568,-321,85,277,-95
18036,8988,0,2023-03-01T18:56:40.836894,1990375,-429,-180,1553,-1037,-568,-321,85,277,-95
18037,8989,0,2023-03-01T18:56:40.843320,1990382,-429,-180,1553,-1037,-568,-321,85,277,-95
18038,8990,0,2023-03-01T18:56:40.848880,1990387,-431,-177,1549,-1043,-574,-315,85,265,-81
18039,8991,0,2023-03-01T18:56:40.854718,1990393,-431,-177,1549,-1043,-574,-315,85,265,-81
18040,8992,0,2023-03-01T18:56:40.860835,1990398,-431,-177,1549,-1043,-574,-315,85,265,-81
18041,8993,0,2023-03-01T18:56:40.865445,1990404,-431,-177,1549,-1043,-574,-315,85,265,-81
18042,8994,0,2023-03-01T18:56:40.870444,1990409,-430,-175,1545,-1041,-578,-319,85,265,-81
18043,8995,0,2023-03-01T18:56:40.875986,1990415,-430,-175,1545,-1041,-578,-319,85,265,-81
18044,8996,0,2023-03-01T18:56:40.881540,1990420,-430,-175,1545,-1041,-578,-319,85,265,-81
18045,8997,0,2023-03-01T18:56:40.887089,1990425,-431,-180,1551,-1038,-572,-325,85,265,-81
18046,8998,0,2023-03-01T18:56:40.894140,1990431,-431,-180,1551,-1038,-572,-325,85,265,-81
18047,8999,0,2023-03-01T18:56:40.900014,1990438,-431,-180,1551,-1038,-572,-325,85,265,-81
18048,9000,0,2023-03-01T18:56:40.905349,1990444,-431,-180,1551,-1038,-572,-325,85,265,-81
18049,9001,0,2023-03-01T18:56:40.910625,1990449,-428,-176,1548,-1039,-573,-329,85,265,-81
18050,9002,0,2023-03-01T18:56:40.916841,1990455,-428,-176,1548,-1039,-573,-329,85,265,-81
18051,9003,0,2023-03-01T18:56:40.923054,1990461,-428,-176,1548,-1039,-573,-329,85,265,-81
18052,9004,0,2023-03-01T18:56:40.928753,1990467,-429,-177,1543,-1035,-577,-329,85,265,-81
18053,9005,0,2023-03-01T18:56:40.934437,1990473,-429,-177,1543,-1035,-577,-329,85,265,-81
18054,9006,0,2023-03-01T18:56:40.939812,1990478,-429,-177,1543,-1035,-577,-329,85,265,-81
18055,9007,0,2023-03-01T18:56:40.944929,1990483,-429,-177,1543,-1035,-577,-329,85,265,-81
18056,9008,0,2023-03-01T18:56:40.952114,1990491,-425,-178,1549,-1041,-579,-326,85,265,-81
18057,9009,0,2023-03-01T18:56:40.958563,1990497,-425,-178,1549,-1041,-579,-326,85,265,-81
18058,9010,0,2023-03-01T18:56:40.963463,1990502,-425,-178,1549,-1041,-579,-326,85,265,-81
18059,9011,0,2023-03-01T18:56:40.968634,1990507,-425,-176,1545,-1038,-576,-318,85,265,-81
18060,9012,0,2023-03-01T18:56:40.974398,1990512,-425,-176,1545,-1038,-576,-318,85,265,-81
18061,9013,0,2023-03-01T18:56:40.980351,1990518,-425,-176,1545,-1038,-576,-318,85,265,-81
18062,9014,0,2023-03-01T18:56:40.985455,1990523,-425,-176,1545,-1038,-576,-318,85,265,-81
18063,9015,0,2023-03-01T18:56:40.990261,1990529,-428,-179,1547,-1032,-579,-319,75,269,-89
18064,9016,0,2023-03-01T18:56:40.996417,1990535,-428,-179,1547,-1032,-579,-319,75,269,-89
18065,9017,0,2023-03-01T18:56:41.002347,1990541,-428,-179,1547,-1032,-579,-319,75,269,-89
18066,9018,0,2023-03-01T18:56:41.008507,1990547,-430,-176,1545,-1036,-574,-318,75,269,-89
18067,9019,0,2023-03-01T18:56:41.014525,1990553,-430,-176,1545,-1036,-574,-318,75,269,-89
18068,9020,0,2023-03-01T18:56:41.019805,1990558,-430,-176,1545,-1036,-574,-318,75,269,-89
18069,9021,0,2023-03-01T18:56:41.024607,1990563,-430,-176,1545,-1036,-574,-318,75,269,-89
18070,9022,0,2023-03-01T18:56:41.030315,1990567,-426,-174,1541,-1038,-573,-322,75,269,-89
18071,9023,0,2023-03-01T18:56:41.036207,1990575,-426,-174,1541,-1038,-573,-322,75,269,-89
18072,9024,0,2023-03-01T18:56:41.041302,1990580,-426,-174,1541,-1038,-573,-322,75,269,-89
18073,9025,0,2023-03-01T18:56:41.046497,1990585,-425,-176,1544,-1038,-578,-314,75,269,-89
18074,9026,0,2023-03-01T18:56:41.052646,1990590,-425,-176,1544,-1038,-578,-314,75,269,-89
18075,9027,0,2023-03-01T18:56:41.058865,1990597,-425,-176,1544,-1038,-578,-314,75,269,-89
18076,9028,0,2023-03-01T18:56:41.064092,1990602,-425,-176,1544,-1038,-578,-314,75,269,-89
18077,9029,0,2023-03-01T18:56:41.068929,1990607,-427,-177,1546,-1045,-575,-317,75,269,-89
18078,9030,0,2023-03-01T18:56:41.074869,1990614,-427,-177,1546,-1045,-575,-317,75,269,-89
18079,9031,0,2023-03-01T18:56:41.081110,1990620,-427,-177,1546,-1045,-575,-317,75,269,-89
18080,9032,0,2023-03-01T18:56:41.085713,1990624,-427,-177,1546,-1045,-575,-317,75,269,-89
18081,9033,0,2023-03-01T18:56:41.090446,1990629,-428,-177,1545,-1042,-568,-327,75,269,-89
18082,9034,0,2023-03-01T18:56:41.095640,1990634,-428,-177,1545,-1042,-568,-327,75,269,-89
18083,9035,0,2023-03-01T18:56:41.100975,1990639,-428,-177,1545,-1042,-568,-327,75,269,-89
18084,9036,0,2023-03-01T18:56:41.106326,1990644,-428,-177,1545,-1042,-568,-327,75,269,-89
18085,9037,0,2023-03-01T18:56:41.111653,1990650,-428,-177,1553,-1038,-571,-324,82,280,-92
18086,9038,0,2023-03-01T18:56:41.117621,1990656,-428,-177,1553,-1038,-571,-324,82,280,-92
18087,9039,0,2023-03-01T18:56:41.122720,1990662,-428,-177,1553,-1038,-571,-324,82,280,-92
18088,9040,0,2023-03-01T18:56:41.127762,1990666,-429,-175,1551,-1036,-577,-317,82,280,-92
18089,9041,0,2023-03-01T18:56:41.133769,1990672,-429,-175,1551,-1036,-577,-317,82,280,-92
18090,9042,0,2023-03-01T18:56:41.139396,1990678,-429,-175,1551,-1036,-577,-317,82,280,-92
18091,9043,0,2023-03-01T18:56:41.144692,1990683,-429,-175,1551,-1036,-577,-317,82,280,-92
18092,9044,0,2023-03-01T18:56:41.150844,1990689,-426,-177,1550,-1033,-578,-324,82,280,-92
18093,9045,0,2023-03-01T18:56:41.156780,1990694,-426,-177,1550,-1033,-578,-324,82,280,-92
18094,9046,0,2023-03-01T18:56:41.162935,1990701,-426,-177,1550,-1033,-578,-324,82,280,-92
18095,9047,0,2023-03-01T18:56:41.169383,1990708,-426,-174,1542,-1034,-579,-322,82,280,-92
18096,9048,0,2023-03-01T18:56:41.175278,1990714,-426,-174,1542,-1034,-579,-322,82,280,-92
18097,9049,0,2023-03-01T18:56:41.180752,1990719,-426,-174,1542,-1034,-579,-322,82,280,-92
18098,9050,0,2023-03-01T18:56:41.185775,1990724,-426,-174,1542,-1034,-579,-322,82,280,-92
18099,9051,0,2023-03-01T18:56:41.191434,1990730,-427,-176,1549,-1031,-572,-319,82,280,-92
18100,9052,0,2023-03-01T18:56:41.196877,1990735,-427,-176,1549,-1031,-572,-319,82,280,-92
18101,9053,0,2023-03-01T18:56:41.202667,1990740,-427,-176,1549,-1031,-572,-319,82,280,-92
18102,9054,0,2023-03-01T18:56:41.208231,1990747,-429,-178,1550,-1030,-569,-314,82,280,-92
18103,9055,0,2023-03-01T18:56:41.213961,1990752,-429,-178,1550,-1030,-569,-314,82,280,-92
18104,9056,0,2023-03-01T18:56:41.219681,1990758,-429,-178,1550,-1030,-569,-314,82,280,-92
18105,9057,0,2023-03-01T18:56:41.225398,1990763,-429,-178,1550,-1030,-569,-314,82,280,-92
18106,9058,0,2023-03-01T18:56:41.231169,1990769,-427,-171,1542,-1033,-578,-323,82,280,-92
18107,9059,0,2023-03-01T18:56:41.236542,1990775,-427,-171,1542,-1033,-578,-323,82,280,-92
18108,9060,0,2023-03-01T18:56:41.242086,1990780,-427,-171,1542,-1033,-578,-323,82,280,-92
18109,9061,0,2023-03-01T18:56:41.247625,1990786,-427,-176,1549,-1037,-580,-319,83,273,-89
18110,9062,0,2023-03-01T18:56:41.253471,1990792,-427,-176,1549,-1037,-580,-319,83,273,-89
18111,9063,0,2023-03-01T18:56:41.258745,1990797,-427,-176,1549,-1037,-580,-319,83,273,-89
18112,9064,0,2023-03-01T18:56:41.263435,1990802,-427,-176,1549,-1037,-580,-319,83,273,-89
18113,9065,0,2023-03-01T18:56:41.269155,1990808,-429,-177,1543,-1039,-576,-325,83,273,-89
18114,9066,0,2023-03-01T18:56:41.276866,1990815,-429,-177,1543,-1039,-576,-325,83,273,-89
18115,9067,0,2023-03-01T18:56:41.282611,1990821,-429,-177,1543,-1039,-576,-325,83,273,-89
18116,9068,0,2023-03-01T18:56:41.289158,1990827,-430,-176,1545,-1039,-569,-319,83,273,-89
18117,9069,0,2023-03-01T18:56:41.294596,1990833,-430,-176,1545,-1039,-569,-319,83,273,-89
18118,9070,0,2023-03-01T18:56:41.300117,1990839,-430,-176,1545,-1039,-569,-319,83,273,-89
18119,9071,0,2023-03-01T18:56:41.305096,1990843,-430,-176,1545,-1039,-569,-319,83,273,-89
18120,9072,0,2023-03-01T18:56:41.311035,1990849,-429,-176,1545,-1039,-572,-321,83,273,-89
18121,9073,0,2023-03-01T18:56:41.316475,1990855,-429,-176,1545,-1039,-572,-321,83,273,-89
18122,9074,0,2023-03-01T18:56:41.321928,1990860,-429,-176,1545,-1039,-572,-321,83,273,-89
18123,9075,0,2023-03-01T18:56:41.327397,1990865,-428,-173,1551,-1041,-582,-325,83,273,-89
18124,9076,0,2023-03-01T18:56:41.333493,1990872,-428,-173,1551,-1041,-582,-325,83,273,-89
18125,9077,0,2023-03-01T18:56:41.339700,1990878,-428,-173,1551,-1041,-582,-325,83,273,-89
18126,9078,0,2023-03-01T18:56:41.344581,1990883,-428,-173,1551,-1041,-582,-325,83,273,-89
18127,9079,0,2023-03-01T18:56:41.349786,1990888,-427,-175,1546,-1042,-574,-323,83,273,-89
18128,9080,0,2023-03-01T18:56:41.355815,1990894,-427,-175,1546,-1042,-574,-323,83,273,-89
18129,9081,0,2023-03-01T18:56:41.361510,1990900,-427,-175,1546,-1042,-574,-323,83,273,-89
18130,9082,0,2023-03-01T18:56:41.366486,1990904,-427,-175,1546,-1042,-574,-323,83,273,-89
18131,9083,0,2023-03-01T18:56:41.371520,1990909,-428,-175,1541,-1039,-572,-324,75,271,-85
18132,9084,0,2023-03-01T18:56:41.377487,1990916,-428,-175,1541,-1039,-572,-324,75,271,-85
18133,9085,0,2023-03-01T18:56:41.383367,1990922,-428,-175,1541,-1039,-572,-324,75,271,-85
18134,9086,0,2023-03-01T18:56:41.389940,1990928,-431,-177,1547,-1035,-574,-320,75,271,-85
18135,9087,0,2023-03-01T18:56:41.396035,1990934,-431,-177,1547,-1035,-574,-320,75,271,-85
18136,9088,0,2023-03-01T18:56:41.401667,1990940,-431,-177,1547,-1035,-574,-320,75,271,-85
18137,9089,0,2023-03-01T18:56:41.407846,1990946,-427,-176,1543,-1037,-575,-321,75,271,-85
18138,9090,0,2023-03-01T18:56:41.413670,1990952,-427,-176,1543,-1037,-575,-321,75,271,-85
18139,9091,0,2023-03-01T18:56:41.419280,1990958,-427,-176,1543,-1037,-575,-321,75,271,-85
18140,9092,0,2023-03-01T18:56:41.424644,1990963,-427,-176,1543,-1037,-575,-321,75,271,-85
18141,9093,0,2023-03-01T18:56:41.430741,1990969,-428,-172,1545,-1044,-564,-317,75,271,-85
18142,9094,0,2023-03-01T18:56:41.436394,1990975,-428,-172,1545,-1044,-564,-317,75,271,-85
18143,9095,0,2023-03-01T18:56:41.441912,1990980,-428,-172,1545,-1044,-564,-317,75,271,-85
18144,9096,0,2023-03-01T18:56:41.446816,1990985,-427,-176,1547,-1053,-576,-324,75,271,-85
18145,9097,0,2023-03-01T18:56:41.453127,1990991,-427,-176,1547,-1053,-576,-324,75,271,-85
18146,9098,0,2023-03-01T18:56:41.458882,1990998,-427,-176,1547,-1053,-576,-324,75,271,-85
18147,9099,0,2023-03-01T18:56:41.463783,1991003,-427,-176,1547,-1053,-576,-324,75,271,-85
18148,9100,0,2023-03-01T18:56:41.469020,1991008,-428,-176,1544,-1045,-576,-320,75,271,-85
18149,9101,0,2023-03-01T18:56:41.474671,1991013,-428,-176,1544,-1045,-576,-320,75,271,-85
18150,9102,0,2023-03-01T18:56:41.480949,1991019,-428,-176,1544,-1045,-576,-320,75,271,-85
18151,9103,0,2023-03-01T18:56:41.485981,1991024,-428,-176,1544,-1045,-576,-320,75,271,-85
18152,9104,0,2023-03-01T18:56:41.491500,1991030,-428,-176,1541,-1038,-570,-327,76,266,-90
18153,9105,0,2023-03-01T18:56:41.499119,1991037,-428,-176,1541,-1038,-570,-327,76,266,-90
18154,9106,0,2023-03-01T18:56:41.504985,1991044,-428,-176,1541,-1038,-570,-327,76,266,-90
18155,9107,0,2023-03-01T18:56:41.510798,1991050,-428,-175,1544,-1049,-574,-320,76,266,-90
18156,9108,0,2023-03-01T18:56:41.516451,1991055,-428,-175,1544,-1049,-574,-320,76,266,-90
18157,9109,0,2023-03-01T18:56:41.522035,1991061,-428,-175,1544,-1049,-574,-320,76,266,-90
18158,9110,0,2023-03-01T18:56:41.526557,1991065,-424,-176,1543,-1042,-575,-314,76,266,-90
18159,9111,0,2023-03-01T18:56:41.532532,1991071,-424,-176,1543,-1042,-575,-314,76,266,-90
18160,9112,0,2023-03-01T18:56:41.538931,1991077,-424,-176,1543,-1042,-575,-314,76,266,-90
18161,9113,0,2023-03-01T18:56:41.543924,1991083,-424,-176,1543,-1042,-575,-314,76,266,-90
18162,9114,0,2023-03-01T18:56:41.549163,1991088,-425,-177,1541,-1035,-575,-317,76,266,-90
18163,9115,0,2023-03-01T18:56:41.555473,1991094,-425,-177,1541,-1035,-575,-317,76,266,-90
18164,9116,0,2023-03-01T18:56:41.561384,1991100,-425,-177,1541,-1035,-575,-317,76,266,-90
18165,9117,0,2023-03-01T18:56:41.566665,1991105,-425,-177,1541,-1035,-575,-317,76,266,-90
18166,9118,0,2023-03-01T18:56:41.572391,1991111,-426,-177,1542,-1038,-577,-319,76,266,-90
18167,9119,0,2023-03-01T18:56:41.578741,1991117,-426,-177,1542,-1038,-577,-319,76,266,-90
18168,9120,0,2023-03-01T18:56:41.583553,1991122,-426,-177,1542,-1038,-577,-319,76,266,-90
18169,9121,0,2023-03-01T18:56:41.588514,1991127,-426,-177,1541,-1031,-566,-325,76,266,-90
18170,9122,0,2023-03-01T18:56:41.594308,1991133,-426,-177,1541,-1031,-566,-325,76,266,-90
18171,9123,0,2023-03-01T18:56:41.599513,1991138,-426,-177,1541,-1031,-566,-325,76,266,-90
18172,9124,0,2023-03-01T18:56:41.604648,1991143,-426,-177,1541,-1031,-566,-325,76,266,-90
18173,9125,0,2023-03-01T18:56:41.610220,1991149,-426,-178,1541,-1032,-569,-331,76,266,-90
18174,9126,0,2023-03-01T18:56:41.615781,1991154,-426,-178,1541,-1032,-569,-331,76,266,-90
18175,9127,0,2023-03-01T18:56:41.621406,1991159,-426,-178,1541,-1032,-569,-331,76,266,-90
18176,9128,0,2023-03-01T18:56:41.626656,1991164,-426,-178,1541,-1032,-569,-331,76,266,-90
18177,9129,0,2023-03-01T18:56:41.632598,1991171,-430,-178,1550,-1042,-572,-319,77,269,-93
18178,9130,0,2023-03-01T18:56:41.638510,1991177,-430,-178,1550,-1042,-572,-319,77,269,-93
18179,9131,0,2023-03-01T18:56:41.643402,1991182,-430,-178,1550,-1042,-572,-319,77,269,-93
18180,9132,0,2023-03-01T18:56:41.648626,1991187,-427,-176,1544,-1038,-571,-321,77,269,-93
18181,9133,0,2023-03-01T18:56:41.654673,1991193,-427,-176,1544,-1038,-571,-321,77,269,-93
18182,9134,0,2023-03-01T18:56:41.661205,1991199,-427,-176,1544,-1038,-571,-321,77,269,-93
18183,9135,0,2023-03-01T18:56:41.666036,1991204,-427,-176,1544,-1038,-571,-321,77,269,-93
18184,9136,0,2023-03-01T18:56:41.671020,1991209,-425,-175,1541,-1024,-566,-320,77,269,-93
18185,9137,0,2023-03-01T18:56:41.676633,1991215,-425,-175,1541,-1024,-566,-320,77,269,-93
18186,9138,0,2023-03-01T18:56:41.682387,1991221,-425,-175,1541,-1024,-566,-320,77,269,-93
18187,9139,0,2023-03-01T18:56:41.687765,1991227,-427,-173,1543,-1038,-571,-322,77,269,-93
18188,9140,0,2023-03-01T18:56:41.693363,1991232,-427,-173,1543,-1038,-571,-322,77,269,-93
18189,9141,0,2023-03-01T18:56:41.698462,1991237,-427,-173,1543,-1038,-571,-322,77,269,-93
18190,9142,0,2023-03-01T18:56:41.703432,1991242,-427,-173,1543,-1038,-571,-322,77,269,-93
18191,9143,0,2023-03-01T18:56:41.708746,1991247,-428,-177,1545,-1041,-576,-325,77,269,-93
18192,9144,0,2023-03-01T18:56:41.714796,1991252,-428,-177,1545,-1041,-576,-325,77,269,-93
18193,9145,0,2023-03-01T18:56:41.720887,1991260,-428,-177,1545,-1041,-576,-325,77,269,-93
18194,9146,0,2023-03-01T18:56:41.725783,1991265,-428,-177,1545,-1041,-576,-325,77,269,-93
18195,9147,0,2023-03-01T18:56:41.731434,1991270,-427,-176,1543,-1039,-579,-322,77,269,-93
18196,9148,0,2023-03-01T18:56:41.737078,1991275,-427,-176,1543,-1039,-579,-322,77,269,-93
18197,9149,0,2023-03-01T18:56:41.742979,1991281,-427,-176,1543,-1039,-579,-322,77,269,-93
18198,9150,0,2023-03-01T18:56:41.748441,1991287,-427,-178,1541,-1036,-579,-325,82,270,-88
18199,9151,0,2023-03-01T18:56:41.754012,1991292,-427,-178,1541,-1036,-579,-325,82,270,-88
18200,9152,0,2023-03-01T18:56:41.759170,1991298,-427,-178,1541,-1036,-579,-325,82,270,-88
18201,9153,0,2023-03-01T18:56:41.764180,1991303,-427,-178,1541,-1036,-579,-325,82,270,-88
18202,9154,0,2023-03-01T18:56:41.769663,1991308,-429,-177,1552,-1039,-574,-327,82,270,-88
18203,9155,0,2023-03-01T18:56:41.775632,1991314,-429,-177,1552,-1039,-574,-327,82,270,-88
18204,9156,0,2023-03-01T18:56:41.780967,1991320,-429,-177,1552,-1039,-574,-327,82,270,-88
18205,9157,0,2023-03-01T18:56:41.785455,1991324,-429,-177,1552,-1039,-574,-327,82,270,-88
18206,9158,0,2023-03-01T18:56:41.791017,1991329,-426,-178,1540,-1037,-575,-317,82,270,-88
18207,9159,0,2023-03-01T18:56:41.796757,1991335,-426,-178,1540,-1037,-575,-317,82,270,-88
18208,9160,0,2023-03-01T18:56:41.802922,1991342,-426,-178,1540,-1037,-575,-317,82,270,-88
18209,9161,0,2023-03-01T18:56:41.807643,1991346,-427,-177,1544,-1040,-569,-324,82,270,-88
18210,9162,0,2023-03-01T18:56:41.813944,1991352,-427,-177,1544,-1040,-569,-324,82,270,-88
18211,9163,0,2023-03-01T18:56:41.819349,1991358,-427,-177,1544,-1040,-569,-324,82,270,-88
18212,9164,0,2023-03-01T18:56:41.825007,1991363,-427,-177,1544,-1040,-569,-324,82,270,-88
18213,9165,0,2023-03-01T18:56:41.831888,1991370,-428,-177,1539,-1042,-570,-325,82,270,-88
18214,9166,0,2023-03-01T18:56:41.837416,1991376,-428,-177,1539,-1042,-570,-325,82,270,-88
18215,9167,0,2023-03-01T18:56:41.842850,1991382,-428,-177,1539,-1042,-570,-325,82,270,-88
18216,9168,0,2023-03-01T18:56:41.850067,1991389,-427,-176,1538,-1036,-572,-321,82,270,-88
18217,9169,0,2023-03-01T18:56:41.856074,1991394,-427,-176,1538,-1036,-572,-321,82,270,-88
18218,9170,0,2023-03-01T18:56:41.861778,1991400,-427,-176,1538,-1036,-572,-321,82,270,-88
18219,9171,0,2023-03-01T18:56:41.866540,1991405,-427,-176,1538,-1036,-572,-321,82,270,-88
18220,9172,0,2023-03-01T18:56:41.872660,1991411,-429,-175,1549,-1032,-574,-321,82,270,-88
18221,9173,0,2023-03-01T18:56:41.879105,1991417,-429,-175,1549,-1032,-574,-321,82,270,-88
18222,9174,0,2023-03-01T18:56:41.884050,1991422,-429,-175,1549,-1032,-574,-321,82,270,-88
18223,9175,0,2023-03-01T18:56:41.889828,1991429,-430,-176,1547,-1036,-570,-325,78,266,-90
18224,9176,0,2023-03-01T18:56:41.894631,1991433,-430,-176,1547,-1036,-570,-325,78,266,-90
18225,9177,0,2023-03-01T18:56:41.899683,1991438,-430,-176,1547,-1036,-570,-325,78,266,-90
18226,9178,0,2023-03-01T18:56:41.905178,1991443,-430,-176,1547,-1036,-570,-325,78,266,-90
18227,9179,0,2023-03-01T18:56:41.911076,1991449,-426,-177,1547,-1035,-570,-320,78,266,-90
18228,9180,0,2023-03-01T18:56:41.916671,1991455,-426,-177,1547,-1035,-570,-320,78,266,-90
18229,9181,0,2023-03-01T18:56:41.922402,1991460,-426,-177,1547,-1035,-570,-320,78,266,-90
18230,9182,0,2023-03-01T18:56:41.928792,1991467,-429,-177,1547,-1027,-571,-324,78,266,-90
18231,9183,0,2023-03-01T18:56:41.936095,1991474,-429,-177,1547,-1027,-571,-324,78,266,-90
18232,9184,0,2023-03-01T18:56:41.941979,1991481,-429,-177,1547,-1027,-571,-324,78,266,-90
18233,9185,0,2023-03-01T18:56:41.946936,1991485,-429,-177,1547,-1027,-571,-324,78,266,-90
18234,9186,0,2023-03-01T18:56:41.952400,1991491,-427,-179,1544,-1036,-575,-328,78,266,-90
18235,9187,0,2023-03-01T18:56:41.960224,1991498,-427,-179,1544,-1036,-575,-328,78,266,-90
18236,9188,0,2023-03-01T18:56:41.965133,1991503,-427,-179,1544,-1036,-575,-328,78,266,-90
18237,9189,0,2023-03-01T18:56:41.970432,1991508,-424,-179,1548,-1039,-582,-323,78,266,-90
18238,9190,0,2023-03-01T18:56:41.975952,1991515,-424,-179,1548,-1039,-582,-323,78,266,-90
18239,9191,0,2023-03-01T18:56:41.981310,1991520,-424,-179,1548,-1039,-582,-323,78,266,-90
18240,9192,0,2023-03-01T18:56:41.986357,1991525,-424,-179,1548,-1039,-582,-323,78,266,-90
18241,9193,0,2023-03-01T18:56:41.991916,1991530,-428,-176,1539,-1041,-574,-327,78,266,-90
18242,9194,0,2023-03-01T18:56:41.998377,1991537,-428,-176,1539,-1041,-574,-327,78,266,-90
18243,9195,0,2023-03-01T18:56:42.004011,1991542,-428,-176,1539,-1041,-574,-327,78,266,-90
18244,9196,0,2023-03-01T18:56:42.009165,1991547,-426,-178,1548,-1030,-571,-321,80,266,-94
18245,9197,0,2023-03-01T18:56:42.014845,1991554,-426,-178,1548,-1030,-571,-321,80,266,-94
18246,9198,0,2023-03-01T18:56:42.020545,1991559,-426,-178,1548,-1030,-571,-321,80,266,-94
18247,9199,0,2023-03-01T18:56:42.025401,1991564,-426,-178,1548,-1030,-571,-321,80,266,-94
18248,9200,0,2023-03-01T18:56:42.031777,1991570,-425,-179,1543,-1036,-576,-317,80,266,-94
18249,9201,0,2023-03-01T18:56:42.037154,1991576,-425,-179,1543,-1036,-576,-317,80,266,-94
18250,9202,0,2023-03-01T18:56:42.042650,1991581,-425,-179,1543,-1036,-576,-317,80,266,-94
18251,9203,0,2023-03-01T18:56:42.048935,1991587,-427,-175,1545,-1042,-570,-316,80,266,-94
18252,9204,0,2023-03-01T18:56:42.054741,1991593,-427,-175,1545,-1042,-570,-316,80,266,-94
18253,9205,0,2023-03-01T18:56:42.059820,1991599,-427,-175,1545,-1042,-570,-316,80,266,-94
18254,9206,0,2023-03-01T18:56:42.064805,1991603,-427,-175,1545,-1042,-570,-316,80,266,-94
18255,9207,0,2023-03-01T18:56:42.070452,1991608,-427,-175,1547,-1041,-572,-323,80,266,-94
18256,9208,0,2023-03-01T18:56:42.077082,1991616,-427,-175,1547,-1041,-572,-323,80,266,-94
18257,9209,0,2023-03-01T18:56:42.083157,1991621,-427,-175,1547,-1041,-572,-323,80,266,-94
18258,9210,0,2023-03-01T18:56:42.088695,1991627,-430,-177,1543,-1033,-569,-320,80,266,-94
18259,9211,0,2023-03-01T18:56:42.094082,1991632,-430,-177,1543,-1033,-569,-320,80,266,-94
18260,9212,0,2023-03-01T18:56:42.099393,1991638,-430,-177,1543,-1033,-569,-320,80,266,-94
18261,9213,0,2023-03-01T18:56:42.104205,1991643,-430,-177,1543,-1033,-569,-320,80,266,-94
18262,9214,0,2023-03-01T18:56:42.110013,1991649,-427,-175,1542,-1035,-572,-323,80,266,-94
18263,9215,0,2023-03-01T18:56:42.115767,1991654,-427,-175,1542,-1035,-572,-323,80,266,-94
18264,9216,0,2023-03-01T18:56:42.121141,1991660,-427,-175,1542,-1035,-572,-323,80,266,-94
18265,9217,0,2023-03-01T18:56:42.126360,1991664,-427,-175,1542,-1035,-572,-323,80,266,-94
18266,9218,0,2023-03-01T18:56:42.131457,1991670,-429,-178,1549,-1036,-578,-324,77,269,-95
18267,9219,0,2023-03-01T18:56:42.137470,1991675,-429,-178,1549,-1036,-578,-324,77,269,-95
18268,9220,0,2023-03-01T18:56:42.143247,1991682,-429,-178,1549,-1036,-578,-324,77,269,-95
18269,9221,0,2023-03-01T18:56:42.148135,1991687,-427,-177,1547,-1031,-571,-320,77,269,-95
18270,9222,0,2023-03-01T18:56:42.155686,1991694,-427,-177,1547,-1031,-571,-320,77,269,-95
18271,9223,0,2023-03-01T18:56:42.161723,1991700,-427,-177,1547,-1031,-571,-320,77,269,-95
18272,9224,0,2023-03-01T18:56:42.166975,1991706,-427,-177,1547,-1031,-571,-320,77,269,-95
18273,9225,0,2023-03-01T18:56:42.172820,1991711,-426,-177,1541,-1034,-569,-333,77,269,-95
18274,9226,0,2023-03-01T18:56:42.179404,1991717,-426,-177,1541,-1034,-569,-333,77,269,-95
18275,9227,0,2023-03-01T18:56:42.184076,1991723,-426,-177,1541,-1034,-569,-333,77,269,-95
18276,9228,0,2023-03-01T18:56:42.188566,1991728,-428,-176,1546,-1040,-572,-328,77,269,-95
18277,9229,0,2023-03-01T18:56:42.193878,1991733,-428,-176,1546,-1040,-572,-328,77,269,-95
18278,9230,0,2023-03-01T18:56:42.199479,1991738,-428,-176,1546,-1040,-572,-328,77,269,-95
18279,9231,0,2023-03-01T18:56:42.204277,1991743,-428,-176,1546,-1040,-572,-328,77,269,-95
18280,9232,0,2023-03-01T18:56:42.209993,1991748,-427,-179,1545,-1041,-580,-331,77,269,-95
18281,9233,0,2023-03-01T18:56:42.215729,1991754,-427,-179,1545,-1041,-580,-331,77,269,-95
18282,9234,0,2023-03-01T18:56:42.221872,1991760,-427,-179,1545,-1041,-580,-331,77,269,-95
18283,9235,0,2023-03-01T18:56:42.226733,1991766,-427,-179,1545,-1041,-580,-331,77,269,-95
18284,9236,0,2023-03-01T18:56:42.231536,1991770,-426,-176,1543,-1048,-578,-321,77,269,-95
18285,9237,0,2023-03-01T18:56:42.237249,1991776,-426,-176,1543,-1048,-578,-321,77,269,-95
18286,9238,0,2023-03-01T18:56:42.243167,1991782,-426,-176,1543,-1048,-578,-321,77,269,-95
18287,9239,0,2023-03-01T18:56:42.248613,1991787,-427,-178,1540,-1040,-578,-321,77,269,-95
18288,9240,0,2023-03-01T18:56:42.254467,1991793,-427,-178,1540,-1040,-578,-321,77,269,-95
18289,9241,0,2023-03-01T18:56:42.260036,1991798,-427,-178,1540,-1040,-578,-321,77,269,-95
18290,9242,0,2023-03-01T18:56:42.265223,1991803,-427,-178,1540,-1040,-578,-321,77,269,-95
18291,9243,0,2023-03-01T18:56:42.271010,1991810,-430,-177,1547,-1030,-568,-327,72,268,-84
18292,9244,0,2023-03-01T18:56:42.276731,1991816,-430,-177,1547,-1030,-568,-327,72,268,-84
18293,9245,0,2023-03-01T18:56:42.282145,1991821,-430,-177,1547,-1030,-568,-327,72,268,-84
18294,9246,0,2023-03-01T18:56:42.287137,1991826,-430,-177,1547,-1030,-568,-327,72,268,-84
18295,9247,0,2023-03-01T18:56:42.291952,1991831,-429,-177,1538,-1035,-570,-322,72,268,-84
18296,9248,0,2023-03-01T18:56:42.298735,1991837,-429,-177,1538,-1035,-570,-322,72,268,-84
18297,9249,0,2023-03-01T18:56:42.305684,1991844,-429,-177,1538,-1035,-570,-322,72,268,-84
18298,9250,0,2023-03-01T18:56:42.311324,1991851,-425,-178,1543,-1032,-579,-329,72,268,-84
18299,9251,0,2023-03-01T18:56:42.317158,1991856,-425,-178,1543,-1032,-579,-329,72,268,-84
18300,9252,0,2023-03-01T18:56:42.322809,1991862,-425,-178,1543,-1032,-579,-329,72,268,-84
18301,9253,0,2023-03-01T18:56:42.328519,1991867,-430,-180,1541,-1031,-576,-314,72,268,-84
18302,9254,0,2023-03-01T18:56:42.334586,1991873,-430,-180,1541,-1031,-576,-314,72,268,-84
18303,9255,0,2023-03-01T18:56:42.340217,1991879,-430,-180,1541,-1031,-576,-314,72,268,-84
18304,9256,0,2023-03-01T18:56:42.345188,1991883,-430,-180,1541,-1031,-576,-314,72,268,-84
18305,9257,0,2023-03-01T18:56:42.350456,1991888,-428,-177,1547,-1039,-570,-315,72,268,-84
18306,9258,0,2023-03-01T18:56:42.356392,1991895,-428,-177,1547,-1039,-570,-315,72,268,-84
18307,9259,0,2023-03-01T18:56:42.362423,1991901,-428,-177,1547,-1039,-570,-315,72,268,-84
18308,9260,0,2023-03-01T18:56:42.367340,1991906,-428,-177,1547,-1039,-570,-315,72,268,-84
18309,9261,0,2023-03-01T18:56:42.372289,1991911,-425,-176,1553,-1039,-573,-322,72,268,-84
18310,9262,0,2023-03-01T18:56:42.378629,1991917,-425,-176,1553,-1039,-573,-322,72,268,-84
18311,9263,0,2023-03-01T18:56:42.384533,1991923,-425,-176,1553,-1039,-573,-322,72,268,-84
18312,9264,0,2023-03-01T18:56:42.390876,1991929,-426,-175,1543,-1043,-563,-317,81,273,-97
18313,9265,0,2023-03-01T18:56:42.396725,1991936,-426,-175,1543,-1043,-563,-317,81,273,-97
18314,9266,0,2023-03-01T18:56:42.402493,1991941,-426,-175,1543,-1043,-563,-317,81,273,-97
18315,9267,0,2023-03-01T18:56:42.407285,1991946,-426,-175,1543,-1043,-563,-317,81,273,-97
18316,9268,0,2023-03-01T18:56:42.412710,1991951,-429,-178,1542,-1040,-576,-320,81,273,-97
18317,9269,0,2023-03-01T18:56:42.419026,1991957,-429,-178,1542,-1040,-576,-320,81,273,-97
18318,9270,0,2023-03-01T18:56:42.423754,1991962,-429,-178,1542,-1040,-576,-320,81,273,-97
18319,9271,0,2023-03-01T18:56:42.429538,1991968,-425,-178,1547,-1039,-573,-321,81,273,-97
18320,9272,0,2023-03-01T18:56:42.436441,1991973,-425,-178,1547,-1039,-573,-321,81,273,-97
18321,9273,0,2023-03-01T18:56:42.442011,1991981,-425,-178,1547,-1039,-573,-321,81,273,-97
18322,9274,0,2023-03-01T18:56:42.446952,1991986,-425,-178,1547,-1039,-573,-321,81,273,-97
18323,9275,0,2023-03-01T18:56:42.452539,1991991,-427,-176,1541,-1043,-575,-319,81,273,-97
18324,9276,0,2023-03-01T18:56:42.458508,1991997,-427,-176,1541,-1043,-575,-319,81,273,-97
18325,9277,0,2023-03-01T18:56:42.464580,1992003,-427,-176,1541,-1043,-575,-319,81,273,-97
18326,9278,0,2023-03-01T18:56:42.469860,1992008,-427,-175,1543,-1040,-579,-316,81,273,-97
18327,9279,0,2023-03-01T18:56:42.475911,1992014,-427,-175,1543,-1040,-579,-316,81,273,-97
18328,9280,0,2023-03-01T18:56:42.481724,1992019,-427,-175,1543,-1040,-579,-316,81,273,-97
18329,9281,0,2023-03-01T18:56:42.488183,1992027,-429,-178,1548,-1038,-568,-317,81,273,-97
18330,9282,0,2023-03-01T18:56:42.494543,1992033,-429,-178,1548,-1038,-568,-317,81,273,-97
18331,9283,0,2023-03-01T18:56:42.499381,1992038,-429,-178,1548,-1038,-568,-317,81,273,-97
18332,9284,0,2023-03-01T18:56:42.504372,1992043,-429,-178,1548,-1038,-568,-317,81,273,-97
18333,9285,0,2023-03-01T18:56:42.509584,1992048,-427,-175,1547,-1041,-572,-324,81,273,-97
18334,9286,0,2023-03-01T18:56:42.515207,1992053,-427,-175,1547,-1041,-572,-324,81,273,-97
18335,9287,0,2023-03-01T18:56:42.520944,1992059,-427,-175,1547,-1041,-572,-324,81,273,-97
18336,9288,0,2023-03-01T18:56:42.525908,1992065,-427,-175,1547,-1041,-572,-324,81,273,-97
18337,9289,0,2023-03-01T18:56:42.531619,1992071,-427,-176,1550,-1052,-578,-318,77,267,-89
18338,9290,0,2023-03-01T18:56:42.536902,1992076,-427,-176,1550,-1052,-578,-318,77,267,-89
18339,9291,0,2023-03-01T18:56:42.542411,1992081,-427,-176,1550,-1052,-578,-318,77,267,-89
18340,9292,0,2023-03-01T18:56:42.548427,1992086,-427,-176,1550,-1052,-578,-318,77,267,-89
18341,9293,0,2023-03-01T18:56:42.554834,1992093,-428,-176,1547,-1038,-574,-323,77,267,-89
18342,9294,0,2023-03-01T18:56:42.561239,1992099,-428,-176,1547,-1038,-574,-323,77,267,-89
18343,9295,0,2023-03-01T18:56:42.566368,1992105,-428,-176,1547,-1038,-574,-323,77,267,-89
18344,9296,0,2023-03-01T18:56:42.571534,1992110,-428,-176,1547,-1038,-574,-323,77,267,-89
18345,9297,0,2023-03-01T18:56:42.576944,1992115,-428,-176,1547,-1038,-574,-323,77,267,-89
18346,9298,0,2023-03-01T18:56:42.583019,1992122,-428,-176,1547,-1038,-574,-323,77,267,-89
18347,9299,0,2023-03-01T18:56:42.587776,1992126,-428,-176,1547,-1038,-574,-323,77,267,-89
18348,9300,0,2023-03-01T18:56:42.592327,1992131,-425,-174,1541,-1048,-568,-324,77,267,-89
18349,9301,0,2023-03-01T18:56:42.598196,1992136,-425,-174,1541,-1048,-568,-324,77,267,-89
18350,9302,0,2023-03-01T18:56:42.603863,1992142,-425,-174,1541,-1048,-568,-324,77,267,-89
18351,9303,0,2023-03-01T18:56:42.609458,1992147,-428,-177,1544,-1039,-564,-319,77,267,-89
18352,9304,0,2023-03-01T18:56:42.615154,1992154,-428,-177,1544,-1039,-564,-319,77,267,-89
18353,9305,0,2023-03-01T18:56:42.620525,1992159,-428,-177,1544,-1039,-564,-319,77,267,-89
18354,9306,0,2023-03-01T18:56:42.625440,1992164,-428,-177,1544,-1039,-564,-319,77,267,-89
18355,9307,0,2023-03-01T18:56:42.630983,1992169,-426,-178,1545,-1050,-573,-311,77,267,-89
18356,9308,0,2023-03-01T18:56:42.636474,1992175,-426,-178,1545,-1050,-573,-311,77,267,-89
18357,9309,0,2023-03-01T18:56:42.641113,1992180,-426,-178,1545,-1050,-573,-311,77,267,-89
18358,9310,0,2023-03-01T18:56:42.645909,1992184,-426,-178,1545,-1050,-573,-311,77,267,-89
18359,9311,0,2023-03-01T18:56:42.651891,1992190,-425,-177,1552,-1045,-577,-323,78,260,-90
18360,9312,0,2023-03-01T18:56:42.657427,1992196,-425,-177,1552,-1045,-577,-323,78,260,-90
18361,9313,0,2023-03-01T18:56:42.663157,1992202,-425,-177,1552,-1045,-577,-323,78,260,-90
18362,9314,0,2023-03-01T18:56:42.669042,1992208,-424,-176,1548,-1044,-572,-319,78,260,-90
18363,9315,0,2023-03-01T18:56:42.675226,1992214,-424,-176,1548,-1044,-572,-319,78,260,-90
18364,9316,0,2023-03-01T18:56:42.680952,1992219,-424,-176,1548,-1044,-572,-319,78,260,-90
18365,9317,0,2023-03-01T18:56:42.686138,1992224,-424,-176,1548,-1044,-572,-319,78,260,-90
18366,9318,0,2023-03-01T18:56:42.691096,1992229,-428,-175,1548,-1038,-578,-323,78,260,-90
18367,9319,0,2023-03-01T18:56:42.696662,1992235,-428,-175,1548,-1038,-578,-323,78,260,-90
18368,9320,0,2023-03-01T18:56:42.702294,1992241,-428,-175,1548,-1038,-578,-323,78,260,-90
18369,9321,0,2023-03-01T18:56:42.707778,1992246,-428,-175,1548,-1038,-578,-323,78,260,-90
18370,9322,0,2023-03-01T18:56:42.713559,1992252,-427,-174,1541,-1036,-571,-319,78,260,-90
18371,9323,0,2023-03-01T18:56:42.718631,1992257,-427,-174,1541,-1036,-571,-319,78,260,-90
18372,9324,0,2023-03-01T18:56:42.723939,1992262,-427,-174,1541,-1036,-571,-319,78,260,-90
18373,9325,0,2023-03-01T18:56:42.729304,1992268,-431,-177,1545,-1034,-570,-320,78,260,-90
18374,9326,0,2023-03-01T18:56:42.734706,1992273,-431,-177,1545,-1034,-570,-320,78,260,-90
18375,9327,0,2023-03-01T18:56:42.739996,1992279,-431,-177,1545,-1034,-570,-320,78,260,-90
18376,9328,0,2023-03-01T18:56:42.744926,1992284,-431,-177,1545,-1034,-570,-320,78,260,-90
18377,9329,0,2023-03-01T18:56:42.749703,1992288,-427,-177,1545,-1034,-570,-319,78,260,-90
18378,9330,0,2023-03-01T18:56:42.756033,1992294,-427,-177,1545,-1034,-570,-319,78,260,-90
18379,9331,0,2023-03-01T18:56:42.760786,1992299,-427,-177,1545,-1034,-570,-319,78,260,-90
18380,9332,0,2023-03-01T18:56:42.766108,1992304,-427,-177,1545,-1034,-570,-319,78,260,-90
18381,9333,0,2023-03-01T18:56:42.771228,1992309,-425,-177,1541,-1040,-577,-323,78,260,-90
18382,9334,0,2023-03-01T18:56:42.777474,1992315,-425,-177,1541,-1040,-577,-323,78,260,-90
18383,9335,0,2023-03-01T18:56:42.783488,1992323,-425,-177,1541,-1040,-577,-323,78,260,-90
18384,9336,0,2023-03-01T18:56:42.788472,1992327,-428,-175,1548,-1038,-570,-322,81,263,-90
18385,9337,0,2023-03-01T18:56:42.793853,1992333,-428,-175,1548,-1038,-570,-322,81,263,-91
18386,9338,0,2023-03-01T18:56:42.799900,1992338,-428,-175,1548,-1038,-570,-322,81,263,-91
18387,9339,0,2023-03-01T18:56:42.805048,1992343,-428,-175,1548,-1038,-570,-322,81,263,-91
18388,9340,0,2023-03-01T18:56:42.809965,1992348,-429,-174,1550,-1037,-576,-316,81,263,-91
18389,9341,0,2023-03-01T18:56:42.817994,1992356,-429,-174,1550,-1037,-576,-316,81,263,-91
18390,9342,0,2023-03-01T18:56:42.823352,1992361,-429,-174,1550,-1037,-576,-316,81,263,-91
18391,9343,0,2023-03-01T18:56:42.829286,1992368,-428,-179,1547,-1045,-572,-322,81,263,-91
18392,9344,0,2023-03-01T18:56:42.834997,1992374,-428,-179,1547,-1045,-572,-322,81,263,-91
18393,9345,0,2023-03-01T18:56:42.840382,1992379,-428,-179,1547,-1045,-572,-322,81,263,-91
18394,9346,0,2023-03-01T18:56:42.845178,1992384,-428,-179,1547,-1045,-572,-322,81,263,-91
18395,9347,0,2023-03-01T18:56:42.850523,1992389,-428,-179,1543,-1037,-577,-324,81,263,-91
18396,9348,0,2023-03-01T18:56:42.855824,1992394,-428,-179,1543,-1037,-577,-324,81,263,-91
18397,9349,0,2023-03-01T18:56:42.862220,1992400,-428,-179,1543,-1037,-577,-324,81,263,-91
18398,9350,0,2023-03-01T18:56:42.867809,1992406,-428,-179,1543,-1037,-577,-324,81,263,-91
18399,9351,0,2023-03-01T18:56:42.873937,1992413,-425,-173,1540,-1046,-581,-321,81,263,-91
18400,9352,0,2023-03-01T18:56:42.879673,1992418,-425,-173,1540,-1046,-581,-321,81,263,-91
18401,9353,0,2023-03-01T18:56:42.884715,1992423,-425,-173,1540,-1046,-581,-321,81,263,-91
18402,9354,0,2023-03-01T18:56:42.889659,1992428,-429,-178,1539,-1038,-576,-326,81,263,-91
18403,9355,0,2023-03-01T18:56:42.895819,1992434,-429,-178,1539,-1038,-576,-326,81,263,-91
18404,9356,0,2023-03-01T18:56:42.902452,1992440,-429,-178,1539,-1038,-576,-326,81,263,-91
18405,9357,0,2023-03-01T18:56:42.907614,1992446,-429,-178,1539,-1038,-576,-326,81,263,-91
18406,9358,0,2023-03-01T18:56:42.912660,1992452,-428,-175,1550,-1046,-570,-327,79,273,-93
18407,9359,0,2023-03-01T18:56:42.919036,1992458,-428,-175,1550,-1046,-570,-327,79,273,-93
18408,9360,0,2023-03-01T18:56:42.924466,1992463,-428,-175,1550,-1046,-570,-327,79,273,-93
18409,9361,0,2023-03-01T18:56:42.930210,1992469,-428,-175,1547,-1035,-577,-323,79,273,-93
18410,9362,0,2023-03-01T18:56:42.935965,1992474,-428,-175,1547,-1035,-577,-323,79,273,-93
18411,9363,0,2023-03-01T18:56:42.940374,1992479,-428,-175,1547,-1035,-577,-323,79,273,-93
18412,9364,0,2023-03-01T18:56:42.945873,1992484,-428,-175,1547,-1035,-577,-323,79,273,-93
18413,9365,0,2023-03-01T18:56:42.950987,1992489,-428,-179,1545,-1034,-572,-322,79,273,-93
18414,9366,0,2023-03-01T18:56:42.957559,1992496,-428,-179,1545,-1034,-572,-322,79,273,-93
18415,9367,0,2023-03-01T18:56:42.962718,1992501,-428,-179,1545,-1034,-572,-322,79,273,-93
18416,9368,0,2023-03-01T18:56:42.967899,1992507,-428,-179,1545,-1034,-572,-322,79,273,-93
18417,9369,0,2023-03-01T18:56:42.974034,1992512,-429,-178,1546,-1036,-573,-327,79,273,-93
18418,9370,0,2023-03-01T18:56:42.980971,1992519,-429,-178,1546,-1036,-573,-327,79,273,-93
18419,9371,0,2023-03-01T18:56:42.985984,1992524,-429,-178,1546,-1036,-573,-327,79,273,-93
18420,9372,0,2023-03-01T18:56:42.991044,1992529,-425,-177,1544,-1037,-571,-324,79,273,-93
18421,9373,0,2023-03-01T18:56:42.996970,1992536,-425,-177,1544,-1037,-571,-324,79,273,-93
18422,9374,0,2023-03-01T18:56:43.003073,1992542,-425,-177,1544,-1037,-571,-324,79,273,-93
18423,9375,0,2023-03-01T18:56:43.008891,1992547,-428,-178,1549,-1049,-575,-315,79,273,-93
18424,9376,0,2023-03-01T18:56:43.014496,1992553,-428,-178,1549,-1049,-575,-315,79,273,-93
18425,9377,0,2023-03-01T18:56:43.019691,1992558,-428,-178,1549,-1049,-575,-315,79,273,-93
18426,9378,0,2023-03-01T18:56:43.024401,1992563,-428,-178,1549,-1049,-575,-315,79,273,-93
18427,9379,0,2023-03-01T18:56:43.029873,1992568,-430,-179,1542,-1033,-571,-315,73,263,-97
18428,9380,0,2023-03-01T18:56:43.036743,1992574,-430,-179,1542,-1033,-571,-315,73,263,-97
18429,9381,0,2023-03-01T18:56:43.042871,1992582,-430,-179,1542,-1033,-571,-315,73,263,-97
18430,9382,0,2023-03-01T18:56:43.047563,1992586,-430,-179,1542,-1033,-571,-315,73,263,-97
18431,9383,0,2023-03-01T18:56:43.052653,1992591,-426,-176,1551,-1044,-577,-317,73,263,-97
18432,9384,0,2023-03-01T18:56:43.058823,1992597,-426,-176,1551,-1044,-577,-317,73,263,-97
18433,9385,0,2023-03-01T18:56:43.064940,1992603,-426,-176,1551,-1044,-577,-317,73,263,-97
18434,9386,0,2023-03-01T18:56:43.070856,1992609,-430,-178,1547,-1041,-573,-325,73,263,-97
18435,9387,0,2023-03-01T18:56:43.077203,1992615,-430,-178,1547,-1041,-573,-325,73,263,-97
18436,9388,0,2023-03-01T18:56:43.083341,1992622,-430,-178,1547,-1041,-573,-325,73,263,-97
18437,9389,0,2023-03-01T18:56:43.088517,1992627,-430,-178,1547,-1041,-573,-325,73,263,-97
18438,9390,0,2023-03-01T18:56:43.095129,1992633,-427,-177,1542,-1038,-571,-326,73,263,-97
18439,9391,0,2023-03-01T18:56:43.101452,1992640,-427,-177,1542,-1038,-571,-326,73,263,-97
18440,9392,0,2023-03-01T18:56:43.106500,1992645,-427,-177,1542,-1038,-571,-326,73,263,-97
18441,9393,0,2023-03-01T18:56:43.112176,1992650,-429,-181,1547,-1037,-569,-325,73,263,-97
18442,9394,0,2023-03-01T18:56:43.118366,1992656,-429,-181,1547,-1037,-569,-325,73,263,-97
18443,9395,0,2023-03-01T18:56:43.123896,1992663,-429,-181,1547,-1037,-569,-325,73,263,-97
18444,9396,0,2023-03-01T18:56:43.129713,1992669,-426,-178,1547,-1034,-568,-319,73,263,-97
18445,9397,0,2023-03-01T18:56:43.135328,1992674,-426,-178,1547,-1034,-568,-319,73,263,-97
18446,9398,0,2023-03-01T18:56:43.142606,1992681,-426,-178,1547,-1034,-568,-319,73,263,-97
18447,9399,0,2023-03-01T18:56:43.148493,1992687,-426,-178,1547,-1034,-568,-319,73,263,-97
18448,9400,0,2023-03-01T18:56:43.153498,1992692,-428,-178,1543,-1029,-574,-322,73,263,-97
18449,9401,0,2023-03-01T18:56:43.159391,1992698,-428,-178,1543,-1029,-574,-322,73,263,-97
18450,9402,0,2023-03-01T18:56:43.164486,1992702,-428,-178,1543,-1029,-574,-322,73,263,-97
18451,9403,0,2023-03-01T18:56:43.169904,1992709,-430,-173,1546,-1041,-573,-328,77,273,-95
18452,9404,0,2023-03-01T18:56:43.175586,1992714,-430,-173,1546,-1041,-573,-328,77,273,-95
18453,9405,0,2023-03-01T18:56:43.180210,1992719,-430,-173,1546,-1041,-573,-328,77,273,-95
18454,9406,0,2023-03-01T18:56:43.185126,1992724,-430,-173,1546,-1041,-573,-328,77,273,-95
18455,9407,0,2023-03-01T18:56:43.190300,1992729,-426,-178,1544,-1036,-573,-322,77,273,-95
18456,9408,0,2023-03-01T18:56:43.194813,1992733,-426,-178,1544,-1036,-573,-322,77,273,-95
18457,9409,0,2023-03-01T18:56:43.200536,1992739,-426,-178,1544,-1036,-573,-322,77,273,-95
18458,9410,0,2023-03-01T18:56:43.205755,1992744,-426,-178,1544,-1036,-573,-322,77,273,-95
18459,9411,0,2023-03-01T18:56:43.211431,1992751,-428,-179,1539,-1034,-568,-320,77,273,-95
18460,9412,0,2023-03-01T18:56:43.216870,1992756,-428,-179,1539,-1034,-568,-320,77,273,-95
18461,9413,0,2023-03-01T18:56:43.221990,1992760,-428,-179,1539,-1034,-568,-320,77,273,-95
18462,9414,0,2023-03-01T18:56:43.227630,1992766,-428,-179,1539,-1034,-568,-320,77,273,-95
18463,9415,0,2023-03-01T18:56:43.233730,1992772,-427,-175,1547,-1033,-570,-315,77,273,-95
18464,9416,0,2023-03-01T18:56:43.240200,1992778,-427,-175,1547,-1033,-570,-315,77,273,-95
18465,9417,0,2023-03-01T18:56:43.245531,1992783,-427,-175,1547,-1033,-570,-315,77,273,-95
18466,9418,0,2023-03-01T18:56:43.252527,1992791,-427,-177,1543,-1039,-577,-317,77,273,-95
18467,9419,0,2023-03-01T18:56:43.258541,1992797,-427,-177,1543,-1039,-577,-317,77,273,-95
18468,9420,0,2023-03-01T18:56:43.263982,1992803,-427,-177,1543,-1039,-577,-317,77,273,-95
18469,9421,0,2023-03-01T18:56:43.269957,1992808,-428,-177,1548,-1039,-573,-330,77,273,-95
18470,9422,0,2023-03-01T18:56:43.275565,1992814,-428,-177,1548,-1039,-573,-330,77,273,-95
18471,9423,0,2023-03-01T18:56:43.281462,1992820,-428,-177,1548,-1039,-573,-330,77,273,-95
18472,9424,0,2023-03-01T18:56:43.286673,1992825,-428,-177,1548,-1039,-573,-330,77,273,-95
18473,9425,0,2023-03-01T18:56:43.291830,1992830,-427,-178,1548,-1044,-574,-323,77,265,-91
18474,9426,0,2023-03-01T18:56:43.297364,1992836,-427,-178,1548,-1044,-574,-323,77,265,-91
18475,9427,0,2023-03-01T18:56:43.302176,1992841,-427,-178,1548,-1044,-574,-323,77,265,-91
18476,9428,0,2023-03-01T18:56:43.307068,1992846,-427,-178,1548,-1044,-574,-323,77,265,-91
18477,9429,0,2023-03-01T18:56:43.313605,1992852,-427,-179,1547,-1036,-577,-322,77,265,-91
18478,9430,0,2023-03-01T18:56:43.319651,1992858,-427,-179,1547,-1036,-577,-322,77,265,-91
18479,9431,0,2023-03-01T18:56:43.324390,1992863,-427,-179,1547,-1036,-577,-322,77,265,-91
18480,9432,0,2023-03-01T18:56:43.329022,1992867,-424,-179,1548,-1044,-578,-312,77,265,-91
18481,9433,0,2023-03-01T18:56:43.334955,1992873,-424,-179,1548,-1044,-578,-312,77,265,-91
18482,9434,0,2023-03-01T18:56:43.341200,1992880,-424,-179,1548,-1044,-578,-312,77,265,-91
18483,9435,0,2023-03-01T18:56:43.345990,1992885,-424,-179,1548,-1044,-578,-312,77,265,-91
18484,9436,0,2023-03-01T18:56:43.350540,1992889,-429,-175,1539,-1048,-573,-320,77,265,-91
18485,9437,0,2023-03-01T18:56:43.356912,1992895,-429,-175,1539,-1048,-573,-320,77,265,-91
18486,9438,0,2023-03-01T18:56:43.363337,1992901,-429,-175,1539,-1048,-573,-320,77,265,-91
18487,9439,0,2023-03-01T18:56:43.368665,1992907,-429,-175,1539,-1048,-573,-320,77,265,-91
18488,9440,0,2023-03-01T18:56:43.374409,1992913,-430,-178,1546,-1036,-574,-318,77,265,-91
18489,9441,0,2023-03-01T18:56:43.380428,1992920,-430,-178,1546,-1036,-574,-318,77,265,-91
18490,9442,0,2023-03-01T18:56:43.385844,1992924,-430,-178,1546,-1036,-574,-318,77,265,-91
18491,9443,0,2023-03-01T18:56:43.391726,1992930,-431,-180,1545,-1039,-578,-316,77,265,-91
18492,9444,0,2023-03-01T18:56:43.397511,1992936,-431,-180,1545,-1039,-578,-316,77,265,-91
18493,9445,0,2023-03-01T18:56:43.403105,1992941,-431,-180,1545,-1039,-578,-316,77,265,-91
18494,9446,0,2023-03-01T18:56:43.407916,1992946,-431,-180,1545,-1039,-578,-316,77,265,-91
18495,9447,0,2023-03-01T18:56:43.412890,1992951,-430,-178,1548,-1030,-571,-321,77,265,-91
18496,9448,0,2023-03-01T18:56:43.419007,1992957,-430,-178,1548,-1030,-571,-321,77,265,-91
18497,9449,0,2023-03-01T18:56:43.424325,1992963,-430,-178,1548,-1030,-571,-321,77,265,-91
18498,9450,0,2023-03-01T18:56:43.430044,1992969,-427,-179,1548,-1032,-570,-327,80,262,-92
18499,9451,0,2023-03-01T18:56:43.435795,1992974,-427,-179,1548,-1032,-570,-327,80,262,-92
18500,9452,0,2023-03-01T18:56:43.441641,1992980,-427,-179,1548,-1032,-570,-327,80,262,-92
18501,9453,0,2023-03-01T18:56:43.447017,1992985,-427,-179,1548,-1032,-570,-327,80,262,-92
18502,9454,0,2023-03-01T18:56:43.453319,1992991,-427,-179,1547,-1036,-572,-323,80,262,-92
18503,9455,0,2023-03-01T18:56:43.458802,1992997,-427,-179,1547,-1036,-572,-323,80,262,-92
18504,9456,0,2023-03-01T18:56:43.464549,1993003,-427,-179,1547,-1036,-572,-323,80,262,-92
18505,9457,0,2023-03-01T18:56:43.469740,1993008,-429,-175,1549,-1042,-568,-318,80,262,-92
18506,9458,0,2023-03-01T18:56:43.476167,1993015,-429,-175,1549,-1042,-568,-318,80,262,-92
18507,9459,0,2023-03-01T18:56:43.481721,1993020,-429,-175,1549,-1042,-568,-318,80,262,-92
18508,9460,0,2023-03-01T18:56:43.486921,1993025,-429,-175,1549,-1042,-568,-318,80,262,-92
18509,9461,0,2023-03-01T18:56:43.492374,1993031,-428,-176,1540,-1035,-573,-319,80,262,-92
18510,9462,0,2023-03-01T18:56:43.498324,1993036,-428,-176,1540,-1035,-573,-319,80,262,-92
18511,9463,0,2023-03-01T18:56:43.504242,1993042,-428,-176,1540,-1035,-573,-319,80,262,-92
18512,9464,0,2023-03-01T18:56:43.510406,1993049,-430,-175,1548,-1042,-583,-326,80,262,-92
18513,9465,0,2023-03-01T18:56:43.516168,1993055,-430,-175,1548,-1042,-583,-326,80,262,-92
18514,9466,0,2023-03-01T18:56:43.521534,1993060,-430,-175,1548,-1042,-583,-326,80,262,-92
18515,9467,0,2023-03-01T18:56:43.526430,1993065,-430,-175,1548,-1042,-583,-326,80,262,-92
18516,9468,0,2023-03-01T18:56:43.532060,1993070,-429,-177,1541,-1045,-579,-320,80,262,-92
18517,9469,0,2023-03-01T18:56:43.538349,1993076,-429,-177,1541,-1045,-579,-320,80,262,-92
18518,9470,0,2023-03-01T18:56:43.544101,1993082,-429,-177,1541,-1045,-579,-320,80,262,-92
18519,9471,0,2023-03-01T18:56:43.549577,1993089,-428,-178,1548,-1038,-571,-323,79,269,-89
18520,9472,0,2023-03-01T18:56:43.555705,1993094,-428,-178,1548,-1038,-571,-323,79,269,-89
18521,9473,0,2023-03-01T18:56:43.561279,1993100,-428,-178,1548,-1038,-571,-323,79,269,-89
18522,9474,0,2023-03-01T18:56:43.566583,1993105,-428,-178,1548,-1038,-571,-323,79,269,-89
18523,9475,0,2023-03-01T18:56:43.571416,1993110,-425,-178,1548,-1039,-573,-323,79,269,-89
18524,9476,0,2023-03-01T18:56:43.577387,1993115,-425,-178,1548,-1039,-573,-323,79,269,-89
18525,9477,0,2023-03-01T18:56:43.583973,1993122,-425,-178,1548,-1039,-573,-323,79,269,-89
18526,9478,0,2023-03-01T18:56:43.589653,1993127,-426,-178,1544,-1029,-570,-317,79,269,-89
18527,9479,0,2023-03-01T18:56:43.595553,1993135,-426,-178,1544,-1029,-570,-317,79,269,-89
18528,9480,0,2023-03-01T18:56:43.601498,1993140,-426,-178,1544,-1029,-570,-317,79,269,-89
18529,9481,0,2023-03-01T18:56:43.606419,1993145,-426,-178,1544,-1029,-570,-317,79,269,-89
18530,9482,0,2023-03-01T18:56:43.611145,1993150,-428,-177,1552,-1039,-570,-319,79,269,-89
18531,9483,0,2023-03-01T18:56:43.617066,1993155,-428,-177,1552,-1039,-570,-319,79,269,-89
18532,9484,0,2023-03-01T18:56:43.622507,1993161,-428,-177,1552,-1039,-570,-319,79,269,-89
18533,9485,0,2023-03-01T18:56:43.627730,1993166,-428,-177,1552,-1039,-570,-319,79,269,-89
18534,9486,0,2023-03-01T18:56:43.632406,1993171,-429,-179,1543,-1035,-569,-327,79,269,-89
18535,9487,0,2023-03-01T18:56:43.637920,1993177,-429,-179,1543,-1035,-569,-327,79,269,-89
18536,9488,0,2023-03-01T18:56:43.643491,1993182,-429,-179,1543,-1035,-569,-327,79,269,-89
18537,9489,0,2023-03-01T18:56:43.649105,1993188,-429,-179,1543,-1035,-569,-327,79,269,-89
18538,9490,0,2023-03-01T18:56:43.654192,1993193,-431,-178,1542,-1035,-575,-318,79,269,-89
18539,9491,0,2023-03-01T18:56:43.660231,1993199,-431,-178,1542,-1035,-575,-318,79,269,-89
18540,9492,0,2023-03-01T18:56:43.665294,1993204,-431,-178,1542,-1035,-575,-318,79,269,-89
18541,9493,0,2023-03-01T18:56:43.670510,1993209,-428,-178,1545,-1036,-569,-315,79,269,-89
18542,9494,0,2023-03-01T18:56:43.676502,1993214,-428,-178,1545,-1036,-569,-315,79,269,-89
18543,9495,0,2023-03-01T18:56:43.682309,1993221,-428,-178,1545,-1036,-569,-315,79,269,-89
18544,9496,0,2023-03-01T18:56:43.687754,1993226,-428,-178,1545,-1036,-569,-315,79,269,-89
18545,9497,0,2023-03-01T18:56:43.694605,1993233,-426,-176,1549,-1035,-578,-318,79,269,-89
18546,9498,0,2023-03-01T18:56:43.700808,1993239,-426,-176,1549,-1035,-578,-318,79,269,-89
18547,9499,0,2023-03-01T18:56:43.706065,1993244,-426,-176,1549,-1035,-578,-318,79,269,-89
18548,9500,0,2023-03-01T18:56:43.711450,1993250,-428,-178,1544,-1033,-568,-321,79,269,-89
18549,9501,0,2023-03-01T18:56:43.717030,1993255,-428,-178,1544,-1033,-568,-321,79,269,-89
18550,9502,0,2023-03-01T18:56:43.722500,1993262,-428,-178,1544,-1033,-568,-321,79,269,-89
18551,9503,0,2023-03-01T18:56:43.727516,1993266,-428,-178,1544,-1033,-568,-321,79,269,-89
18552,9504,0,2023-03-01T18:56:43.732716,1993271,-426,-181,1552,-1030,-573,-322,79,269,-89
18553,9505,0,2023-03-01T18:56:43.738981,1993277,-426,-181,1552,-1030,-573,-322,79,269,-89
18554,9506,0,2023-03-01T18:56:43.744667,1993283,-426,-181,1552,-1030,-573,-322,79,269,-89
18555,9507,0,2023-03-01T18:56:43.749426,1993288,-427,-178,1547,-1026,-569,-322,79,269,-89
18556,9508,0,2023-03-01T18:56:43.754715,1993293,-427,-178,1547,-1026,-569,-322,79,269,-89
18557,9509,0,2023-03-01T18:56:43.760562,1993298,-427,-178,1547,-1026,-569,-322,79,269,-89
18558,9510,0,2023-03-01T18:56:43.765909,1993305,-427,-178,1547,-1026,-569,-322,79,269,-89
18559,9511,0,2023-03-01T18:56:43.771721,1993310,-428,-179,1544,-1026,-574,-318,79,269,-89
18560,9512,0,2023-03-01T18:56:43.777321,1993316,-428,-179,1544,-1026,-574,-318,79,269,-89
18561,9513,0,2023-03-01T18:56:43.782716,1993321,-428,-179,1544,-1026,-574,-318,79,269,-89
18562,9514,0,2023-03-01T18:56:43.787729,1993326,-428,-179,1544,-1026,-574,-318,79,269,-89
18563,9515,0,2023-03-01T18:56:43.793745,1993332,-429,-178,1551,-1038,-573,-320,79,269,-89
18564,9516,0,2023-03-01T18:56:43.801686,1993340,-429,-178,1551,-1038,-573,-320,79,269,-89
18565,9517,0,2023-03-01T18:56:43.806929,1993346,-429,-178,1551,-1038,-573,-320,79,269,-89
18566,9518,0,2023-03-01T18:56:43.811817,1993351,-429,-179,1547,-1040,-569,-323,89,265,-89
18567,9519,0,2023-03-01T18:56:43.817776,1993356,-429,-179,1547,-1040,-569,-323,89,265,-89
18568,9520,0,2023-03-01T18:56:43.823376,1993362,-429,-179,1547,-1040,-569,-323,89,265,-89
18569,9521,0,2023-03-01T18:56:43.829162,1993368,-429,-179,1547,-1040,-569,-323,89,265,-89
18570,9522,0,2023-03-01T18:56:43.834505,1993373,-426,-177,1546,-1038,-572,-324,89,265,-89
18571,9523,0,2023-03-01T18:56:43.840452,1993379,-426,-177,1546,-1038,-572,-324,89,265,-89
18572,9524,0,2023-03-01T18:56:43.845472,1993384,-426,-177,1546,-1038,-572,-324,89,265,-89
18573,9525,0,2023-03-01T18:56:43.851117,1993390,-426,-178,1545,-1039,-573,-321,89,265,-89
18574,9526,0,2023-03-01T18:56:43.856633,1993396,-426,-178,1545,-1039,-573,-321,89,265,-89
18575,9527,0,2023-03-01T18:56:43.862179,1993401,-426,-178,1545,-1039,-573,-321,89,265,-89
18576,9528,0,2023-03-01T18:56:43.867313,1993406,-426,-178,1545,-1039,-573,-321,89,265,-89
18577,9529,0,2023-03-01T18:56:43.872302,1993411,-426,-178,1542,-1041,-578,-323,89,265,-89
18578,9530,0,2023-03-01T18:56:43.878140,1993416,-426,-178,1542,-1041,-578,-323,89,265,-89
18579,9531,0,2023-03-01T18:56:43.884168,1993422,-426,-178,1542,-1041,-578,-323,89,265,-89
18580,9532,0,2023-03-01T18:56:43.888940,1993427,-426,-178,1542,-1041,-578,-323,89,265,-89
18581,9533,0,2023-03-01T18:56:43.893857,1993433,-427,-177,1543,-1041,-577,-318,89,265,-89
18582,9534,0,2023-03-01T18:56:43.900242,1993439,-427,-177,1543,-1041,-577,-318,89,265,-89
18583,9535,0,2023-03-01T18:56:43.907568,1993444,-427,-177,1543,-1041,-577,-318,89,265,-89
18584,9536,0,2023-03-01T18:56:43.914982,1993453,-428,-177,1540,-1035,-567,-322,89,265,-89
18585,9537,0,2023-03-01T18:56:43.921789,1993460,-428,-177,1540,-1035,-567,-322,89,265,-89
18586,9538,0,2023-03-01T18:56:43.926726,1993465,-428,-177,1540,-1035,-567,-322,89,265,-89
18587,9539,0,2023-03-01T18:56:43.931453,1993469,-430,-175,1544,-1040,-576,-324,77,273,-87
18588,9540,0,2023-03-01T18:56:43.937108,1993476,-430,-175,1544,-1040,-576,-324,77,273,-87
18589,9541,0,2023-03-01T18:56:43.943065,1993482,-430,-175,1544,-1040,-576,-324,77,273,-87
18590,9542,0,2023-03-01T18:56:43.948112,1993487,-430,-175,1544,-1040,-576,-324,77,273,-87
18591,9543,0,2023-03-01T18:56:43.953012,1993492,-431,-178,1546,-1038,-572,-328,77,273,-87
18592,9544,0,2023-03-01T18:56:43.959142,1993497,-431,-178,1546,-1038,-572,-328,77,273,-87
18593,9545,0,2023-03-01T18:56:43.964267,1993503,-431,-178,1546,-1038,-572,-328,77,273,-87
18594,9546,0,2023-03-01T18:56:43.971253,1993509,-426,-176,1549,-1039,-579,-324,77,273,-87
18595,9547,0,2023-03-01T18:56:43.976893,1993516,-426,-176,1549,-1039,-579,-324,77,273,-87
18596,9548,0,2023-03-01T18:56:43.982405,1993521,-426,-176,1549,-1039,-579,-324,77,273,-87
18597,9549,0,2023-03-01T18:56:43.988560,1993527,-426,-176,1549,-1039,-579,-324,77,273,-87
18598,9550,0,2023-03-01T18:56:43.993660,1993532,-428,-177,1545,-1044,-582,-326,77,273,-87
18599,9551,0,2023-03-01T18:56:44.000444,1993539,-428,-177,1545,-1044,-582,-326,77,273,-87
18600,9552,0,2023-03-01T18:56:44.005544,1993544,-428,-177,1545,-1044,-582,-326,77,273,-87
18601,9553,0,2023-03-01T18:56:44.010538,1993549,-426,-179,1543,-1030,-574,-326,77,273,-87
18602,9554,0,2023-03-01T18:56:44.016453,1993554,-426,-179,1543,-1030,-574,-326,77,273,-87
18603,9555,0,2023-03-01T18:56:44.023135,1993562,-426,-179,1543,-1030,-574,-326,77,273,-87
18604,9556,0,2023-03-01T18:56:44.028405,1993567,-426,-179,1543,-1030,-574,-326,77,273,-87
18605,9557,0,2023-03-01T18:56:44.034809,1993573,-426,-180,1553,-1030,-574,-320,77,273,-87
18606,9558,0,2023-03-01T18:56:44.040802,1993580,-426,-180,1553,-1030,-574,-320,77,273,-87
18607,9559,0,2023-03-01T18:56:44.045714,1993584,-426,-180,1553,-1030,-574,-320,77,273,-87
18608,9560,0,2023-03-01T18:56:44.051503,1993590,-427,-176,1544,-1035,-568,-327,77,273,-87
18609,9561,0,2023-03-01T18:56:44.057144,1993595,-427,-176,1544,-1035,-568,-327,77,273,-87
18610,9562,0,2023-03-01T18:56:44.062507,1993602,-427,-176,1544,-1035,-568,-327,77,273,-87
18611,9563,0,2023-03-01T18:56:44.067514,1993606,-427,-176,1544,-1035,-568,-327,77,273,-87
18612,9564,0,2023-03-01T18:56:44.072340,1993611,-427,-175,1552,-1037,-567,-327,77,271,-89
18613,9565,0,2023-03-01T18:56:44.078719,1993617,-427,-175,1552,-1037,-567,-327,77,271,-89
18614,9566,0,2023-03-01T18:56:44.085047,1993623,-427,-175,1552,-1037,-567,-327,77,271,-89
18615,9567,0,2023-03-01T18:56:44.090205,1993628,-428,-177,1545,-1035,-575,-318,77,271,-89
18616,9568,0,2023-03-01T18:56:44.095732,1993634,-428,-177,1545,-1035,-575,-318,77,271,-89
18617,9569,0,2023-03-01T18:56:44.101196,1993639,-428,-177,1545,-1035,-575,-318,77,271,-89
18618,9570,0,2023-03-01T18:56:44.106718,1993645,-428,-177,1545,-1035,-575,-318,77,271,-89
18619,9571,0,2023-03-01T18:56:44.112541,1993651,-427,-180,1549,-1030,-568,-324,77,271,-89
18620,9572,0,2023-03-01T18:56:44.117287,1993656,-427,-180,1549,-1030,-568,-324,77,271,-89
18621,9573,0,2023-03-01T18:56:44.122931,1993661,-427,-180,1549,-1030,-568,-324,77,271,-89
18622,9574,0,2023-03-01T18:56:44.127900,1993666,-427,-180,1549,-1030,-568,-324,77,271,-89
18623,9575,0,2023-03-01T18:56:44.133175,1993671,-431,-178,1548,-1027,-571,-329,77,271,-89
18624,9576,0,2023-03-01T18:56:44.139626,1993678,-431,-178,1548,-1027,-571,-329,77,271,-89
18625,9577,0,2023-03-01T18:56:44.144652,1993683,-431,-178,1548,-1027,-571,-329,77,271,-89
18626,9578,0,2023-03-01T18:56:44.149289,1993688,-431,-178,1548,-1027,-571,-329,77,271,-89
18627,9579,0,2023-03-01T18:56:44.154096,1993693,-428,-176,1547,-1026,-571,-326,77,271,-89
18628,9580,0,2023-03-01T18:56:44.159823,1993698,-428,-176,1547,-1026,-571,-326,77,271,-89
18629,9581,0,2023-03-01T18:56:44.164551,1993703,-428,-176,1547,-1026,-571,-326,77,271,-89
18630,9582,0,2023-03-01T18:56:44.168963,1993708,-428,-176,1547,-1026,-571,-326,77,271,-89
18631,9583,0,2023-03-01T18:56:44.173795,1993712,-425,-176,1544,-1040,-568,-331,77,271,-89
18632,9584,0,2023-03-01T18:56:44.178530,1993717,-425,-176,1544,-1040,-568,-331,77,271,-89
18633,9585,0,2023-03-01T18:56:44.183723,1993722,-425,-176,1544,-1040,-568,-331,77,271,-89
18634,9586,0,2023-03-01T18:56:44.188769,1993728,-425,-176,1544,-1040,-568,-331,77,271,-89
18635,9587,0,2023-03-01T18:56:44.193775,1993733,-427,-180,1547,-1032,-567,-313,77,265,-91
18636,9588,0,2023-03-01T18:56:44.200188,1993739,-427,-180,1547,-1032,-567,-313,77,265,-91
18637,9589,0,2023-03-01T18:56:44.205266,1993744,-427,-180,1547,-1032,-567,-313,77,265,-91
18638,9590,0,2023-03-01T18:56:44.210618,1993749,-430,-177,1545,-1039,-579,-321,77,265,-91
18639,9591,0,2023-03-01T18:56:44.216199,1993755,-430,-177,1545,-1039,-579,-321,77,265,-91
18640,9592,0,2023-03-01T18:56:44.221757,1993760,-430,-177,1545,-1039,-579,-321,77,265,-91
18641,9593,0,2023-03-01T18:56:44.226773,1993765,-430,-177,1545,-1039,-579,-321,77,265,-91
18642,9594,0,2023-03-01T18:56:44.233187,1993772,-424,-181,1548,-1030,-570,-323,77,265,-91
18643,9595,0,2023-03-01T18:56:44.238740,1993778,-424,-181,1548,-1030,-570,-323,77,265,-91
18644,9596,0,2023-03-01T18:56:44.244053,1993783,-424,-181,1548,-1030,-570,-323,77,265,-91
18645,9597,0,2023-03-01T18:56:44.249038,1993788,-424,-181,1548,-1030,-570,-323,77,265,-91
18646,9598,0,2023-03-01T18:56:44.254159,1993793,-428,-178,1550,-1030,-564,-319,77,265,-91
18647,9599,0,2023-03-01T18:56:44.261073,1993799,-428,-178,1550,-1030,-564,-319,77,265,-91
18648,9600,0,2023-03-01T18:56:44.265734,1993804,-428,-178,1550,-1030,-564,-319,77,265,-91
18649,9601,0,2023-03-01T18:56:44.271117,1993809,-428,-179,1547,-1036,-571,-317,77,265,-91
18650,9602,0,2023-03-01T18:56:44.276778,1993816,-428,-179,1547,-1036,-571,-317,77,265,-91
18651,9603,0,2023-03-01T18:56:44.281983,1993821,-428,-179,1547,-1036,-571,-317,77,265,-91
18652,9604,0,2023-03-01T18:56:44.286985,1993826,-428,-179,1547,-1036,-571,-317,77,265,-91
18653,9605,0,2023-03-01T18:56:44.291815,1993830,-429,-176,1543,-1035,-569,-317,77,265,-91
18654,9606,0,2023-03-01T18:56:44.297376,1993836,-429,-176,1543,-1035,-569,-317,77,265,-91
18655,9607,0,2023-03-01T18:56:44.302898,1993841,-429,-176,1543,-1035,-569,-317,77,265,-91
18656,9608,0,2023-03-01T18:56:44.307905,1993846,-429,-176,1543,-1035,-569,-317,77,265,-91
18657,9609,0,2023-03-01T18:56:44.313968,1993852,-424,-174,1544,-1044,-577,-321,77,265,-91
18658,9610,0,2023-03-01T18:56:44.319899,1993859,-424,-174,1544,-1044,-577,-321,77,265,-91
18659,9611,0,2023-03-01T18:56:44.324665,1993864,-424,-174,1544,-1044,-577,-321,77,265,-91
18660,9612,0,2023-03-01T18:56:44.329374,1993868,-424,-174,1544,-1044,-577,-321,77,265,-91
18661,9613,0,2023-03-01T18:56:44.334240,1993873,-428,-179,1548,-1037,-575,-320,74,268,-86
18662,9614,0,2023-03-01T18:56:44.341419,1993879,-428,-179,1548,-1037,-575,-320,74,268,-86
18663,9615,0,2023-03-01T18:56:44.346675,1993885,-428,-179,1548,-1037,-575,-320,74,268,-86
18664,9616,0,2023-03-01T18:56:44.351107,1993890,-426,-173,1549,-1036,-572,-324,74,268,-86
18665,9617,0,2023-03-01T18:56:44.356799,1993895,-426,-173,1549,-1036,-572,-324,74,268,-86
18666,9618,0,2023-03-01T18:56:44.362420,1993901,-426,-173,1549,-1036,-572,-324,74,268,-86
18667,9619,0,2023-03-01T18:56:44.368564,1993907,-426,-173,1549,-1036,-572,-324,74,268,-86
18668,9620,0,2023-03-01T18:56:44.374479,1993913,-425,-177,1546,-1030,-575,-322,74,268,-86
18669,9621,0,2023-03-01T18:56:44.380124,1993919,-425,-177,1546,-1030,-575,-322,74,268,-86
18670,9622,0,2023-03-01T18:56:44.385101,1993924,-425,-177,1546,-1030,-575,-322,74,268,-86
18671,9623,0,2023-03-01T18:56:44.389592,1993928,-425,-177,1546,-1030,-575,-322,74,268,-86
18672,9624,0,2023-03-01T18:56:44.394686,1993933,-426,-177,1543,-1039,-580,-322,74,268,-86
18673,9625,0,2023-03-01T18:56:44.400367,1993939,-426,-177,1543,-1039,-580,-322,74,268,-86
18674,9626,0,2023-03-01T18:56:44.405067,1993944,-426,-177,1543,-1039,-580,-322,74,268,-86
18675,9627,0,2023-03-01T18:56:44.409811,1993949,-426,-177,1543,-1039,-580,-322,74,268,-86
18676,9628,0,2023-03-01T18:56:44.414569,1993953,-429,-179,1544,-1035,-579,-329,74,268,-86
18677,9629,0,2023-03-01T18:56:44.420377,1993959,-429,-179,1544,-1035,-579,-329,74,268,-86
18678,9630,0,2023-03-01T18:56:44.425464,1993964,-429,-179,1544,-1035,-579,-329,74,268,-86
18679,9631,0,2023-03-01T18:56:44.430686,1993969,-427,-176,1543,-1043,-576,-323,74,268,-86
18680,9632,0,2023-03-01T18:56:44.436327,1993975,-427,-176,1543,-1043,-576,-323,74,268,-86
18681,9633,0,2023-03-01T18:56:44.442133,1993980,-427,-176,1543,-1043,-576,-323,74,268,-86
18682,9634,0,2023-03-01T18:56:44.447232,1993986,-427,-176,1543,-1043,-576,-323,74,268,-86
18683,9635,0,2023-03-01T18:56:44.452778,1993991,-426,-179,1549,-1043,-575,-324,76,260,-90
18684,9636,0,2023-03-01T18:56:44.459050,1993998,-426,-179,1549,-1043,-575,-324,76,260,-90
18685,9637,0,2023-03-01T18:56:44.465133,1994003,-426,-179,1549,-1043,-575,-324,76,260,-90
18686,9638,0,2023-03-01T18:56:44.470469,1994009,-426,-179,1549,-1043,-575,-324,76,260,-90
18687,9639,0,2023-03-01T18:56:44.475701,1994014,-429,-175,1548,-1043,-571,-322,76,260,-90
18688,9640,0,2023-03-01T18:56:44.481852,1994020,-429,-175,1548,-1043,-571,-322,76,260,-90
18689,9641,0,2023-03-01T18:56:44.486646,1994025,-429,-175,1548,-1043,-571,-322,76,260,-90
18690,9642,0,2023-03-01T18:56:44.492098,1994031,-429,-172,1546,-1038,-571,-315,76,260,-90
18691,9643,0,2023-03-01T18:56:44.497651,1994036,-429,-172,1546,-1038,-571,-315,76,260,-90
18692,9644,0,2023-03-01T18:56:44.503562,1994042,-429,-172,1546,-1038,-571,-315,76,260,-90
18693,9645,0,2023-03-01T18:56:44.508843,1994047,-429,-172,1546,-1038,-571,-315,76,260,-90
18694,9646,0,2023-03-01T18:56:44.514866,1994053,-428,-177,1547,-1036,-571,-318,76,260,-90
18695,9647,0,2023-03-01T18:56:44.520995,1994059,-428,-177,1547,-1036,-571,-318,76,260,-90
18696,9648,0,2023-03-01T18:56:44.525965,1994064,-428,-177,1547,-1036,-571,-318,76,260,-90
18697,9649,0,2023-03-01T18:56:44.531164,1994070,-425,-175,1543,-1040,-572,-322,76,260,-90
18698,9650,0,2023-03-01T18:56:44.537389,1994076,-425,-175,1543,-1040,-572,-322,76,260,-90
18699,9651,0,2023-03-01T18:56:44.543157,1994082,-425,-175,1543,-1040,-572,-322,76,260,-90
18700,9652,0,2023-03-01T18:56:44.547947,1994087,-425,-175,1543,-1040,-572,-322,76,260,-90
18701,9653,0,2023-03-01T18:56:44.552801,1994091,-427,-175,1546,-1038,-573,-323,76,260,-90
18702,9654,0,2023-03-01T18:56:44.558641,1994097,-427,-175,1546,-1038,-573,-323,76,260,-90
18703,9655,0,2023-03-01T18:56:44.566144,1994104,-427,-175,1546,-1038,-573,-323,76,260,-90
18704,9656,0,2023-03-01T18:56:44.571783,1994110,-426,-176,1548,-1033,-575,-327,83,269,-85
18705,9657,0,2023-03-01T18:56:44.577130,1994116,-426,-176,1548,-1033,-575,-327,83,269,-85
18706,9658,0,2023-03-01T18:56:44.582546,1994122,-426,-176,1548,-1033,-575,-327,83,269,-85
18707,9659,0,2023-03-01T18:56:44.587137,1994126,-426,-176,1548,-1033,-575,-327,83,269,-85
18708,9660,0,2023-03-01T18:56:44.592158,1994131,-425,-177,1552,-1033,-576,-322,83,269,-85
18709,9661,0,2023-03-01T18:56:44.598117,1994136,-425,-177,1552,-1033,-576,-322,83,269,-85
18710,9662,0,2023-03-01T18:56:44.604527,1994143,-425,-177,1552,-1033,-576,-322,83,269,-85
18711,9663,0,2023-03-01T18:56:44.609196,1994147,-425,-177,1552,-1033,-576,-322,83,269,-85
18712,9664,0,2023-03-01T18:56:44.614434,1994152,-427,-174,1547,-1040,-572,-319,83,269,-85
18713,9665,0,2023-03-01T18:56:44.621893,1994161,-427,-174,1547,-1040,-572,-319,83,269,-85
18714,9666,0,2023-03-01T18:56:44.626886,1994166,-427,-174,1547,-1040,-572,-319,83,269,-85
18715,9667,0,2023-03-01T18:56:44.632614,1994171,-427,-176,1545,-1047,-570,-328,83,269,-85
18716,9668,0,2023-03-01T18:56:44.638171,1994177,-427,-176,1545,-1047,-570,-328,83,269,-85
18717,9669,0,2023-03-01T18:56:44.642907,1994181,-427,-176,1545,-1047,-570,-328,83,269,-85
18718,9670,0,2023-03-01T18:56:44.648253,1994186,-427,-176,1545,-1047,-570,-328,83,269,-85
18719,9671,0,2023-03-01T18:56:44.654272,1994192,-427,-181,1550,-1038,-578,-325,83,269,-85
18720,9672,0,2023-03-01T18:56:44.659473,1994199,-427,-181,1550,-1038,-578,-325,83,269,-85
18721,9673,0,2023-03-01T18:56:44.664324,1994203,-427,-181,1550,-1038,-578,-325,83,269,-85
18722,9674,0,2023-03-01T18:56:44.670568,1994208,-427,-181,1550,-1038,-578,-325,83,269,-85
18723,9675,0,2023-03-01T18:56:44.676566,1994215,-428,-177,1544,-1040,-576,-324,83,269,-85
18724,9676,0,2023-03-01T18:56:44.683244,1994222,-428,-177,1544,-1040,-576,-324,83,269,-85
18725,9677,0,2023-03-01T18:56:44.688631,1994227,-428,-177,1544,-1040,-576,-324,83,269,-85
18726,9678,0,2023-03-01T18:56:44.693352,1994232,-425,-178,1545,-1033,-569,-318,83,269,-85
18727,9679,0,2023-03-01T18:56:44.699711,1994238,-425,-178,1545,-1033,-569,-318,83,269,-85
18728,9680,0,2023-03-01T18:56:44.704704,1994244,-425,-178,1545,-1033,-569,-318,83,269,-85
18729,9681,0,2023-03-01T18:56:44.710065,1994249,-425,-178,1545,-1033,-569,-318,83,269,-85
18730,9682,0,2023-03-01T18:56:44.715137,1994254,-427,-175,1545,-1038,-565,-317,83,277,-95
18731,9683,0,2023-03-01T18:56:44.721283,1994260,-427,-175,1545,-1038,-565,-317,83,277,-95
18732,9684,0,2023-03-01T18:56:44.726721,1994265,-427,-175,1545,-1038,-565,-317,83,277,-95
18733,9685,0,2023-03-01T18:56:44.731759,1994270,-429,-176,1546,-1032,-573,-320,83,277,-95
18734,9686,0,2023-03-01T18:56:44.738117,1994276,-429,-176,1546,-1032,-573,-320,83,277,-95
18735,9687,0,2023-03-01T18:56:44.743483,1994283,-429,-176,1546,-1032,-573,-320,83,277,-95
18736,9688,0,2023-03-01T18:56:44.748413,1994287,-429,-176,1546,-1032,-573,-320,83,277,-95
18737,9689,0,2023-03-01T18:56:44.753558,1994292,-424,-175,1541,-1038,-571,-313,83,277,-95
18738,9690,0,2023-03-01T18:56:44.760021,1994299,-424,-175,1541,-1038,-571,-313,83,277,-95
18739,9691,0,2023-03-01T18:56:44.765512,1994304,-424,-175,1541,-1038,-571,-313,83,277,-95
18740,9692,0,2023-03-01T18:56:44.771915,1994310,-426,-173,1537,-1042,-574,-328,83,277,-95
18741,9693,0,2023-03-01T18:56:44.777859,1994316,-426,-173,1537,-1042,-574,-328,83,277,-95
18742,9694,0,2023-03-01T18:56:44.783291,1994321,-426,-173,1537,-1042,-574,-328,83,277,-95
18743,9695,0,2023-03-01T18:56:44.788773,1994328,-426,-173,1537,-1042,-574,-328,83,277,-95
18744,9696,0,2023-03-01T18:56:44.793633,1994333,-427,-178,1546,-1037,-571,-321,83,277,-95
18745,9697,0,2023-03-01T18:56:44.800128,1994339,-427,-178,1546,-1037,-571,-321,83,277,-95
18746,9698,0,2023-03-01T18:56:44.804829,1994344,-427,-178,1546,-1037,-571,-321,83,277,-95
18747,9699,0,2023-03-01T18:56:44.809394,1994348,-427,-178,1546,-1037,-571,-321,83,277,-95
18748,9700,0,2023-03-01T18:56:44.815241,1994353,-427,-176,1544,-1034,-574,-320,83,277,-95
18749,9701,0,2023-03-01T18:56:44.821475,1994360,-427,-176,1544,-1034,-574,-320,83,277,-95
18750,9702,0,2023-03-01T18:56:44.826526,1994365,-427,-176,1544,-1034,-574,-320,83,277,-95
18751,9703,0,2023-03-01T18:56:44.832470,1994372,-426,-174,1552,-1034,-565,-322,74,272,-98
18752,9704,0,2023-03-01T18:56:44.837691,1994377,-426,-174,1552,-1034,-565,-322,74,272,-98
18753,9705,0,2023-03-01T18:56:44.843011,1994381,-426,-174,1552,-1034,-565,-322,74,272,-98
18754,9706,0,2023-03-01T18:56:44.847863,1994387,-426,-174,1552,-1034,-565,-322,74,272,-98
18755,9707,0,2023-03-01T18:56:44.853302,1994392,-426,-174,1542,-1031,-574,-317,74,272,-98
18756,9708,0,2023-03-01T18:56:44.859217,1994398,-426,-174,1542,-1031,-574,-317,74,272,-98
18757,9709,0,2023-03-01T18:56:44.864933,1994403,-426,-174,1542,-1031,-574,-317,74,272,-98
18758,9710,0,2023-03-01T18:56:44.870005,1994408,-426,-174,1542,-1031,-574,-317,74,272,-98
18759,9711,0,2023-03-01T18:56:44.874993,1994414,-426,-174,1548,-1031,-576,-321,74,272,-98
18760,9712,0,2023-03-01T18:56:44.882088,1994421,-426,-174,1548,-1031,-576,-321,74,272,-98
18761,9713,0,2023-03-01T18:56:44.887038,1994426,-426,-174,1548,-1031,-576,-321,74,272,-98
18762,9714,0,2023-03-01T18:56:44.893580,1994432,-428,-176,1544,-1029,-576,-323,74,272,-98
18763,9715,0,2023-03-01T18:56:44.899405,1994438,-428,-176,1544,-1029,-576,-323,74,272,-98
18764,9716,0,2023-03-01T18:56:44.904530,1994443,-428,-176,1544,-1029,-576,-323,74,272,-98
18765,9717,0,2023-03-01T18:56:44.909311,1994448,-428,-176,1544,-1029,-576,-323,74,272,-98
18766,9718,0,2023-03-01T18:56:44.914881,1994454,-427,-178,1542,-1028,-571,-324,74,272,-98
18767,9719,0,2023-03-01T18:56:44.920780,1994460,-427,-178,1542,-1028,-571,-324,74,272,-98
18768,9720,0,2023-03-01T18:56:44.926063,1994465,-427,-178,1542,-1028,-571,-324,74,272,-98
18769,9721,0,2023-03-01T18:56:44.931894,1994470,-427,-177,1545,-1028,-568,-314,74,272,-98
18770,9722,0,2023-03-01T18:56:44.938803,1994476,-427,-177,1545,-1028,-568,-314,74,272,-98
18771,9723,0,2023-03-01T18:56:44.944391,1994483,-427,-177,1545,-1028,-568,-314,74,272,-98
18772,9724,0,2023-03-01T18:56:44.949933,1994488,-427,-177,1545,-1028,-568,-314,74,272,-98
18773,9725,0,2023-03-01T18:56:44.955162,1994493,-429,-178,1544,-1032,-572,-318,74,272,-98
18774,9726,0,2023-03-01T18:56:44.961643,1994500,-429,-178,1544,-1032,-572,-318,74,272,-98
18775,9727,0,2023-03-01T18:56:44.967021,1994506,-429,-178,1544,-1032,-572,-318,74,272,-98
18776,9728,0,2023-03-01T18:56:44.972854,1994512,-428,-178,1548,-1028,-570,-319,83,267,-95
18777,9729,0,2023-03-01T18:56:44.978428,1994517,-428,-178,1548,-1028,-570,-319,83,267,-95
18778,9730,0,2023-03-01T18:56:44.983787,1994522,-428,-178,1548,-1028,-570,-319,83,267,-95
18779,9731,0,2023-03-01T18:56:44.989268,1994527,-428,-178,1548,-1028,-570,-319,83,267,-95
18780,9732,0,2023-03-01T18:56:44.994814,1994533,-428,-179,1552,-1036,-573,-322,83,267,-95
18781,9733,0,2023-03-01T18:56:45.001728,1994540,-428,-179,1552,-1036,-573,-322,83,267,-95
18782,9734,0,2023-03-01T18:56:45.006952,1994546,-428,-179,1552,-1036,-573,-322,83,267,-95
18783,9735,0,2023-03-01T18:56:45.012455,1994551,-426,-179,1543,-1037,-566,-316,83,267,-95
18784,9736,0,2023-03-01T18:56:45.017925,1994557,-426,-179,1543,-1037,-566,-316,83,267,-95
18785,9737,0,2023-03-01T18:56:45.023498,1994562,-426,-179,1543,-1037,-566,-316,83,267,-95
18786,9738,0,2023-03-01T18:56:45.028651,1994567,-426,-179,1543,-1037,-566,-316,83,267,-95
18787,9739,0,2023-03-01T18:56:45.034853,1994573,-426,-177,1548,-1036,-579,-316,83,267,-95
18788,9740,0,2023-03-01T18:56:45.041384,1994580,-426,-177,1548,-1036,-579,-316,83,267,-95
18789,9741,0,2023-03-01T18:56:45.046588,1994585,-426,-177,1548,-1036,-579,-316,83,267,-95
18790,9742,0,2023-03-01T18:56:45.051657,1994590,-425,-177,1548,-1031,-575,-323,83,267,-95
18791,9743,0,2023-03-01T18:56:45.057778,1994596,-425,-177,1548,-1031,-575,-323,83,267,-95
18792,9744,0,2023-03-01T18:56:45.063539,1994602,-425,-177,1548,-1031,-575,-323,83,267,-95
18793,9745,0,2023-03-01T18:56:45.068719,1994607,-425,-177,1548,-1031,-575,-323,83,267,-95
18794,9746,0,2023-03-01T18:56:45.073841,1994612,-427,-178,1548,-1029,-568,-317,83,267,-95
18795,9747,0,2023-03-01T18:56:45.080376,1994619,-427,-178,1548,-1029,-568,-317,83,267,-95
18796,9748,0,2023-03-01T18:56:45.085332,1994625,-427,-178,1548,-1029,-568,-317,83,267,-95
18797,9749,0,2023-03-01T18:56:45.090228,1994629,-427,-178,1548,-1029,-568,-317,83,267,-95
18798,9750,0,2023-03-01T18:56:45.095181,1994634,-427,-178,1548,-1029,-568,-317,74,266,-84
18799,9751,0,2023-03-01T18:56:45.100666,1994639,-427,-178,1548,-1029,-568,-317,74,266,-84
18800,9752,0,2023-03-01T18:56:45.106064,1994644,-427,-178,1548,-1029,-568,-317,74,266,-84
18801,9753,0,2023-03-01T18:56:45.112288,1994650,-427,-177,1546,-1033,-571,-323,74,266,-84
18802,9754,0,2023-03-01T18:56:45.118415,1994657,-427,-177,1546,-1033,-571,-323,74,266,-84
18803,9755,0,2023-03-01T18:56:45.123845,1994662,-427,-177,1546,-1033,-571,-323,74,266,-84
18804,9756,0,2023-03-01T18:56:45.128598,1994668,-427,-177,1546,-1033,-571,-323,74,266,-84
18805,9757,0,2023-03-01T18:56:45.134875,1994673,-428,-178,1548,-1038,-574,-320,74,266,-84
18806,9758,0,2023-03-01T18:56:45.141752,1994680,-428,-178,1548,-1038,-574,-320,74,266,-84
18807,9759,0,2023-03-01T18:56:45.146927,1994686,-428,-178,1548,-1038,-574,-320,74,266,-84
18808,9760,0,2023-03-01T18:56:45.151806,1994690,-430,-179,1548,-1024,-570,-319,74,266,-84
18809,9761,0,2023-03-01T18:56:45.157391,1994696,-430,-179,1548,-1024,-570,-319,74,266,-84
18810,9762,0,2023-03-01T18:56:45.162997,1994701,-430,-179,1548,-1024,-570,-319,74,266,-84
18811,9763,0,2023-03-01T18:56:45.168386,1994706,-430,-179,1548,-1024,-570,-319,74,266,-84
18812,9764,0,2023-03-01T18:56:45.173400,1994713,-425,-176,1543,-1040,-573,-320,74,266,-84
18813,9765,0,2023-03-01T18:56:45.179431,1994719,-425,-176,1543,-1040,-573,-320,74,266,-84
18814,9766,0,2023-03-01T18:56:45.184519,1994723,-425,-176,1543,-1040,-573,-320,74,266,-84
18815,9767,0,2023-03-01T18:56:45.189716,1994728,-425,-176,1543,-1040,-573,-320,74,266,-84
18816,9768,0,2023-03-01T18:56:45.194566,1994733,-426,-180,1545,-1038,-571,-318,74,266,-84
18817,9769,0,2023-03-01T18:56:45.200395,1994739,-426,-180,1545,-1038,-571,-318,74,266,-84
18818,9770,0,2023-03-01T18:56:45.205380,1994744,-426,-180,1545,-1038,-571,-318,74,266,-84
18819,9771,0,2023-03-01T18:56:45.210433,1994749,-426,-180,1545,-1038,-571,-318,74,266,-84
18820,9772,0,2023-03-01T18:56:45.215293,1994754,-427,-177,1546,-1041,-574,-321,74,266,-84
18821,9773,0,2023-03-01T18:56:45.221882,1994760,-427,-177,1546,-1041,-574,-321,74,266,-84
18822,9774,0,2023-03-01T18:56:45.227640,1994766,-427,-177,1546,-1041,-574,-321,74,266,-84
18823,9775,0,2023-03-01T18:56:45.232902,1994772,-428,-177,1549,-1029,-572,-321,84,266,-96
18824,9776,0,2023-03-01T18:56:45.239105,1994778,-428,-177,1549,-1029,-572,-321,84,266,-96
18825,9777,0,2023-03-01T18:56:45.244048,1994782,-428,-177,1549,-1029,-572,-321,84,266,-96
18826,9778,0,2023-03-01T18:56:45.248924,1994787,-428,-177,1549,-1029,-572,-321,84,266,-96
18827,9779,0,2023-03-01T18:56:45.253786,1994792,-428,-178,1544,-1037,-574,-315,84,266,-96
18828,9780,0,2023-03-01T18:56:45.260316,1994800,-428,-178,1544,-1037,-574,-315,84,266,-96
18829,9781,0,2023-03-01T18:56:45.265278,1994804,-428,-178,1544,-1037,-574,-315,84,266,-96
18830,9782,0,2023-03-01T18:56:45.270521,1994809,-428,-178,1544,-1037,-574,-315,84,266,-96
18831,9783,0,2023-03-01T18:56:45.275696,1994814,-425,-178,1544,-1043,-573,-323,84,266,-96
18832,9784,0,2023-03-01T18:56:45.282659,1994821,-425,-178,1544,-1043,-573,-323,84,266,-96
18833,9785,0,2023-03-01T18:56:45.287719,1994826,-425,-178,1544,-1043,-573,-323,84,266,-96
18834,9786,0,2023-03-01T18:56:45.293489,1994831,-431,-178,1547,-1037,-570,-323,84,266,-96
18835,9787,0,2023-03-01T18:56:45.299265,1994838,-431,-178,1547,-1037,-570,-323,84,266,-96
18836,9788,0,2023-03-01T18:56:45.305883,1994844,-431,-178,1547,-1037,-570,-323,84,266,-96
18837,9789,0,2023-03-01T18:56:45.312411,1994851,-426,-180,1547,-1037,-572,-328,84,266,-96
18838,9790,0,2023-03-01T18:56:45.318470,1994857,-426,-180,1547,-1037,-572,-328,84,266,-96
18839,9791,0,2023-03-01T18:56:45.324222,1994863,-426,-180,1547,-1037,-572,-328,84,266,-96
18840,9792,0,2023-03-01T18:56:45.329989,1994868,-426,-180,1547,-1037,-572,-328,84,266,-96
18841,9793,0,2023-03-01T18:56:45.337769,1994875,-429,-178,1550,-1037,-575,-324,84,266,-96
18842,9794,0,2023-03-01T18:56:45.344946,1994884,-429,-178,1550,-1037,-575,-324,84,266,-96
18843,9795,0,2023-03-01T18:56:45.350433,1994889,-429,-178,1550,-1037,-575,-324,84,266,-96
18844,9796,0,2023-03-01T18:56:45.356216,1994894,-426,-180,1553,-1033,-577,-321,81,269,-95
18845,9797,0,2023-03-01T18:56:45.363270,1994902,-426,-180,1553,-1033,-577,-321,81,269,-95
18846,9798,0,2023-03-01T18:56:45.369233,1994907,-426,-180,1553,-1033,-577,-321,81,269,-95
18847,9799,0,2023-03-01T18:56:45.374977,1994913,-427,-175,1547,-1031,-571,-324,81,269,-95
18848,9800,0,2023-03-01T18:56:45.381421,1994920,-427,-175,1547,-1031,-571,-324,81,269,-95
18849,9801,0,2023-03-01T18:56:45.386569,1994925,-427,-175,1547,-1031,-571,-324,81,269,-95
18850,9802,0,2023-03-01T18:56:45.392690,1994931,-430,-175,1549,-1044,-575,-324,81,269,-95
18851,9803,0,2023-03-01T18:56:45.398385,1994937,-430,-175,1549,-1044,-575,-324,81,269,-95
18852,9804,0,2023-03-01T18:56:45.404021,1994943,-430,-175,1549,-1044,-575,-324,81,269,-95
18853,9805,0,2023-03-01T18:56:45.409419,1994948,-430,-175,1549,-1044,-575,-324,81,269,-95
18854,9806,0,2023-03-01T18:56:45.414731,1994954,-425,-177,1538,-1039,-576,-319,81,269,-95
18855,9807,0,2023-03-01T18:56:45.420260,1994958,-425,-177,1538,-1039,-576,-319,81,269,-95
18856,9808,0,2023-03-01T18:56:45.426068,1994964,-425,-177,1538,-1039,-576,-319,81,269,-95
18857,9809,0,2023-03-01T18:56:45.431009,1994970,-425,-177,1538,-1039,-576,-319,81,269,-95
18858,9810,0,2023-03-01T18:56:45.435809,1994975,-424,-177,1545,-1039,-573,-322,81,269,-95
18859,9811,0,2023-03-01T18:56:45.442281,1994981,-424,-177,1545,-1039,-573,-322,81,269,-95
18860,9812,0,2023-03-01T18:56:45.447762,1994986,-424,-177,1545,-1039,-573,-322,81,269,-95
18861,9813,0,2023-03-01T18:56:45.453412,1994992,-428,-176,1547,-1038,-569,-325,81,269,-95
18862,9814,0,2023-03-01T18:56:45.459756,1994998,-428,-176,1547,-1038,-569,-325,81,269,-95
18863,9815,0,2023-03-01T18:56:45.465206,1995003,-428,-176,1547,-1038,-569,-325,81,269,-95
18864,9816,0,2023-03-01T18:56:45.471119,1995010,-428,-176,1547,-1038,-569,-325,81,269,-95
18865,9817,0,2023-03-01T18:56:45.476179,1995015,-428,-176,1543,-1041,-576,-324,68,262,-98
18866,9818,0,2023-03-01T18:56:45.482363,1995021,-428,-176,1543,-1041,-576,-324,68,262,-98
18867,9819,0,2023-03-01T18:56:45.487420,1995026,-428,-176,1543,-1041,-576,-324,68,262,-98
18868,9820,0,2023-03-01T18:56:45.493636,1995032,-427,-175,1546,-1034,-571,-323,68,262,-98
18869,9821,0,2023-03-01T18:56:45.500178,1995039,-427,-175,1546,-1034,-571,-323,68,262,-98
18870,9822,0,2023-03-01T18:56:45.505979,1995044,-427,-175,1546,-1034,-571,-323,68,262,-98
18871,9823,0,2023-03-01T18:56:45.511040,1995049,-427,-175,1546,-1034,-571,-323,68,262,-98
18872,9824,0,2023-03-01T18:56:45.515931,1995055,-427,-176,1554,-1030,-566,-325,68,262,-98
18873,9825,0,2023-03-01T18:56:45.522479,1995061,-427,-176,1554,-1030,-566,-325,68,262,-98
18874,9826,0,2023-03-01T18:56:45.527563,1995066,-427,-176,1554,-1030,-566,-325,68,262,-98
18875,9827,0,2023-03-01T18:56:45.533319,1995072,-428,-178,1548,-1027,-567,-320,68,262,-98
18876,9828,0,2023-03-01T18:56:45.540252,1995078,-428,-178,1548,-1027,-567,-320,68,262,-98
18877,9829,0,2023-03-01T18:56:45.545924,1995084,-428,-178,1548,-1027,-567,-320,68,262,-98
18878,9830,0,2023-03-01T18:56:45.551133,1995089,-428,-178,1548,-1027,-567,-320,68,262,-98
18879,9831,0,2023-03-01T18:56:45.558478,1995097,-426,-178,1540,-1023,-573,-324,68,262,-98
18880,9832,0,2023-03-01T18:56:45.564891,1995104,-426,-178,1540,-1023,-573,-324,68,262,-98
18881,9833,0,2023-03-01T18:56:45.569944,1995109,-426,-178,1540,-1023,-573,-324,68,262,-98
18882,9834,0,2023-03-01T18:56:45.575952,1995114,-427,-178,1548,-1039,-569,-321,68,262,-98
18883,9835,0,2023-03-01T18:56:45.582605,1995121,-427,-178,1548,-1039,-569,-321,68,262,-98
18884,9836,0,2023-03-01T18:56:45.587539,1995126,-427,-178,1548,-1039,-569,-321,68,262,-98
18885,9837,0,2023-03-01T18:56:45.592480,1995131,-429,-176,1542,-1028,-565,-321,68,262,-98
18886,9838,0,2023-03-01T18:56:45.598123,1995137,-429,-176,1542,-1028,-565,-321,68,262,-98
18887,9839,0,2023-03-01T18:56:45.603935,1995143,-429,-176,1542,-1028,-565,-321,68,262,-98
18888,9840,0,2023-03-01T18:56:45.609007,1995148,-429,-176,1542,-1028,-565,-321,68,262,-98
18889,9841,0,2023-03-01T18:56:45.615023,1995153,-425,-177,1543,-1024,-562,-323,76,274,-94
18890,9842,0,2023-03-01T18:56:45.622237,1995161,-425,-177,1543,-1024,-562,-323,76,274,-94
18891,9843,0,2023-03-01T18:56:45.627844,1995166,-425,-177,1543,-1024,-562,-323,76,274,-94
18892,9844,0,2023-03-01T18:56:45.633190,1995171,-429,-178,1546,-1032,-573,-319,76,274,-94
18893,9845,0,2023-03-01T18:56:45.639233,1995177,-429,-178,1546,-1032,-573,-319,76,274,-94
18894,9846,0,2023-03-01T18:56:45.645141,1995184,-429,-178,1546,-1032,-573,-319,76,274,-94
18895,9847,0,2023-03-01T18:56:45.650498,1995189,-429,-178,1546,-1032,-573,-319,76,274,-94
18896,9848,0,2023-03-01T18:56:45.655873,1995195,-427,-178,1546,-1030,-571,-318,76,274,-94
18897,9849,0,2023-03-01T18:56:45.663814,1995201,-427,-178,1546,-1030,-571,-318,76,274,-94
18898,9850,0,2023-03-01T18:56:45.671064,1995209,-427,-178,1546,-1030,-571,-318,76,274,-94
18899,9851,0,2023-03-01T18:56:45.676485,1995215,-427,-178,1546,-1030,-571,-318,76,274,-94
18900,9852,0,2023-03-01T18:56:45.682538,1995222,-427,-178,1546,-1030,-571,-318,76,274,-94
18901,9853,0,2023-03-01T18:56:45.687075,1995226,-427,-178,1546,-1030,-571,-318,76,274,-94
18902,9854,0,2023-03-01T18:56:45.691845,1995231,-427,-178,1546,-1030,-571,-318,76,274,-94
18903,9855,0,2023-03-01T18:56:45.696508,1995236,-427,-177,1546,-1036,-579,-322,76,274,-94
18904,9856,0,2023-03-01T18:56:45.701227,1995240,-427,-177,1546,-1036,-579,-322,76,274,-94
18905,9857,0,2023-03-01T18:56:45.706476,1995245,-427,-177,1546,-1036,-579,-322,76,274,-94
18906,9858,0,2023-03-01T18:56:45.712270,1995251,-429,-179,1539,-1041,-576,-325,76,274,-94
18907,9859,0,2023-03-01T18:56:45.717778,1995256,-429,-179,1539,-1041,-576,-325,76,274,-94
18908,9860,0,2023-03-01T18:56:45.723063,1995261,-429,-179,1539,-1041,-576,-325,76,274,-94
18909,9861,0,2023-03-01T18:56:45.728200,1995267,-429,-179,1539,-1041,-576,-325,76,274,-94
18910,9862,0,2023-03-01T18:56:45.733635,1995273,-427,-176,1548,-1035,-576,-312,79,267,-93
18911,9863,0,2023-03-01T18:56:45.739344,1995278,-427,-176,1548,-1035,-576,-312,79,267,-93
18912,9864,0,2023-03-01T18:56:45.745944,1995284,-427,-176,1548,-1035,-576,-312,79,267,-93
18913,9865,0,2023-03-01T18:56:45.751364,1995289,-427,-176,1548,-1035,-576,-312,79,267,-93
18914,9866,0,2023-03-01T18:56:45.756134,1995295,-426,-176,1550,-1034,-572,-321,79,267,-93
18915,9867,0,2023-03-01T18:56:45.762005,1995300,-426,-176,1550,-1034,-572,-321,79,267,-93
18916,9868,0,2023-03-01T18:56:45.766729,1995305,-426,-176,1550,-1034,-572,-321,79,267,-93
18917,9869,0,2023-03-01T18:56:45.771912,1995311,-426,-176,1550,-1034,-572,-321,79,267,-93
18918,9870,0,2023-03-01T18:56:45.778303,1995317,-430,-180,1543,-1043,-574,-321,79,267,-93
18919,9871,0,2023-03-01T18:56:45.784952,1995324,-430,-180,1543,-1043,-574,-321,79,267,-93
18920,9872,0,2023-03-01T18:56:45.789722,1995329,-430,-180,1543,-1043,-574,-321,79,267,-93
18921,9873,0,2023-03-01T18:56:45.795422,1995334,-425,-177,1546,-1035,-575,-320,79,267,-93
18922,9874,0,2023-03-01T18:56:45.801368,1995340,-425,-177,1546,-1035,-575,-320,79,267,-93
18923,9875,0,2023-03-01T18:56:45.806530,1995345,-425,-177,1546,-1035,-575,-320,79,267,-93
18924,9876,0,2023-03-01T18:56:45.812454,1995352,-429,-177,1544,-1032,-571,-322,79,267,-93
18925,9877,0,2023-03-01T18:56:45.817702,1995357,-429,-177,1544,-1032,-571,-322,79,267,-93
18926,9878,0,2023-03-01T18:56:45.822752,1995362,-429,-177,1544,-1032,-571,-322,79,267,-93
18927,9879,0,2023-03-01T18:56:45.827549,1995366,-429,-177,1544,-1032,-571,-322,79,267,-93
18928,9880,0,2023-03-01T18:56:45.833377,1995372,-426,-178,1549,-1033,-573,-324,79,267,-93
18929,9881,0,2023-03-01T18:56:45.839540,1995378,-426,-178,1549,-1033,-573,-324,79,267,-93
18930,9882,0,2023-03-01T18:56:45.844864,1995383,-426,-178,1549,-1033,-573,-324,79,267,-93
18931,9883,0,2023-03-01T18:56:45.849769,1995388,-426,-178,1549,-1033,-573,-324,79,267,-93
18932,9884,0,2023-03-01T18:56:45.854647,1995394,-427,-176,1543,-1037,-579,-323,79,267,-93
18933,9885,0,2023-03-01T18:56:45.860533,1995400,-427,-176,1543,-1037,-579,-323,79,267,-93
18934,9886,0,2023-03-01T18:56:45.865611,1995404,-427,-176,1543,-1037,-579,-323,79,267,-93
18935,9887,0,2023-03-01T18:56:45.871558,1995410,-427,-176,1543,-1037,-579,-323,79,267,-93
18936,9888,0,2023-03-01T18:56:45.876480,1995415,-426,-177,1549,-1028,-572,-330,78,262,-84
18937,9889,0,2023-03-01T18:56:45.882652,1995421,-426,-177,1549,-1028,-572,-330,78,262,-84
18938,9890,0,2023-03-01T18:56:45.887592,1995426,-426,-177,1549,-1028,-572,-330,78,262,-84
18939,9891,0,2023-03-01T18:56:45.892249,1995431,-428,-177,1545,-1040,-574,-332,78,262,-84
18940,9892,0,2023-03-01T18:56:45.898100,1995437,-428,-177,1545,-1040,-574,-332,78,262,-84
18941,9893,0,2023-03-01T18:56:45.903819,1995443,-428,-177,1545,-1040,-574,-332,78,262,-84
18942,9894,0,2023-03-01T18:56:45.908387,1995447,-428,-177,1545,-1040,-574,-332,78,262,-84
18943,9895,0,2023-03-01T18:56:45.914016,1995452,-426,-176,1543,-1039,-566,-321,78,262,-84
18944,9896,0,2023-03-01T18:56:45.920640,1995459,-426,-176,1543,-1039,-566,-321,78,262,-84
18945,9897,0,2023-03-01T18:56:45.926209,1995464,-426,-176,1543,-1039,-566,-321,78,262,-84
18946,9898,0,2023-03-01T18:56:45.932257,1995471,-428,-178,1544,-1031,-571,-326,78,262,-84
18947,9899,0,2023-03-01T18:56:45.937844,1995476,-428,-178,1544,-1031,-571,-326,78,262,-84
18948,9900,0,2023-03-01T18:56:45.943695,1995483,-428,-178,1544,-1031,-571,-326,78,262,-84
18949,9901,0,2023-03-01T18:56:45.948932,1995488,-428,-178,1544,-1031,-571,-326,78,262,-84
18950,9902,0,2023-03-01T18:56:45.954935,1995493,-426,-178,1544,-1043,-578,-326,78,262,-84
18951,9903,0,2023-03-01T18:56:45.961126,1995500,-426,-178,1544,-1043,-578,-326,78,262,-84
18952,9904,0,2023-03-01T18:56:45.965833,1995504,-426,-178,1544,-1043,-578,-326,78,262,-84
18953,9905,0,2023-03-01T18:56:45.970829,1995509,-426,-178,1544,-1043,-578,-326,78,262,-84
18954,9906,0,2023-03-01T18:56:45.975312,1995514,-426,-178,1545,-1042,-574,-328,78,262,-84
18955,9907,0,2023-03-01T18:56:45.982053,1995521,-426,-178,1545,-1042,-574,-328,78,262,-84
18956,9908,0,2023-03-01T18:56:45.987495,1995526,-426,-178,1545,-1042,-574,-328,78,262,-84
18957,9909,0,2023-03-01T18:56:45.992651,1995531,-427,-173,1544,-1036,-575,-320,78,262,-84
18958,9910,0,2023-03-01T18:56:45.998539,1995537,-427,-173,1544,-1036,-575,-320,73,275,-97
18959,9911,0,2023-03-01T18:56:46.004284,1995543,-427,-173,1544,-1036,-575,-320,73,275,-97
18960,9912,0,2023-03-01T18:56:46.009695,1995548,-427,-173,1544,-1036,-575,-320,73,275,-97
18961,9913,0,2023-03-01T18:56:46.015794,1995554,-426,-175,1545,-1038,-575,-324,73,275,-97
18962,9914,0,2023-03-01T18:56:46.022169,1995560,-426,-175,1545,-1038,-575,-324,73,275,-97
18963,9915,0,2023-03-01T18:56:46.026779,1995566,-426,-175,1545,-1038,-575,-324,73,275,-97
18964,9916,0,2023-03-01T18:56:46.031641,1995571,-426,-175,1545,-1038,-575,-324,73,275,-97
18965,9917,0,2023-03-01T18:56:46.037671,1995576,-429,-177,1542,-1035,-571,-327,73,275,-97
18966,9918,0,2023-03-01T18:56:46.043826,1995583,-429,-177,1542,-1035,-571,-327,73,275,-97
18967,9919,0,2023-03-01T18:56:46.048480,1995587,-429,-177,1542,-1035,-571,-327,73,275,-97
18968,9920,0,2023-03-01T18:56:46.054122,1995592,-427,-177,1545,-1034,-575,-324,73,275,-97
18969,9921,0,2023-03-01T18:56:46.060636,1995599,-427,-177,1545,-1034,-575,-324,73,275,-97
18970,9922,0,2023-03-01T18:56:46.065898,1995604,-427,-177,1545,-1034,-575,-324,73,275,-97
18971,9923,0,2023-03-01T18:56:46.071101,1995610,-427,-177,1545,-1034,-575,-324,73,275,-97
18972,9924,0,2023-03-01T18:56:46.076660,1995616,-428,-178,1544,-1030,-569,-322,73,275,-97
18973,9925,0,2023-03-01T18:56:46.082952,1995622,-428,-178,1544,-1030,-569,-322,73,275,-97
18974,9926,0,2023-03-01T18:56:46.088166,1995627,-428,-178,1544,-1030,-569,-322,73,275,-97
18975,9927,0,2023-03-01T18:56:46.094250,1995633,-425,-175,1551,-1031,-574,-324,73,275,-97
18976,9928,0,2023-03-01T18:56:46.101193,1995639,-425,-175,1551,-1031,-574,-324,73,275,-97
18977,9929,0,2023-03-01T18:56:46.106069,1995644,-425,-175,1551,-1031,-574,-324,73,275,-97
18978,9930,0,2023-03-01T18:56:46.111498,1995650,-425,-175,1551,-1031,-574,-324,73,275,-97
18979,9931,0,2023-03-01T18:56:46.117176,1995656,-427,-178,1539,-1024,-566,-322,73,275,-97
18980,9932,0,2023-03-01T18:56:46.124182,1995663,-427,-178,1539,-1024,-566,-322,73,275,-97
18981,9933,0,2023-03-01T18:56:46.130194,1995669,-427,-178,1539,-1024,-566,-322,73,275,-97
18982,9934,0,2023-03-01T18:56:46.135888,1995674,-428,-177,1542,-1031,-573,-322,84,268,-86
18983,9935,0,2023-03-01T18:56:46.142587,1995681,-428,-177,1542,-1031,-573,-322,84,268,-86
18984,9936,0,2023-03-01T18:56:46.147923,1995686,-428,-177,1542,-1031,-573,-322,84,268,-86
18985,9937,0,2023-03-01T18:56:46.152796,1995692,-426,-175,1540,-1030,-570,-321,84,268,-86
18986,9938,0,2023-03-01T18:56:46.158262,1995697,-426,-175,1540,-1030,-570,-321,84,268,-86
18987,9939,0,2023-03-01T18:56:46.163488,1995702,-426,-175,1540,-1030,-570,-321,84,268,-86
18988,9940,0,2023-03-01T18:56:46.168674,1995707,-426,-175,1540,-1030,-570,-321,84,268,-86
18989,9941,0,2023-03-01T18:56:46.174713,1995713,-425,-178,1540,-1044,-575,-326,84,268,-86
18990,9942,0,2023-03-01T18:56:46.180895,1995719,-425,-178,1540,-1044,-575,-326,84,268,-86
18991,9943,0,2023-03-01T18:56:46.186987,1995725,-425,-178,1540,-1044,-575,-326,84,268,-86
18992,9944,0,2023-03-01T18:56:46.193339,1995732,-427,-178,1539,-1049,-569,-321,84,268,-86
18993,9945,0,2023-03-01T18:56:46.198695,1995738,-427,-178,1539,-1049,-569,-321,84,268,-86
18994,9946,0,2023-03-01T18:56:46.204311,1995743,-427,-178,1539,-1049,-569,-321,84,268,-86
18995,9947,0,2023-03-01T18:56:46.209745,1995748,-427,-178,1539,-1049,-569,-321,84,268,-86
18996,9948,0,2023-03-01T18:56:46.214898,1995753,-431,-178,1546,-1042,-573,-324,84,268,-86
18997,9949,0,2023-03-01T18:56:46.221097,1995760,-431,-178,1546,-1042,-573,-324,84,268,-86
18998,9950,0,2023-03-01T18:56:46.226125,1995765,-431,-178,1546,-1042,-573,-324,84,268,-86
18999,9951,0,2023-03-01T18:56:46.230875,1995769,-431,-178,1546,-1042,-573,-324,84,268,-86
19000,9952,0,2023-03-01T18:56:46.235992,1995774,-428,-180,1542,-1042,-572,-326,84,268,-86
19001,9953,0,2023-03-01T18:56:46.242411,1995781,-428,-180,1542,-1042,-572,-326,84,268,-86
19002,9954,0,2023-03-01T18:56:46.247359,1995786,-428,-180,1542,-1042,-572,-326,84,268,-86
19003,9955,0,2023-03-01T18:56:46.252238,1995791,-428,-180,1542,-1042,-572,-326,84,268,-86
19004,9956,0,2023-03-01T18:56:46.257391,1995796,-427,-177,1547,-1031,-568,-321,84,260,-88
19005,9957,0,2023-03-01T18:56:46.263983,1995803,-427,-177,1547,-1031,-568,-321,84,260,-88
19006,9958,0,2023-03-01T18:56:46.268787,1995807,-427,-177,1547,-1031,-568,-321,84,260,-88
19007,9959,0,2023-03-01T18:56:46.273831,1995812,-428,-177,1547,-1029,-572,-320,84,260,-88
19008,9960,0,2023-03-01T18:56:46.280088,1995819,-428,-177,1547,-1029,-572,-320,84,260,-88
19009,9961,0,2023-03-01T18:56:46.284829,1995824,-428,-177,1547,-1029,-572,-320,84,260,-88
19010,9962,0,2023-03-01T18:56:46.290434,1995829,-428,-177,1547,-1029,-572,-320,84,260,-88
19011,9963,0,2023-03-01T18:56:46.295767,1995834,-428,-178,1551,-1037,-578,-326,84,260,-88
19012,9964,0,2023-03-01T18:56:46.302818,1995841,-428,-178,1551,-1037,-578,-326,84,260,-88
19013,9965,0,2023-03-01T18:56:46.307517,1995846,-428,-178,1551,-1037,-578,-326,84,260,-88
19014,9966,0,2023-03-01T18:56:46.312426,1995851,-426,-179,1541,-1039,-575,-331,84,260,-88
19015,9967,0,2023-03-01T18:56:46.318515,1995856,-426,-179,1541,-1039,-575,-331,84,260,-88
19016,9968,0,2023-03-01T18:56:46.325204,1995864,-426,-179,1541,-1039,-575,-331,84,260,-88
19017,9969,0,2023-03-01T18:56:46.330741,1995869,-426,-179,1541,-1039,-575,-331,84,260,-88
19018,9970,0,2023-03-01T18:56:46.335653,1995875,-428,-179,1543,-1033,-570,-326,84,260,-88
19019,9971,0,2023-03-01T18:56:46.341929,1995881,-428,-179,1543,-1033,-570,-326,84,260,-88
19020,9972,0,2023-03-01T18:56:46.346458,1995885,-428,-179,1543,-1033,-570,-326,84,260,-88
19021,9973,0,2023-03-01T18:56:46.352198,1995890,-428,-179,1543,-1033,-570,-326,84,260,-88
19022,9974,0,2023-03-01T18:56:46.356915,1995895,-429,-176,1542,-1034,-574,-327,84,260,-88
19023,9975,0,2023-03-01T18:56:46.363035,1995901,-429,-176,1542,-1034,-574,-327,84,260,-88
19024,9976,0,2023-03-01T18:56:46.367690,1995907,-429,-176,1542,-1034,-574,-327,84,260,-88
19025,9977,0,2023-03-01T18:56:46.372402,1995911,-429,-176,1542,-1034,-574,-327,84,260,-88
19026,9978,0,2023-03-01T18:56:46.377263,1995916,-426,-176,1547,-1029,-565,-328,77,261,-95
19027,9979,0,2023-03-01T18:56:46.383612,1995922,-426,-176,1547,-1029,-565,-328,77,261,-95
19028,9980,0,2023-03-01T18:56:46.388469,1995927,-426,-176,1547,-1029,-565,-328,77,261,-95
19029,9981,0,2023-03-01T18:56:46.393946,1995933,-428,-178,1544,-1025,-571,-322,77,261,-95
19030,9982,0,2023-03-01T18:56:46.399491,1995938,-428,-178,1544,-1025,-571,-322,77,261,-95
19031,9983,0,2023-03-01T18:56:46.405092,1995943,-428,-178,1544,-1025,-571,-322,77,261,-95
19032,9984,0,2023-03-01T18:56:46.410280,1995949,-428,-178,1544,-1025,-571,-322,77,261,-95
19033,9985,0,2023-03-01T18:56:46.416565,1995955,-426,-177,1552,-1033,-569,-327,77,261,-95
19034,9986,0,2023-03-01T18:56:46.423603,1995962,-426,-177,1552,-1033,-569,-327,77,261,-95
19035,9987,0,2023-03-01T18:56:46.428670,1995967,-426,-177,1552,-1033,-569,-327,77,261,-95
19036,9988,0,2023-03-01T18:56:46.435084,1995974,-429,-176,1549,-1035,-576,-327,77,261,-95
19037,9989,0,2023-03-01T18:56:46.440071,1995978,-429,-176,1549,-1035,-576,-327,77,261,-95
19038,9990,0,2023-03-01T18:56:46.445396,1995983,-429,-176,1549,-1035,-576,-327,77,261,-95
19039,9991,0,2023-03-01T18:56:46.450236,1995990,-429,-176,1549,-1035,-576,-327,77,261,-95
19040,9992,0,2023-03-01T18:56:46.456185,1995995,-429,-175,1547,-1036,-565,-323,77,261,-95
19041,9993,0,2023-03-01T18:56:46.463235,1996002,-429,-175,1547,-1036,-565,-323,77,261,-95
19042,9994,0,2023-03-01T18:56:46.468931,1996007,-429,-175,1547,-1036,-565,-323,77,261,-95
19043,9995,0,2023-03-01T18:56:46.474022,1996013,-428,-174,1544,-1031,-565,-324,77,261,-95
19044,9996,0,2023-03-01T18:56:46.481305,1996019,-428,-174,1544,-1031,-565,-324,77,261,-95
19045,9997,0,2023-03-01T18:56:46.486208,1996025,-428,-174,1544,-1031,-565,-324,77,261,-95
19046,9998,0,2023-03-01T18:56:46.491782,1996030,-428,-174,1544,-1031,-565,-324,77,261,-95
19047,9999,0,2023-03-01T18:56:46.497680,1996036,-428,-174,1544,-1031,-565,-324,77,261,-95
19048,0,0,2023-03-01T18:56:46.514854,1996053,-428,-178,1542,-1027,-574,-330,75,265,-95
19049,1,0,2023-03-01T18:56:46.522205,1996061,-428,-178,1542,-1027,-574,-330,75,265,-95
19050,2,0,2023-03-01T18:56:46.527433,1996066,-428,-178,1542,-1027,-574,-330,75,265,-95
19051,3,0,2023-03-01T18:56:46.533718,1996072,-427,-179,1548,-1039,-571,-323,75,265,-95
19052,4,0,2023-03-01T18:56:46.540488,1996079,-427,-179,1548,-1039,-571,-323,75,265,-95
19053,5,0,2023-03-01T18:56:46.547163,1996086,-427,-179,1548,-1039,-571,-323,75,265,-95
19054,6,0,2023-03-01T18:56:46.552392,1996091,-427,-179,1548,-1039,-571,-323,75,265,-95
19055,7,0,2023-03-01T18:56:46.558121,1996096,-425,-180,1542,-1033,-573,-325,75,265,-95
19056,8,0,2023-03-01T18:56:46.564235,1996103,-425,-180,1542,-1033,-573,-325,75,265,-95
19057,9,0,2023-03-01T18:56:46.568967,1996108,-425,-180,1542,-1033,-573,-325,75,265,-95
19058,10,0,2023-03-01T18:56:46.574821,1996113,-426,-178,1547,-1038,-577,-330,75,265,-95
19059,11,0,2023-03-01T18:56:46.582355,1996121,-426,-178,1547,-1038,-577,-330,75,265,-95
19060,12,0,2023-03-01T18:56:46.588625,1996127,-426,-178,1547,-1038,-577,-330,75,265,-95
19061,13,0,2023-03-01T18:56:46.593670,1996132,-428,-180,1546,-1034,-579,-334,75,265,-95
19062,14,0,2023-03-01T18:56:46.599945,1996139,-428,-180,1546,-1034,-579,-334,75,265,-95
19063,15,0,2023-03-01T18:56:46.605047,1996143,-428,-180,1546,-1034,-579,-334,75,265,-95
19064,16,0,2023-03-01T18:56:46.610209,1996149,-428,-180,1546,-1034,-579,-334,75,265,-95
19065,17,0,2023-03-01T18:56:46.615046,1996153,-429,-178,1538,-1034,-579,-327,75,265,-95
19066,18,0,2023-03-01T18:56:46.621808,1996161,-429,-178,1538,-1034,-579,-327,75,265,-95
19067,19,0,2023-03-01T18:56:46.626736,1996166,-429,-178,1538,-1034,-579,-327,75,265,-95
19068,20,0,2023-03-01T18:56:46.632362,1996171,-429,-178,1538,-1034,-579,-327,75,265,-95
19069,21,0,2023-03-01T18:56:46.637723,1996176,-429,-178,1538,-1034,-579,-327,83,265,-93
19070,22,0,2023-03-01T18:56:46.643785,1996182,-429,-178,1538,-1034,-579,-327,83,265,-93
19071,23,0,2023-03-01T18:56:46.649107,1996187,-429,-178,1538,-1034,-579,-327,83,265,-93
19072,24,0,2023-03-01T18:56:46.655191,1996193,-428,-176,1549,-1037,-568,-326,83,265,-93
19073,25,0,2023-03-01T18:56:46.661996,1996200,-428,-176,1549,-1037,-568,-326,83,265,-93
19074,26,0,2023-03-01T18:56:46.666982,1996206,-428,-176,1549,-1037,-568,-326,83,265,-93
19075,27,0,2023-03-01T18:56:46.672047,1996211,-428,-176,1549,-1037,-568,-326,83,265,-93
19076,28,0,2023-03-01T18:56:46.676842,1996216,-426,-176,1546,-1035,-565,-325,83,265,-93
19077,29,0,2023-03-01T18:56:46.682775,1996222,-426,-176,1546,-1035,-565,-325,83,265,-93
19078,30,0,2023-03-01T18:56:46.687675,1996226,-426,-176,1546,-1035,-565,-325,83,265,-93
19079,31,0,2023-03-01T18:56:46.693258,1996232,-425,-177,1544,-1035,-569,-328,83,265,-93
19080,32,0,2023-03-01T18:56:46.698963,1996237,-425,-177,1544,-1035,-569,-328,83,265,-93
19081,33,0,2023-03-01T18:56:46.704567,1996243,-425,-177,1544,-1035,-569,-328,83,265,-93
19082,34,0,2023-03-01T18:56:46.709604,1996249,-425,-177,1544,-1035,-569,-328,83,265,-93
19083,35,0,2023-03-01T18:56:46.715189,1996254,-430,-176,1543,-1041,-569,-315,83,265,-93
19084,36,0,2023-03-01T18:56:46.721467,1996260,-430,-176,1543,-1041,-569,-315,83,265,-93
19085,37,0,2023-03-01T18:56:46.726854,1996266,-430,-176,1543,-1041,-569,-315,83,265,-93
19086,38,0,2023-03-01T18:56:46.733084,1996271,-430,-176,1543,-1041,-569,-315,83,265,-93
19087,39,0,2023-03-01T18:56:46.738523,1996277,-428,-176,1547,-1033,-565,-320,83,265,-93
19088,40,0,2023-03-01T18:56:46.745230,1996283,-428,-176,1547,-1033,-565,-320,83,265,-93
19089,41,0,2023-03-01T18:56:46.750101,1996289,-428,-176,1547,-1033,-565,-320,83,265,-93
19090,42,0,2023-03-01T18:56:46.755755,1996295,-428,-179,1545,-1034,-571,-321,83,265,-93
19091,43,0,2023-03-01T18:56:46.762383,1996301,-428,-179,1545,-1034,-571,-321,83,265,-93
19092,44,0,2023-03-01T18:56:46.767380,1996306,-428,-179,1545,-1034,-571,-321,83,265,-93
19093,45,0,2023-03-01T18:56:46.773437,1996312,-429,-175,1548,-1023,-577,-320,77,275,-95
19094,46,0,2023-03-01T18:56:46.779126,1996318,-429,-175,1548,-1023,-577,-320,77,275,-95
19095,47,0,2023-03-01T18:56:46.784650,1996323,-429,-175,1548,-1023,-577,-320,77,275,-95
19096,48,0,2023-03-01T18:56:46.789499,1996328,-429,-175,1548,-1023,-577,-320,77,275,-95
19097,49,0,2023-03-01T18:56:46.794174,1996333,-427,-175,1549,-1031,-580,-323,77,275,-95
19098,50,0,2023-03-01T18:56:46.800385,1996339,-427,-175,1549,-1031,-580,-323,77,275,-95
19099,51,0,2023-03-01T18:56:46.805364,1996344,-427,-175,1549,-1031,-580,-323,77,275,-95
19100,52,0,2023-03-01T18:56:46.810731,1996349,-427,-175,1549,-1031,-580,-323,77,275,-95
19101,53,0,2023-03-01T18:56:46.816888,1996355,-426,-177,1546,-1036,-578,-323,77,275,-95
19102,54,0,2023-03-01T18:56:46.822875,1996361,-426,-177,1546,-1036,-578,-323,77,275,-95
19103,55,0,2023-03-01T18:56:46.827741,1996366,-426,-177,1546,-1036,-578,-323,77,275,-95
19104,56,0,2023-03-01T18:56:46.832953,1996371,-426,-177,1546,-1036,-578,-323,77,275,-95
19105,57,0,2023-03-01T18:56:46.838854,1996378,-427,-178,1543,-1043,-568,-331,77,275,-95
19106,58,0,2023-03-01T18:56:46.845284,1996384,-427,-178,1543,-1043,-568,-331,77,275,-95
19107,59,0,2023-03-01T18:56:46.850251,1996389,-427,-178,1543,-1043,-568,-331,77,275,-95
19108,60,0,2023-03-01T18:56:46.855193,1996394,-423,-176,1539,-1045,-570,-333,77,275,-95
19109,61,0,2023-03-01T18:56:46.861459,1996400,-423,-176,1539,-1045,-570,-333,77,275,-95
19110,62,0,2023-03-01T18:56:46.868921,1996407,-423,-176,1539,-1045,-570,-333,77,275,-95
19111,63,0,2023-03-01T18:56:46.874982,1996413,-428,-179,1543,-1048,-569,-320,77,275,-95
19112,64,0,2023-03-01T18:56:46.881396,1996421,-428,-179,1543,-1048,-569,-320,77,275,-95
19113,65,0,2023-03-01T18:56:46.886604,1996426,-428,-179,1543,-1048,-569,-320,77,275,-95
19114,66,0,2023-03-01T18:56:46.891940,1996430,-428,-179,1543,-1048,-569,-320,77,275,-95
19115,67,0,2023-03-01T18:56:46.896928,1996435,-427,-179,1550,-1037,-578,-327,79,265,-93
19116,68,0,2023-03-01T18:56:46.903128,1996442,-427,-179,1550,-1037,-578,-327,79,265,-93
19117,69,0,2023-03-01T18:56:46.907558,1996446,-427,-179,1550,-1037,-578,-327,79,265,-93
19118,70,0,2023-03-01T18:56:46.912210,1996451,-427,-179,1550,-1037,-578,-327,79,265,-93
19119,71,0,2023-03-01T18:56:46.916757,1996455,-426,-177,1546,-1042,-573,-322,79,265,-93
19120,72,0,2023-03-01T18:56:46.923348,1996462,-426,-177,1546,-1042,-573,-322,79,265,-93
19121,73,0,2023-03-01T18:56:46.928205,1996467,-426,-177,1546,-1042,-573,-322,79,265,-93
19122,74,0,2023-03-01T18:56:46.933187,1996472,-426,-177,1546,-1042,-573,-322,79,265,-93
19123,75,0,2023-03-01T18:56:46.938047,1996477,-428,-177,1549,-1035,-576,-321,79,265,-93
19124,76,0,2023-03-01T18:56:46.943865,1996483,-428,-177,1549,-1035,-576,-321,79,265,-93
19125,77,0,2023-03-01T18:56:46.948802,1996487,-428,-177,1549,-1035,-576,-321,79,265,-93
19126,78,0,2023-03-01T18:56:46.954026,1996492,-426,-176,1544,-1036,-577,-320,79,265,-93
19127,79,0,2023-03-01T18:56:46.960274,1996499,-426,-176,1544,-1036,-577,-320,79,265,-93
19128,80,0,2023-03-01T18:56:46.964992,1996504,-426,-176,1544,-1036,-577,-320,79,265,-93
19129,81,0,2023-03-01T18:56:46.970423,1996509,-426,-176,1544,-1036,-577,-320,79,265,-93
19130,82,0,2023-03-01T18:56:46.977290,1996516,-428,-175,1545,-1027,-574,-317,79,265,-93
19131,83,0,2023-03-01T18:56:46.983800,1996523,-428,-175,1545,-1027,-574,-317,79,265,-93
19132,84,0,2023-03-01T18:56:46.989052,1996527,-428,-175,1545,-1027,-574,-317,79,265,-93
19133,85,0,2023-03-01T18:56:46.994079,1996533,-429,-178,1545,-1030,-575,-322,79,265,-93
19134,86,0,2023-03-01T18:56:47.000056,1996538,-429,-178,1545,-1030,-575,-322,79,265,-93
19135,87,0,2023-03-01T18:56:47.004748,1996544,-429,-178,1545,-1030,-575,-322,79,265,-93
19136,88,0,2023-03-01T18:56:47.009955,1996549,-429,-178,1545,-1030,-575,-322,79,265,-93
19137,89,0,2023-03-01T18:56:47.016364,1996555,-428,-176,1539,-1036,-570,-327,79,265,-93
19138,90,0,2023-03-01T18:56:47.022400,1996561,-428,-176,1539,-1036,-570,-327,79,265,-93
19139,91,0,2023-03-01T18:56:47.027213,1996566,-428,-176,1539,-1036,-570,-327,79,265,-93
19140,92,0,2023-03-01T18:56:47.033101,1996571,-428,-176,1539,-1036,-570,-327,79,265,-93
19141,93,0,2023-03-01T18:56:47.038353,1996577,-425,-175,1546,-1041,-566,-323,82,268,-100
19142,94,0,2023-03-01T18:56:47.044550,1996583,-425,-175,1546,-1041,-566,-323,82,268,-100
19143,95,0,2023-03-01T18:56:47.049403,1996589,-425,-175,1546,-1041,-566,-323,82,268,-100
19144,96,0,2023-03-01T18:56:47.054372,1996593,-426,-178,1548,-1039,-566,-323,82,268,-100
19145,97,0,2023-03-01T18:56:47.060365,1996599,-426,-178,1548,-1039,-566,-323,82,268,-100
19146,98,0,2023-03-01T18:56:47.065452,1996604,-426,-178,1548,-1039,-566,-323,82,268,-100
19147,99,0,2023-03-01T18:56:47.070625,1996609,-426,-178,1548,-1039,-566,-323,82,268,-100
19148,100,0,2023-03-01T18:56:47.076243,1996615,-426,-178,1548,-1039,-566,-323,82,268,-100
19149,101,0,2023-03-01T18:56:47.081954,1996620,-426,-178,1548,-1039,-566,-323,82,268,-100
19150,102,0,2023-03-01T18:56:47.087228,1996626,-426,-178,1548,-1039,-566,-323,82,268,-100
19151,103,0,2023-03-01T18:56:47.091955,1996631,-426,-178,1548,-1039,-566,-323,82,268,-100
19152,104,0,2023-03-01T18:56:47.096474,1996636,-426,-177,1540,-1042,-571,-319,82,268,-100
19153,105,0,2023-03-01T18:56:47.103031,1996642,-426,-177,1540,-1042,-571,-319,82,268,-100
19154,106,0,2023-03-01T18:56:47.107993,1996647,-426,-177,1540,-1042,-571,-319,82,268,-100
19155,107,0,2023-03-01T18:56:47.112965,1996652,-426,-177,1540,-1042,-571,-319,82,268,-100
19156,108,0,2023-03-01T18:56:47.118033,1996657,-432,-177,1546,-1044,-577,-321,82,268,-100
19157,109,0,2023-03-01T18:56:47.124619,1996663,-432,-177,1546,-1044,-577,-321,82,268,-100
19158,110,0,2023-03-01T18:56:47.129534,1996668,-432,-177,1546,-1044,-577,-321,82,268,-100
19159,111,0,2023-03-01T18:56:47.134541,1996674,-426,-178,1543,-1035,-574,-320,82,268,-100
19160,112,0,2023-03-01T18:56:47.140478,1996679,-426,-178,1543,-1035,-574,-320,82,268,-100
19161,113,0,2023-03-01T18:56:47.145624,1996685,-426,-178,1543,-1035,-574,-320,82,268,-100
19162,114,0,2023-03-01T18:56:47.150309,1996689,-426,-178,1543,-1035,-574,-320,82,268,-100
19163,115,0,2023-03-01T18:56:47.155667,1996694,-429,-177,1545,-1020,-573,-321,74,264,-84
19164,116,0,2023-03-01T18:56:47.162188,1996701,-429,-177,1545,-1020,-573,-321,74,264,-84
19165,117,0,2023-03-01T18:56:47.166727,1996705,-429,-177,1545,-1020,-573,-321,74,264,-84
19166,118,0,2023-03-01T18:56:47.171997,1996710,-429,-177,1545,-1020,-573,-321,74,264,-84
19167,119,0,2023-03-01T18:56:47.177160,1996716,-426,-180,1551,-1032,-575,-323,74,264,-84
19168,120,0,2023-03-01T18:56:47.183474,1996723,-426,-180,1551,-1032,-575,-323,74,264,-84
19169,121,0,2023-03-01T18:56:47.188971,1996727,-426,-180,1551,-1032,-575,-323,74,264,-84
19170,122,0,2023-03-01T18:56:47.195378,1996734,-428,-175,1548,-1026,-573,-324,74,264,-84
19171,123,0,2023-03-01T18:56:47.201146,1996740,-428,-175,1548,-1026,-573,-324,74,264,-84
19172,124,0,2023-03-01T18:56:47.206264,1996745,-428,-175,1548,-1026,-573,-324,74,264,-84
19173,125,0,2023-03-01T18:56:47.211390,1996750,-428,-175,1548,-1026,-573,-324,74,264,-84
19174,126,0,2023-03-01T18:56:47.216510,1996755,-426,-176,1538,-1034,-571,-316,74,264,-84
19175,127,0,2023-03-01T18:56:47.223198,1996762,-426,-176,1538,-1034,-571,-316,74,264,-84
19176,128,0,2023-03-01T18:56:47.228254,1996767,-426,-176,1538,-1034,-571,-316,74,264,-84
19177,129,0,2023-03-01T18:56:47.233797,1996773,-426,-178,1541,-1035,-569,-320,74,264,-84
19178,130,0,2023-03-01T18:56:47.239855,1996779,-426,-178,1541,-1035,-569,-320,74,264,-84
19179,131,0,2023-03-01T18:56:47.245146,1996784,-426,-178,1541,-1035,-569,-320,74,264,-84
19180,132,0,2023-03-01T18:56:47.250243,1996789,-426,-178,1541,-1035,-569,-320,74,264,-84
19181,133,0,2023-03-01T18:56:47.255629,1996794,-426,-181,1542,-1041,-578,-327,74,264,-84
19182,134,0,2023-03-01T18:56:47.261211,1996800,-426,-181,1542,-1041,-578,-327,74,264,-84
19183,135,0,2023-03-01T18:56:47.266597,1996806,-426,-181,1542,-1041,-578,-327,74,264,-84
19184,136,0,2023-03-01T18:56:47.272161,1996811,-426,-181,1542,-1041,-578,-327,74,264,-84
19185,137,0,2023-03-01T18:56:47.277701,1996817,-426,-178,1548,-1029,-578,-321,73,261,-97
