,Unnamed: 0,imu,server_time,arduino_time,ax,ay,az,gx,gy,gz,mx,my,mz
21432,2384,0,2023-03-01T18:56:59.800255,2009339,812,1490,1063,-1038,-572,-328,-38,210,-190
21433,2385,0,2023-03-01T18:56:59.806255,2009346,812,1490,1063,-1038,-572,-328,-38,210,-190
21434,2386,0,2023-03-01T18:56:59.811230,2009351,809,1490,1055,-1037,-576,-320,-38,210,-190
21435,2387,0,2023-03-01T18:56:59.816545,2009356,809,1490,1055,-1037,-576,-320,-38,210,-190
21436,2388,0,2023-03-01T18:56:59.821708,2009361,809,1490,1055,-1037,-576,-320,-38,210,-190
21437,2389,0,2023-03-01T18:56:59.828205,2009368,809,1490,1055,-1037,-576,-320,-38,210,-190
21438,2390,0,2023-03-01T18:56:59.833212,2009373,812,1489,1054,-1038,-570,-325,-38,210,-190
21439,2391,0,2023-03-01T18:56:59.838901,2009378,812,1489,1054,-1038,-570,-325,-38,210,-190
21440,2392,0,2023-03-01T18:56:59.843631,2009383,812,1489,1054,-1038,-570,-325,-38,210,-190
21441,2393,0,2023-03-01T18:56:59.849596,2009389,812,1489,1054,-1038,-570,-325,-38,210,-190
21442,2394,0,2023-03-01T18:56:59.854726,2009394,816,1487,1052,-1046,-574,-322,-38,210,-190
21443,2395,0,2023-03-01T18:56:59.860888,2009400,816,1487,1052,-1046,-574,-322,-38,210,-190
21444,2396,0,2023-03-01T18:56:59.866568,2009406,816,1487,1052,-1046,-574,-322,-38,210,-190
21445,2397,0,2023-03-01T18:56:59.872241,2009411,811,1489,1058,-1043,-573,-326,-38,210,-190
21446,2398,0,2023-03-01T18:56:59.877967,2009417,811,1489,1058,-1043,-573,-326,-38,210,-190
21447,2399,0,2023-03-01T18:56:59.885680,2009425,811,1489,1058,-1043,-573,-326,-38,210,-190
21448,2400,0,2023-03-01T18:56:59.890707,2009431,810,1492,1057,-1031,-578,-325,-31,203,-181
21449,2401,0,2023-03-01T18:56:59.896108,2009436,810,1492,1057,-1031,-578,-325,-31,203,-181
21450,2402,0,2023-03-01T18:56:59.900902,2009441,810,1492,1057,-1031,-578,-325,-31,203,-181
21451,2403,0,2023-03-01T18:56:59.906739,2009446,810,1492,1057,-1031,-578,-325,-31,203,-181
21452,2404,0,2023-03-01T18:56:59.912115,2009452,813,1489,1051,-1039,-570,-328,-31,203,-181
21453,2405,0,2023-03-01T18:56:59.917293,2009457,813,1489,1051,-1039,-570,-328,-31,203,-181
21454,2406,0,2023-03-01T18:56:59.922178,2009461,813,1489,1051,-1039,-570,-328,-31,203,-181
21455,2407,0,2023-03-01T18:56:59.928197,2009467,813,1489,1051,-1039,-570,-328,-31,203,-181
21456,2408,0,2023-03-01T18:56:59.933161,2009473,813,1490,1056,-1040,-571,-319,-31,203,-181
21457,2409,0,2023-03-01T18:56:59.939187,2009479,813,1490,1056,-1040,-571,-319,-31,203,-181
21458,2410,0,2023-03-01T18:56:59.945237,2009485,813,1490,1056,-1040,-571,-319,-31,203,-181
21459,2411,0,2023-03-01T18:56:59.950130,2009490,813,1489,1052,-1036,-574,-323,-31,203,-181
21460,2412,0,2023-03-01T18:56:59.955677,2009495,813,1489,1052,-1036,-574,-323,-31,203,-181
21461,2413,0,2023-03-01T18:56:59.960854,2009500,813,1489,1052,-1036,-574,-323,-31,203,-181
21462,2414,0,2023-03-01T18:56:59.967059,2009506,813,1489,1052,-1036,-574,-323,-31,203,-181
21463,2415,0,2023-03-01T18:56:59.972398,2009511,813,1489,1052,-1036,-574,-323,-31,203,-181
21464,2416,0,2023-03-01T18:56:59.978091,2009518,813,1489,1052,-1036,-574,-323,-31,203,-181
21465,2417,0,2023-03-01T18:56:59.984121,2009524,813,1489,1052,-1036,-574,-323,-31,203,-181
21466,2418,0,2023-03-01T18:56:59.989294,2009529,813,1489,1052,-1036,-574,-323,-31,203,-181
21467,2419,0,2023-03-01T18:56:59.996212,2009535,815,1486,1058,-1043,-577,-320,-31,203,-181
21468,2420,0,2023-03-01T18:57:00.001657,2009541,815,1486,1058,-1043,-577,-320,-31,203,-181
21469,2421,0,2023-03-01T18:57:00.007618,2009547,815,1486,1058,-1043,-577,-320,-31,203,-181
21470,2422,0,2023-03-01T18:57:00.012459,2009552,819,1490,1051,-1036,-565,-314,-33,203,-191
21471,2423,0,2023-03-01T18:57:00.018303,2009558,819,1490,1051,-1036,-565,-314,-33,203,-191
21472,2424,0,2023-03-01T18:57:00.024446,2009564,819,1490,1051,-1036,-565,-314,-33,203,-191
21473,2425,0,2023-03-01T18:57:00.029588,2009569,819,1490,1051,-1036,-565,-314,-33,203,-191
21474,2426,0,2023-03-01T18:57:00.034215,2009574,815,1490,1061,-1025,-575,-321,-33,203,-191
21475,2427,0,2023-03-01T18:57:00.039459,2009579,815,1490,1061,-1025,-575,-321,-33,203,-191
21476,2428,0,2023-03-01T18:57:00.045866,2009585,815,1490,1061,-1025,-575,-321,-33,203,-191
21477,2429,0,2023-03-01T18:57:00.050845,2009590,813,1489,1051,-1027,-569,-319,-33,203,-191
21478,2430,0,2023-03-01T18:57:00.056237,2009595,813,1489,1051,-1027,-569,-319,-33,203,-191
21479,2431,0,2023-03-01T18:57:00.060683,2009601,813,1489,1051,-1027,-569,-319,-33,203,-191
21480,2432,0,2023-03-01T18:57:00.066370,2009606,813,1489,1051,-1027,-569,-319,-33,203,-191
21481,2433,0,2023-03-01T18:57:00.070943,2009611,811,1491,1056,-1027,-565,-326,-33,203,-191
21482,2434,0,2023-03-01T18:57:00.076252,2009616,811,1491,1056,-1027,-565,-326,-33,203,-191
21483,2435,0,2023-03-01T18:57:00.081493,2009621,811,1491,1056,-1027,-565,-326,-33,203,-191
21484,2436,0,2023-03-01T18:57:00.087219,2009627,811,1491,1056,-1027,-565,-326,-33,203,-191
21485,2437,0,2023-03-01T18:57:00.092993,2009631,813,1488,1052,-1028,-572,-313,-33,203,-191
21486,2438,0,2023-03-01T18:57:00.098582,2009638,813,1488,1052,-1028,-572,-313,-33,203,-191
21487,2439,0,2023-03-01T18:57:00.106274,2009646,813,1488,1052,-1028,-572,-313,-33,203,-191
21488,2440,0,2023-03-01T18:57:00.111355,2009651,812,1488,1050,-1043,-576,-322,-33,203,-191
21489,2441,0,2023-03-01T18:57:00.116726,2009656,812,1488,1050,-1043,-576,-322,-33,203,-191
21490,2442,0,2023-03-01T18:57:00.121863,2009661,812,1488,1050,-1043,-576,-322,-33,203,-191
21491,2443,0,2023-03-01T18:57:00.128005,2009667,812,1488,1050,-1043,-576,-322,-33,203,-191
21492,2444,0,2023-03-01T18:57:00.132874,2009672,814,1489,1054,-1033,-577,-316,-33,203,-191
21493,2445,0,2023-03-01T18:57:00.138262,2009677,814,1489,1054,-1033,-577,-316,-33,203,-191
21494,2446,0,2023-03-01T18:57:00.144435,2009683,814,1489,1054,-1033,-577,-316,-33,203,-191
21495,2447,0,2023-03-01T18:57:00.149620,2009689,814,1489,1054,-1033,-577,-316,-33,203,-191
21496,2448,0,2023-03-01T18:57:00.154351,2009694,812,1488,1051,-1044,-576,-320,-37,199,-189
21497,2449,0,2023-03-01T18:57:00.160170,2009700,812,1488,1051,-1044,-576,-320,-37,199,-189
21498,2450,0,2023-03-01T18:57:00.166109,2009705,812,1488,1051,-1044,-576,-320,-37,199,-189
21499,2451,0,2023-03-01T18:57:00.171163,2009711,813,1492,1055,-1044,-571,-318,-37,199,-189
21500,2452,0,2023-03-01T18:57:00.176522,2009716,813,1492,1055,-1044,-571,-318,-37,199,-189
21501,2453,0,2023-03-01T18:57:00.181644,2009721,813,1492,1055,-1044,-571,-318,-37,199,-189
21502,2454,0,2023-03-01T18:57:00.188058,2009728,813,1492,1055,-1044,-571,-318,-37,199,-189
21503,2455,0,2023-03-01T18:57:00.192873,2009733,809,1491,1059,-1041,-565,-322,-37,199,-189
21504,2456,0,2023-03-01T18:57:00.198714,2009738,809,1491,1059,-1041,-565,-322,-37,199,-189
21505,2457,0,2023-03-01T18:57:00.204480,2009744,809,1491,1059,-1041,-565,-322,-37,199,-189
21506,2458,0,2023-03-01T18:57:00.209596,2009749,809,1491,1059,-1041,-565,-322,-37,199,-189
21507,2459,0,2023-03-01T18:57:00.215075,2009754,809,1490,1049,-1041,-577,-323,-37,199,-189
21508,2460,0,2023-03-01T18:57:00.221179,2009760,809,1490,1049,-1041,-577,-323,-37,199,-189
21509,2461,0,2023-03-01T18:57:00.226335,2009765,809,1490,1049,-1041,-577,-323,-37,199,-189
21510,2462,0,2023-03-01T18:57:00.231322,2009771,813,1491,1052,-1042,-575,-318,-37,199,-189
21511,2463,0,2023-03-01T18:57:00.236862,2009777,813,1491,1052,-1042,-575,-318,-37,199,-189
21512,2464,0,2023-03-01T18:57:00.242200,2009782,813,1491,1052,-1042,-575,-318,-37,199,-189
21513,2465,0,2023-03-01T18:57:00.248451,2009788,813,1491,1052,-1042,-575,-318,-37,199,-189
21514,2466,0,2023-03-01T18:57:00.253028,2009793,814,1491,1055,-1038,-575,-323,-37,199,-189
21515,2467,0,2023-03-01T18:57:00.258594,2009798,814,1491,1055,-1038,-575,-323,-37,199,-189
21516,2468,0,2023-03-01T18:57:00.264482,2009804,814,1491,1055,-1038,-575,-323,-37,199,-189
21517,2469,0,2023-03-01T18:57:00.269447,2009809,814,1491,1055,-1038,-575,-323,-37,199,-189
21518,2470,0,2023-03-01T18:57:00.274752,2009814,812,1490,1061,-1039,-568,-328,-34,212,-190
21519,2471,0,2023-03-01T18:57:00.280504,2009821,812,1490,1061,-1039,-568,-328,-34,212,-190
21520,2472,0,2023-03-01T18:57:00.286362,2009826,812,1490,1061,-1039,-568,-328,-34,212,-190
21521,2473,0,2023-03-01T18:57:00.291640,2009831,814,1490,1058,-1037,-575,-325,-34,212,-190
21522,2474,0,2023-03-01T18:57:00.297866,2009837,814,1490,1058,-1037,-575,-325,-34,212,-190
21523,2475,0,2023-03-01T18:57:00.302394,2009842,814,1490,1058,-1037,-575,-325,-34,212,-190
21524,2476,0,2023-03-01T18:57:00.307660,2009847,814,1490,1058,-1037,-575,-325,-34,212,-190
21525,2477,0,2023-03-01T18:57:00.312639,2009852,813,1492,1059,-1038,-571,-322,-34,212,-190
21526,2478,0,2023-03-01T18:57:00.318742,2009858,813,1492,1059,-1038,-571,-322,-34,212,-190
21527,2479,0,2023-03-01T18:57:00.325124,2009865,813,1492,1059,-1038,-571,-322,-34,212,-190
21528,2480,0,2023-03-01T18:57:00.330669,2009870,812,1490,1048,-1042,-570,-315,-34,212,-190
21529,2481,0,2023-03-01T18:57:00.335890,2009875,812,1490,1048,-1042,-570,-315,-34,212,-190
21530,2482,0,2023-03-01T18:57:00.341658,2009881,812,1490,1048,-1042,-570,-315,-34,212,-190
21531,2483,0,2023-03-01T18:57:00.348143,2009887,812,1490,1048,-1042,-570,-315,-34,212,-190
21532,2484,0,2023-03-01T18:57:00.353737,2009893,813,1491,1055,-1037,-573,-317,-34,212,-190
21533,2485,0,2023-03-01T18:57:00.359433,2009899,813,1491,1055,-1037,-573,-317,-34,212,-190
21534,2486,0,2023-03-01T18:57:00.365868,2009906,813,1491,1055,-1037,-573,-317,-34,212,-190
21535,2487,0,2023-03-01T18:57:00.370764,2009911,811,1490,1054,-1031,-566,-316,-34,212,-190
21536,2488,0,2023-03-01T18:57:00.376792,2009916,811,1490,1054,-1031,-566,-316,-34,212,-190
21537,2489,0,2023-03-01T18:57:00.382051,2009921,811,1490,1054,-1031,-566,-316,-34,212,-190
21538,2490,0,2023-03-01T18:57:00.388330,2009928,811,1490,1054,-1031,-566,-316,-34,212,-190
21539,2491,0,2023-03-01T18:57:00.393087,2009932,812,1490,1055,-1036,-570,-320,-34,212,-190
21540,2492,0,2023-03-01T18:57:00.398196,2009937,812,1490,1055,-1036,-570,-320,-34,212,-190
21541,2493,0,2023-03-01T18:57:00.404413,2009944,812,1490,1055,-1036,-570,-320,-34,212,-190
21542,2494,0,2023-03-01T18:57:00.409705,2009949,812,1490,1055,-1036,-570,-320,-34,212,-190
21543,2495,0,2023-03-01T18:57:00.415188,2009955,810,1489,1061,-1040,-575,-321,-37,209,-189
21544,2496,0,2023-03-01T18:57:00.420561,2009960,810,1489,1061,-1040,-575,-321,-37,209,-189
21545,2497,0,2023-03-01T18:57:00.426434,2009966,810,1489,1061,-1040,-575,-321,-37,209,-189
21546,2498,0,2023-03-01T18:57:00.431141,2009970,814,1490,1054,-1038,-571,-324,-37,209,-189
21547,2499,0,2023-03-01T18:57:00.438186,2009977,814,1490,1054,-1038,-571,-324,-37,209,-189
21548,2500,0,2023-03-01T18:57:00.443749,2009984,814,1490,1054,-1038,-571,-324,-37,209,-189
21549,2501,0,2023-03-01T18:57:00.448464,2009988,814,1490,1054,-1038,-571,-324,-37,209,-189
21550,2502,0,2023-03-01T18:57:00.453742,2009993,816,1490,1054,-1030,-565,-319,-37,209,-189
21551,2503,0,2023-03-01T18:57:00.459685,2009999,816,1490,1054,-1030,-565,-319,-37,209,-189
21552,2504,0,2023-03-01T18:57:00.466421,2010006,816,1490,1054,-1030,-565,-319,-37,209,-189
21553,2505,0,2023-03-01T18:57:00.471427,2010011,809,1487,1059,-1032,-572,-322,-37,209,-189
21554,2506,0,2023-03-01T18:57:00.476949,2010016,809,1487,1059,-1032,-572,-322,-37,209,-189
21555,2507,0,2023-03-01T18:57:00.481907,2010021,809,1487,1059,-1032,-572,-322,-37,209,-189
21556,2508,0,2023-03-01T18:57:00.487919,2010028,809,1487,1059,-1032,-572,-322,-37,209,-189
21557,2509,0,2023-03-01T18:57:00.493056,2010033,812,1490,1053,-1037,-575,-320,-37,209,-189
21558,2510,0,2023-03-01T18:57:00.498760,2010038,812,1490,1053,-1037,-575,-320,-37,209,-189
21559,2511,0,2023-03-01T18:57:00.504731,2010045,812,1490,1053,-1037,-575,-320,-37,209,-189
21560,2512,0,2023-03-01T18:57:00.509719,2010049,812,1490,1053,-1037,-575,-320,-37,209,-189
21561,2513,0,2023-03-01T18:57:00.514751,2010054,815,1488,1056,-1035,-568,-326,-37,209,-189
21562,2514,0,2023-03-01T18:57:00.520487,2010060,815,1488,1056,-1035,-568,-326,-37,209,-189
21563,2515,0,2023-03-01T18:57:00.526808,2010066,815,1488,1056,-1035,-568,-326,-37,209,-189
21564,2516,0,2023-03-01T18:57:00.531481,2010071,813,1489,1059,-1035,-573,-324,-36,200,-186
21565,2517,0,2023-03-01T18:57:00.536791,2010077,813,1489,1059,-1035,-573,-324,-36,200,-186
21566,2518,0,2023-03-01T18:57:00.541725,2010081,813,1489,1059,-1035,-573,-324,-36,200,-186
21567,2519,0,2023-03-01T18:57:00.548140,2010087,813,1489,1059,-1035,-573,-324,-36,200,-186
21568,2520,0,2023-03-01T18:57:00.553329,2010093,811,1488,1057,-1034,-575,-324,-36,200,-186
21569,2521,0,2023-03-01T18:57:00.558702,2010098,811,1488,1057,-1034,-575,-324,-36,200,-186
21570,2522,0,2023-03-01T18:57:00.564669,2010104,811,1488,1057,-1034,-575,-324,-36,200,-186
21571,2523,0,2023-03-01T18:57:00.569660,2010109,811,1488,1057,-1034,-575,-324,-36,200,-186
21572,2524,0,2023-03-01T18:57:00.574883,2010115,813,1488,1059,-1033,-577,-320,-36,200,-186
21573,2525,0,2023-03-01T18:57:00.580381,2010120,813,1488,1059,-1033,-577,-320,-36,200,-186
21574,2526,0,2023-03-01T18:57:00.586505,2010126,813,1488,1059,-1033,-577,-320,-36,200,-186
21575,2527,0,2023-03-01T18:57:00.591659,2010131,812,1488,1053,-1030,-577,-313,-36,200,-186
21576,2528,0,2023-03-01T18:57:00.597586,2010137,812,1488,1053,-1030,-577,-313,-36,200,-186
21577,2529,0,2023-03-01T18:57:00.602367,2010142,812,1488,1053,-1030,-577,-313,-36,200,-186
21578,2530,0,2023-03-01T18:57:00.608565,2010147,812,1488,1053,-1030,-577,-313,-36,200,-186
21579,2531,0,2023-03-01T18:57:00.613012,2010152,810,1487,1059,-1038,-583,-317,-36,200,-186
21580,2532,0,2023-03-01T18:57:00.618758,2010159,810,1487,1059,-1038,-583,-317,-36,200,-186
21581,2533,0,2023-03-01T18:57:00.625011,2010165,810,1487,1059,-1038,-583,-317,-36,200,-186
21582,2534,0,2023-03-01T18:57:00.630056,2010170,810,1487,1059,-1038,-583,-317,-36,200,-186
21583,2535,0,2023-03-01T18:57:00.635111,2010174,811,1488,1054,-1038,-575,-322,-36,200,-186
21584,2536,0,2023-03-01T18:57:00.640790,2010180,811,1488,1054,-1038,-575,-322,-36,200,-186
21585,2537,0,2023-03-01T18:57:00.647339,2010186,811,1488,1054,-1038,-575,-322,-36,200,-186
21586,2538,0,2023-03-01T18:57:00.652387,2010191,811,1490,1057,-1034,-582,-318,-35,209,-197
21587,2539,0,2023-03-01T18:57:00.658313,2010198,811,1490,1057,-1034,-582,-318,-35,209,-197
21588,2540,0,2023-03-01T18:57:00.663569,2010203,811,1490,1057,-1034,-582,-318,-35,209,-197
21589,2541,0,2023-03-01T18:57:00.668535,2010208,811,1490,1057,-1034,-582,-318,-35,209,-197
21590,2542,0,2023-03-01T18:57:00.673397,2010213,811,1491,1058,-1034,-575,-324,-35,209,-197
21591,2543,0,2023-03-01T18:57:00.679495,2010219,811,1491,1058,-1034,-575,-324,-35,209,-197
21592,2544,0,2023-03-01T18:57:00.684624,2010224,811,1491,1058,-1034,-575,-324,-35,209,-197
21593,2545,0,2023-03-01T18:57:00.689539,2010229,811,1491,1058,-1034,-575,-324,-35,209,-197
21594,2546,0,2023-03-01T18:57:00.694619,2010234,811,1486,1055,-1034,-572,-324,-35,209,-197
21595,2547,0,2023-03-01T18:57:00.700179,2010240,811,1486,1055,-1034,-572,-324,-35,209,-197
21596,2548,0,2023-03-01T18:57:00.706285,2010246,811,1486,1055,-1034,-572,-324,-35,209,-197
21597,2549,0,2023-03-01T18:57:00.711467,2010251,814,1492,1059,-1039,-575,-326,-35,209,-197
21598,2550,0,2023-03-01T18:57:00.717671,2010257,814,1492,1059,-1039,-575,-326,-35,209,-197
21599,2551,0,2023-03-01T18:57:00.722871,2010262,814,1492,1059,-1039,-575,-326,-35,209,-197
21600,2552,0,2023-03-01T18:57:00.728920,2010268,814,1492,1059,-1039,-575,-326,-35,209,-197
21601,2553,0,2023-03-01T18:57:00.734097,2010273,817,1487,1057,-1035,-569,-324,-35,209,-197
21602,2554,0,2023-03-01T18:57:00.740952,2010280,817,1487,1057,-1035,-569,-324,-35,209,-197
21603,2555,0,2023-03-01T18:57:00.747384,2010287,817,1487,1057,-1035,-569,-324,-35,209,-197
21604,2556,0,2023-03-01T18:57:00.752457,2010292,809,1488,1056,-1040,-575,-326,-35,209,-197
21605,2557,0,2023-03-01T18:57:00.759014,2010298,809,1488,1056,-1040,-575,-326,-35,209,-197
21606,2558,0,2023-03-01T18:57:00.766178,2010306,809,1488,1056,-1040,-575,-326,-35,209,-197
21607,2559,0,2023-03-01T18:57:00.770970,2010310,814,1493,1056,-1038,-572,-324,-35,209,-197
21608,2560,0,2023-03-01T18:57:00.776963,2010316,814,1493,1056,-1038,-572,-324,-35,209,-197
21609,2561,0,2023-03-01T18:57:00.782059,2010321,814,1493,1056,-1038,-572,-324,-35,209,-197
21610,2562,0,2023-03-01T18:57:00.787904,2010328,814,1493,1056,-1038,-572,-324,-35,209,-197
21611,2563,0,2023-03-01T18:57:00.793131,2010333,812,1490,1051,-1044,-576,-320,-39,201,-183
21612,2564,0,2023-03-01T18:57:00.798834,2010339,812,1490,1051,-1044,-576,-320,-39,201,-183
21613,2565,0,2023-03-01T18:57:00.805040,2010345,812,1490,1051,-1044,-576,-320,-39,201,-183
21614,2566,0,2023-03-01T18:57:00.809901,2010349,812,1490,1051,-1044,-576,-320,-39,201,-183
21615,2567,0,2023-03-01T18:57:00.814915,2010354,814,1492,1059,-1041,-578,-327,-39,201,-183
21616,2568,0,2023-03-01T18:57:00.820273,2010360,814,1492,1059,-1041,-578,-327,-39,201,-183
21617,2569,0,2023-03-01T18:57:00.826603,2010366,814,1492,1059,-1041,-578,-327,-39,201,-183
21618,2570,0,2023-03-01T18:57:00.832295,2010372,813,1492,1057,-1041,-570,-326,-39,201,-183
21619,2571,0,2023-03-01T18:57:00.837327,2010377,813,1492,1057,-1041,-570,-326,-39,201,-183
21620,2572,0,2023-03-01T18:57:00.842494,2010382,813,1492,1057,-1041,-570,-326,-39,201,-183
21621,2573,0,2023-03-01T18:57:00.848296,2010388,813,1492,1057,-1041,-570,-326,-39,201,-183
21622,2574,0,2023-03-01T18:57:00.853123,2010393,812,1492,1055,-1049,-584,-323,-39,201,-183
21623,2575,0,2023-03-01T18:57:00.858401,2010398,812,1492,1055,-1049,-584,-323,-39,201,-183
21624,2576,0,2023-03-01T18:57:00.863776,2010403,812,1492,1055,-1049,-584,-323,-39,201,-183
21625,2577,0,2023-03-01T18:57:00.869271,2010408,812,1492,1055,-1049,-584,-323,-39,201,-183
21626,2578,0,2023-03-01T18:57:00.875028,2010415,810,1491,1050,-1038,-572,-322,-39,201,-183
21627,2579,0,2023-03-01T18:57:00.880568,2010420,810,1491,1050,-1038,-572,-322,-39,201,-183
21628,2580,0,2023-03-01T18:57:00.887066,2010427,810,1491,1050,-1038,-572,-322,-39,201,-183
21629,2581,0,2023-03-01T18:57:00.892046,2010432,813,1489,1053,-1035,-572,-315,-39,201,-183
21630,2582,0,2023-03-01T18:57:00.897502,2010437,813,1489,1053,-1035,-572,-315,-39,201,-183
21631,2583,0,2023-03-01T18:57:00.902584,2010442,813,1489,1053,-1035,-572,-315,-39,201,-183
21632,2584,0,2023-03-01T18:57:00.908207,2010447,813,1489,1053,-1035,-572,-315,-39,201,-183
21633,2585,0,2023-03-01T18:57:00.913201,2010452,812,1490,1059,-1039,-570,-327,-40,204,-186
21634,2586,0,2023-03-01T18:57:00.918484,2010459,812,1490,1059,-1039,-570,-327,-40,204,-186
21635,2587,0,2023-03-01T18:57:00.924327,2010464,812,1490,1059,-1039,-570,-327,-40,204,-186
21636,2588,0,2023-03-01T18:57:00.929414,2010469,812,1490,1059,-1039,-570,-327,-40,204,-186
21637,2589,0,2023-03-01T18:57:00.934714,2010474,814,1488,1056,-1036,-572,-318,-40,204,-186
21638,2590,0,2023-03-01T18:57:00.940768,2010480,814,1488,1056,-1036,-572,-318,-40,204,-186
21639,2591,0,2023-03-01T18:57:00.946492,2010486,814,1488,1056,-1036,-572,-318,-40,204,-186
21640,2592,0,2023-03-01T18:57:00.950933,2010490,811,1491,1056,-1038,-568,-324,-40,204,-186
21641,2593,0,2023-03-01T18:57:00.956586,2010497,811,1491,1056,-1038,-568,-324,-40,204,-186
21642,2594,0,2023-03-01T18:57:00.961712,2010501,811,1491,1056,-1038,-568,-324,-40,204,-186
21643,2595,0,2023-03-01T18:57:00.967274,2010507,811,1491,1056,-1038,-568,-324,-40,204,-186
21644,2596,0,2023-03-01T18:57:00.971955,2010512,816,1488,1063,-1040,-579,-319,-40,204,-186
21645,2597,0,2023-03-01T18:57:00.977747,2010517,816,1488,1063,-1040,-579,-319,-40,204,-186
21646,2598,0,2023-03-01T18:57:00.982415,2010522,816,1488,1063,-1040,-579,-319,-40,204,-186
21647,2599,0,2023-03-01T18:57:00.987611,2010527,816,1488,1063,-1040,-579,-319,-40,204,-186
21648,2600,0,2023-03-01T18:57:00.992673,2010532,815,1490,1054,-1036,-579,-320,-40,204,-186
21649,2601,0,2023-03-01T18:57:00.998421,2010539,815,1490,1054,-1036,-579,-320,-40,204,-186
21650,2602,0,2023-03-01T18:57:01.003962,2010544,815,1490,1054,-1036,-579,-320,-40,204,-186
21651,2603,0,2023-03-01T18:57:01.008838,2010549,815,1490,1054,-1036,-579,-320,-40,204,-186
21652,2604,0,2023-03-01T18:57:01.013490,2010553,814,1489,1052,-1035,-576,-325,-40,204,-186
21653,2605,0,2023-03-01T18:57:01.017811,2010558,814,1489,1052,-1035,-576,-325,-40,204,-186
21654,2606,0,2023-03-01T18:57:01.023385,2010563,814,1489,1052,-1035,-576,-325,-40,204,-186
21655,2607,0,2023-03-01T18:57:01.029337,2010568,814,1489,1052,-1035,-576,-325,-40,204,-186
21656,2608,0,2023-03-01T18:57:01.034240,2010574,812,1490,1054,-1038,-577,-323,-40,204,-186
21657,2609,0,2023-03-01T18:57:01.039960,2010579,812,1490,1054,-1038,-577,-323,-40,204,-186
21658,2610,0,2023-03-01T18:57:01.046011,2010586,812,1490,1054,-1038,-577,-323,-40,204,-186
21659,2611,0,2023-03-01T18:57:01.050985,2010591,810,1487,1058,-1041,-579,-314,-40,204,-186
21660,2612,0,2023-03-01T18:57:01.056806,2010596,810,1487,1058,-1041,-579,-314,-33,205,-191
21661,2613,0,2023-03-01T18:57:01.061655,2010601,810,1487,1058,-1041,-579,-314,-33,205,-191
21662,2614,0,2023-03-01T18:57:01.067744,2010607,810,1487,1058,-1041,-579,-314,-33,205,-191
21663,2615,0,2023-03-01T18:57:01.072964,2010612,812,1488,1059,-1040,-581,-328,-33,205,-191
21664,2616,0,2023-03-01T18:57:01.078129,2010617,812,1488,1059,-1040,-581,-328,-33,205,-191
21665,2617,0,2023-03-01T18:57:01.083526,2010624,812,1488,1059,-1040,-581,-328,-33,205,-191
21666,2618,0,2023-03-01T18:57:01.089591,2010629,812,1488,1059,-1040,-581,-328,-33,205,-191
21667,2619,0,2023-03-01T18:57:01.094699,2010635,813,1488,1053,-1045,-575,-317,-33,205,-191
21668,2620,0,2023-03-01T18:57:01.099727,2010639,813,1488,1053,-1045,-575,-317,-33,205,-191
21669,2621,0,2023-03-01T18:57:01.105461,2010645,813,1488,1053,-1045,-575,-317,-33,205,-191
21670,2622,0,2023-03-01T18:57:01.110194,2010650,813,1488,1053,-1045,-575,-317,-33,205,-191
21671,2623,0,2023-03-01T18:57:01.115084,2010654,811,1486,1054,-1041,-569,-320,-33,205,-191
21672,2624,0,2023-03-01T18:57:01.120257,2010660,811,1486,1054,-1041,-569,-320,-33,205,-191
21673,2625,0,2023-03-01T18:57:01.125449,2010664,811,1486,1054,-1041,-569,-320,-33,205,-191
21674,2626,0,2023-03-01T18:57:01.130594,2010670,811,1486,1054,-1041,-569,-320,-33,205,-191
21675,2627,0,2023-03-01T18:57:01.135285,2010675,811,1489,1054,-1036,-564,-320,-33,205,-191
21676,2628,0,2023-03-01T18:57:01.140714,2010681,811,1489,1054,-1036,-564,-320,-33,205,-191
21677,2629,0,2023-03-01T18:57:01.146769,2010686,811,1489,1054,-1036,-564,-320,-33,205,-191
21678,2630,0,2023-03-01T18:57:01.151762,2010691,814,1489,1055,-1034,-573,-326,-33,205,-191
21679,2631,0,2023-03-01T18:57:01.157450,2010697,814,1489,1055,-1034,-573,-326,-33,205,-191
21680,2632,0,2023-03-01T18:57:01.162470,2010702,814,1489,1055,-1034,-573,-326,-33,205,-191
21681,2633,0,2023-03-01T18:57:01.168348,2010707,814,1489,1055,-1034,-573,-326,-33,205,-191
21682,2634,0,2023-03-01T18:57:01.173645,2010714,811,1490,1056,-1031,-573,-324,-33,203,-185
21683,2635,0,2023-03-01T18:57:01.179229,2010719,811,1490,1056,-1031,-573,-324,-33,203,-185
21684,2636,0,2023-03-01T18:57:01.184760,2010724,811,1490,1056,-1031,-573,-324,-33,203,-185
21685,2637,0,2023-03-01T18:57:01.189890,2010729,811,1490,1056,-1031,-573,-324,-33,203,-185
21686,2638,0,2023-03-01T18:57:01.194866,2010734,814,1488,1049,-1036,-569,-322,-33,203,-185
21687,2639,0,2023-03-01T18:57:01.202783,2010742,814,1488,1049,-1036,-569,-322,-33,203,-185
21688,2640,0,2023-03-01T18:57:01.209061,2010748,814,1488,1049,-1036,-569,-322,-33,203,-185
21689,2641,0,2023-03-01T18:57:01.214762,2010755,815,1492,1057,-1031,-573,-322,-33,203,-185
21690,2642,0,2023-03-01T18:57:01.220615,2010760,815,1492,1057,-1031,-573,-322,-33,203,-185
21691,2643,0,2023-03-01T18:57:01.226649,2010766,815,1492,1057,-1031,-573,-322,-33,203,-185
21692,2644,0,2023-03-01T18:57:01.231720,2010771,815,1485,1055,-1028,-572,-321,-33,203,-185
21693,2645,0,2023-03-01T18:57:01.237387,2010777,815,1485,1055,-1028,-572,-321,-33,203,-185
21694,2646,0,2023-03-01T18:57:01.242012,2010782,815,1485,1055,-1028,-572,-321,-33,203,-185
21695,2647,0,2023-03-01T18:57:01.246604,2010786,815,1485,1055,-1028,-572,-321,-33,203,-185
21696,2648,0,2023-03-01T18:57:01.252014,2010791,811,1491,1055,-1033,-574,-321,-33,203,-185
21697,2649,0,2023-03-01T18:57:01.257978,2010798,811,1491,1055,-1033,-574,-321,-33,203,-185
21698,2650,0,2023-03-01T18:57:01.262666,2010803,811,1491,1055,-1033,-574,-321,-33,203,-185
21699,2651,0,2023-03-01T18:57:01.268616,2010808,811,1491,1055,-1033,-574,-321,-33,203,-185
21700,2652,0,2023-03-01T18:57:01.273813,2010813,814,1491,1053,-1044,-576,-318,-33,203,-185
21701,2653,0,2023-03-01T18:57:01.279576,2010819,814,1491,1053,-1044,-576,-318,-33,203,-185
21702,2654,0,2023-03-01T18:57:01.284910,2010824,814,1491,1053,-1044,-576,-318,-33,203,-185
21703,2655,0,2023-03-01T18:57:01.290259,2010829,814,1491,1053,-1044,-576,-318,-33,203,-185
21704,2656,0,2023-03-01T18:57:01.296073,2010835,810,1489,1057,-1045,-575,-322,-33,203,-185
21705,2657,0,2023-03-01T18:57:01.302283,2010842,810,1489,1057,-1045,-575,-322,-33,203,-185
21706,2658,0,2023-03-01T18:57:01.308255,2010848,810,1489,1057,-1045,-575,-322,-33,203,-185
21707,2659,0,2023-03-01T18:57:01.313123,2010853,811,1489,1057,-1039,-573,-326,-34,210,-190
21708,2660,0,2023-03-01T18:57:01.318400,2010858,811,1489,1057,-1039,-573,-326,-34,210,-190
21709,2661,0,2023-03-01T18:57:01.323684,2010863,811,1489,1057,-1039,-573,-326,-34,210,-190
21710,2662,0,2023-03-01T18:57:01.328902,2010868,811,1489,1057,-1039,-573,-326,-34,210,-190
21711,2663,0,2023-03-01T18:57:01.334004,2010873,814,1489,1057,-1035,-571,-331,-34,210,-190
21712,2664,0,2023-03-01T18:57:01.339514,2010880,814,1489,1057,-1035,-571,-331,-34,210,-190
21713,2665,0,2023-03-01T18:57:01.345130,2010885,814,1489,1057,-1035,-571,-331,-34,210,-190
21714,2666,0,2023-03-01T18:57:01.350029,2010890,814,1489,1057,-1035,-571,-331,-34,210,-190
21715,2667,0,2023-03-01T18:57:01.354944,2010895,810,1487,1053,-1036,-569,-319,-34,210,-190
21716,2668,0,2023-03-01T18:57:01.360606,2010900,810,1487,1053,-1036,-569,-319,-34,210,-190
21717,2669,0,2023-03-01T18:57:01.365833,2010905,810,1487,1053,-1036,-569,-319,-34,210,-190
21718,2670,0,2023-03-01T18:57:01.370464,2010910,810,1487,1053,-1036,-569,-319,-34,210,-190
21719,2671,0,2023-03-01T18:57:01.375166,2010914,810,1487,1053,-1036,-569,-319,-34,210,-190
21720,2672,0,2023-03-01T18:57:01.380061,2010919,810,1487,1053,-1036,-569,-319,-34,210,-190
21721,2673,0,2023-03-01T18:57:01.386867,2010926,810,1487,1053,-1036,-569,-319,-34,210,-190
21722,2674,0,2023-03-01T18:57:01.392489,2010932,813,1488,1056,-1037,-567,-317,-34,210,-190
21723,2675,0,2023-03-01T18:57:01.398417,2010938,813,1488,1056,-1037,-567,-317,-34,210,-190
21724,2676,0,2023-03-01T18:57:01.404110,2010944,813,1488,1056,-1037,-567,-317,-34,210,-190
21725,2677,0,2023-03-01T18:57:01.409945,2010949,813,1488,1056,-1037,-567,-317,-34,210,-190
21726,2678,0,2023-03-01T18:57:01.415857,2010954,817,1486,1053,-1047,-569,-318,-34,210,-190
21727,2679,0,2023-03-01T18:57:01.421819,2010961,817,1486,1053,-1047,-569,-318,-34,210,-190
21728,2680,0,2023-03-01T18:57:01.427194,2010967,817,1486,1053,-1047,-569,-318,-34,210,-190
21729,2681,0,2023-03-01T18:57:01.432137,2010972,815,1487,1054,-1036,-566,-320,-37,205,-181
21730,2682,0,2023-03-01T18:57:01.437926,2010977,815,1487,1054,-1036,-566,-320,-37,205,-181
21731,2683,0,2023-03-01T18:57:01.442883,2010982,815,1487,1054,-1036,-566,-320,-37,205,-181
21732,2684,0,2023-03-01T18:57:01.449277,2010989,815,1487,1054,-1036,-566,-320,-37,205,-181
21733,2685,0,2023-03-01T18:57:01.454166,2010994,811,1492,1056,-1040,-567,-319,-37,205,-181
21734,2686,0,2023-03-01T18:57:01.459775,2010999,811,1492,1056,-1040,-567,-319,-37,205,-181
21735,2687,0,2023-03-01T18:57:01.466467,2011005,811,1492,1056,-1040,-567,-319,-37,205,-181
21736,2688,0,2023-03-01T18:57:01.471673,2011011,811,1492,1056,-1040,-567,-319,-37,205,-181
21737,2689,0,2023-03-01T18:57:01.476897,2011017,812,1489,1056,-1036,-568,-322,-37,205,-181
21738,2690,0,2023-03-01T18:57:01.482408,2011022,812,1489,1056,-1036,-568,-322,-37,205,-181
21739,2691,0,2023-03-01T18:57:01.488381,2011028,812,1489,1056,-1036,-568,-322,-37,205,-181
21740,2692,0,2023-03-01T18:57:01.493494,2011033,813,1488,1057,-1037,-574,-321,-37,205,-181
21741,2693,0,2023-03-01T18:57:01.498089,2011037,813,1488,1057,-1037,-574,-321,-37,205,-181
21742,2694,0,2023-03-01T18:57:01.503161,2011042,813,1488,1057,-1037,-574,-321,-37,205,-181
21743,2695,0,2023-03-01T18:57:01.509023,2011048,813,1488,1057,-1037,-574,-321,-37,205,-181
21744,2696,0,2023-03-01T18:57:01.514044,2011054,813,1490,1059,-1036,-574,-325,-37,205,-181
21745,2697,0,2023-03-01T18:57:01.519703,2011059,813,1490,1059,-1036,-574,-325,-37,205,-181
21746,2698,0,2023-03-01T18:57:01.525903,2011065,813,1490,1059,-1036,-574,-325,-37,205,-181
21747,2699,0,2023-03-01T18:57:01.531218,2011071,813,1490,1059,-1036,-574,-325,-37,205,-181
21748,2700,0,2023-03-01T18:57:01.536505,2011076,813,1488,1060,-1035,-575,-323,-37,205,-181
21749,2701,0,2023-03-01T18:57:01.541733,2011081,813,1488,1060,-1035,-575,-323,-37,205,-181
21750,2702,0,2023-03-01T18:57:01.547368,2011087,813,1488,1060,-1035,-575,-323,-37,205,-181
21751,2703,0,2023-03-01T18:57:01.552271,2011091,818,1490,1056,-1036,-581,-325,-35,205,-191
21752,2704,0,2023-03-01T18:57:01.557913,2011098,818,1490,1056,-1036,-581,-325,-35,205,-191
21753,2705,0,2023-03-01T18:57:01.563718,2011103,818,1490,1056,-1036,-581,-325,-35,205,-191
21754,2706,0,2023-03-01T18:57:01.570265,2011110,818,1490,1056,-1036,-581,-325,-35,205,-191
21755,2707,0,2023-03-01T18:57:01.575531,2011115,814,1491,1059,-1043,-576,-330,-35,205,-191
21756,2708,0,2023-03-01T18:57:01.581351,2011120,814,1491,1059,-1043,-576,-330,-35,205,-191
21757,2709,0,2023-03-01T18:57:01.587002,2011126,814,1491,1059,-1043,-576,-330,-35,205,-191
21758,2710,0,2023-03-01T18:57:01.592019,2011131,816,1491,1055,-1042,-564,-324,-35,205,-191
21759,2711,0,2023-03-01T18:57:01.597698,2011138,816,1491,1055,-1042,-564,-324,-35,205,-191
21760,2712,0,2023-03-01T18:57:01.602910,2011143,816,1491,1055,-1042,-564,-324,-35,205,-191
21761,2713,0,2023-03-01T18:57:01.609136,2011149,816,1491,1055,-1042,-564,-324,-35,205,-191
21762,2714,0,2023-03-01T18:57:01.614436,2011154,814,1488,1054,-1043,-567,-320,-35,205,-191
21763,2715,0,2023-03-01T18:57:01.619987,2011159,814,1488,1054,-1043,-567,-320,-35,205,-191
21764,2716,0,2023-03-01T18:57:01.625817,2011165,814,1488,1054,-1043,-567,-320,-35,205,-191
21765,2717,0,2023-03-01T18:57:01.631281,2011170,814,1488,1054,-1043,-567,-320,-35,205,-191
21766,2718,0,2023-03-01T18:57:01.637494,2011177,814,1492,1053,-1044,-575,-316,-35,205,-191
21767,2719,0,2023-03-01T18:57:01.643671,2011183,814,1492,1053,-1044,-575,-316,-35,205,-191
21768,2720,0,2023-03-01T18:57:01.649763,2011190,814,1492,1053,-1044,-575,-316,-35,205,-191
21769,2721,0,2023-03-01T18:57:01.654204,2011194,814,1488,1049,-1041,-573,-321,-35,205,-191
21770,2722,0,2023-03-01T18:57:01.659609,2011199,814,1488,1049,-1041,-573,-321,-35,205,-191
21771,2723,0,2023-03-01T18:57:01.665456,2011205,814,1488,1049,-1041,-573,-321,-35,205,-191
21772,2724,0,2023-03-01T18:57:01.670331,2011210,814,1488,1049,-1041,-573,-321,-35,205,-191
21773,2725,0,2023-03-01T18:57:01.675922,2011215,814,1487,1052,-1033,-566,-312,-35,205,-191
21774,2726,0,2023-03-01T18:57:01.681409,2011220,814,1487,1052,-1033,-566,-312,-35,205,-191
21775,2727,0,2023-03-01T18:57:01.687833,2011228,814,1487,1052,-1033,-566,-312,-35,205,-191
21776,2728,0,2023-03-01T18:57:01.692714,2011232,813,1488,1059,-1038,-574,-320,-40,196,-178
21777,2729,0,2023-03-01T18:57:01.698925,2011239,813,1488,1059,-1038,-574,-320,-40,196,-178
21778,2730,0,2023-03-01T18:57:01.705117,2011245,813,1488,1059,-1038,-574,-320,-40,196,-178
21779,2731,0,2023-03-01T18:57:01.710632,2011250,813,1488,1059,-1038,-574,-320,-40,196,-178
21780,2732,0,2023-03-01T18:57:01.715825,2011255,811,1487,1054,-1040,-574,-322,-40,196,-178
21781,2733,0,2023-03-01T18:57:01.721786,2011261,811,1487,1054,-1040,-574,-322,-40,196,-178
21782,2734,0,2023-03-01T18:57:01.728617,2011268,811,1487,1054,-1040,-574,-322,-40,196,-178
21783,2735,0,2023-03-01T18:57:01.733489,2011273,813,1487,1055,-1030,-571,-320,-40,196,-178
21784,2736,0,2023-03-01T18:57:01.739683,2011279,813,1487,1055,-1030,-571,-320,-40,196,-178
21785,2737,0,2023-03-01T18:57:01.746171,2011286,813,1487,1055,-1030,-571,-320,-40,196,-178
21786,2738,0,2023-03-01T18:57:01.751232,2011291,813,1487,1055,-1030,-571,-320,-40,196,-178
21787,2739,0,2023-03-01T18:57:01.756091,2011296,811,1491,1057,-1034,-572,-325,-40,196,-178
21788,2740,0,2023-03-01T18:57:01.761821,2011301,811,1491,1057,-1034,-572,-325,-40,196,-178
21789,2741,0,2023-03-01T18:57:01.768167,2011308,811,1491,1057,-1034,-572,-325,-40,196,-178
21790,2742,0,2023-03-01T18:57:01.773776,2011313,813,1487,1048,-1036,-571,-325,-40,196,-178
21791,2743,0,2023-03-01T18:57:01.779887,2011320,813,1487,1048,-1036,-571,-325,-40,196,-178
21792,2744,0,2023-03-01T18:57:01.785967,2011326,813,1487,1048,-1036,-571,-325,-40,196,-178
21793,2745,0,2023-03-01T18:57:01.790745,2011330,813,1487,1048,-1036,-571,-325,-40,196,-178
21794,2746,0,2023-03-01T18:57:01.796322,2011335,816,1488,1059,-1034,-572,-324,-40,196,-178
21795,2747,0,2023-03-01T18:57:01.802316,2011341,816,1488,1059,-1034,-572,-324,-40,196,-178
21796,2748,0,2023-03-01T18:57:01.808898,2011348,816,1488,1059,-1034,-572,-324,-40,196,-178
21797,2749,0,2023-03-01T18:57:01.813875,2011354,813,1489,1053,-1040,-578,-329,-34,198,-184
21798,2750,0,2023-03-01T18:57:01.819474,2011359,813,1489,1053,-1040,-578,-329,-34,198,-184
21799,2751,0,2023-03-01T18:57:01.824238,2011364,813,1489,1053,-1040,-578,-329,-34,198,-184
21800,2752,0,2023-03-01T18:57:01.829605,2011369,813,1489,1053,-1040,-578,-329,-34,198,-184
21801,2753,0,2023-03-01T18:57:01.834983,2011374,813,1491,1056,-1034,-569,-319,-34,198,-184
21802,2754,0,2023-03-01T18:57:01.840609,2011380,813,1491,1056,-1034,-569,-319,-34,198,-184
21803,2755,0,2023-03-01T18:57:01.847068,2011385,813,1491,1056,-1034,-569,-319,-34,198,-184
21804,2756,0,2023-03-01T18:57:01.854103,2011394,812,1492,1063,-1032,-571,-317,-34,198,-184
21805,2757,0,2023-03-01T18:57:01.860296,2011400,812,1492,1063,-1032,-571,-317,-34,198,-184
21806,2758,0,2023-03-01T18:57:01.865497,2011406,812,1492,1063,-1032,-571,-317,-34,198,-184
21807,2759,0,2023-03-01T18:57:01.870364,2011410,812,1492,1063,-1032,-571,-317,-34,198,-184
21808,2760,0,2023-03-01T18:57:01.875470,2011415,811,1487,1051,-1041,-567,-326,-34,198,-184
21809,2761,0,2023-03-01T18:57:01.881590,2011421,811,1487,1051,-1041,-567,-326,-34,198,-184
21810,2762,0,2023-03-01T18:57:01.887667,2011427,811,1487,1051,-1041,-567,-326,-34,198,-184
21811,2763,0,2023-03-01T18:57:01.893011,2011432,812,1488,1059,-1039,-561,-324,-34,198,-184
21812,2764,0,2023-03-01T18:57:01.898293,2011439,812,1488,1059,-1039,-561,-324,-34,198,-184
21813,2765,0,2023-03-01T18:57:01.904048,2011444,812,1488,1059,-1039,-561,-324,-34,198,-184
21814,2766,0,2023-03-01T18:57:01.909110,2011449,812,1488,1059,-1039,-561,-324,-34,198,-184
21815,2767,0,2023-03-01T18:57:01.914242,2011454,815,1491,1054,-1025,-570,-323,-34,198,-184
21816,2768,0,2023-03-01T18:57:01.919681,2011459,815,1491,1054,-1025,-570,-323,-34,198,-184
21817,2769,0,2023-03-01T18:57:01.924576,2011464,815,1491,1054,-1025,-570,-323,-34,198,-184
21818,2770,0,2023-03-01T18:57:01.928984,2011469,815,1491,1054,-1025,-570,-323,-34,198,-184
21819,2771,0,2023-03-01T18:57:01.933952,2011473,813,1491,1055,-1036,-571,-321,-34,198,-184
21820,2772,0,2023-03-01T18:57:01.940193,2011479,813,1491,1055,-1036,-571,-321,-34,198,-184
21821,2773,0,2023-03-01T18:57:01.946410,2011486,813,1491,1055,-1036,-571,-321,-34,198,-184
21822,2774,0,2023-03-01T18:57:01.952146,2011492,814,1488,1057,-1038,-559,-324,-34,198,-184
21823,2775,0,2023-03-01T18:57:01.957760,2011497,814,1488,1057,-1038,-559,-324,-35,199,-181
21824,2776,0,2023-03-01T18:57:01.962900,2011502,814,1488,1057,-1038,-559,-324,-35,199,-181
21825,2777,0,2023-03-01T18:57:01.969465,2011509,814,1488,1057,-1038,-559,-324,-35,199,-181
21826,2778,0,2023-03-01T18:57:01.974704,2011514,812,1488,1056,-1035,-572,-323,-35,199,-181
21827,2779,0,2023-03-01T18:57:01.980283,2011520,812,1488,1056,-1035,-572,-323,-35,199,-181
21828,2780,0,2023-03-01T18:57:01.985833,2011526,812,1488,1056,-1035,-572,-323,-35,199,-181
21829,2781,0,2023-03-01T18:57:01.990337,2011531,812,1488,1056,-1035,-572,-323,-35,199,-181
21830,2782,0,2023-03-01T18:57:01.995425,2011535,812,1486,1054,-1024,-574,-323,-35,199,-181
21831,2783,0,2023-03-01T18:57:02.001170,2011541,812,1486,1054,-1024,-574,-323,-35,199,-181
21832,2784,0,2023-03-01T18:57:02.007088,2011546,812,1486,1054,-1024,-574,-323,-35,199,-181
21833,2785,0,2023-03-01T18:57:02.011939,2011551,812,1486,1054,-1024,-574,-323,-35,199,-181
21834,2786,0,2023-03-01T18:57:02.016512,2011556,809,1489,1052,-1034,-575,-328,-35,199,-181
21835,2787,0,2023-03-01T18:57:02.022114,2011561,809,1489,1052,-1034,-575,-328,-35,199,-181
21836,2788,0,2023-03-01T18:57:02.028134,2011568,809,1489,1052,-1034,-575,-328,-35,199,-181
21837,2789,0,2023-03-01T18:57:02.033274,2011573,813,1491,1054,-1032,-575,-322,-35,199,-181
21838,2790,0,2023-03-01T18:57:02.038732,2011579,813,1491,1054,-1032,-575,-322,-35,199,-181
21839,2791,0,2023-03-01T18:57:02.044392,2011584,813,1491,1054,-1032,-575,-322,-35,199,-181
21840,2792,0,2023-03-01T18:57:02.049296,2011589,813,1491,1054,-1032,-575,-322,-35,199,-181
21841,2793,0,2023-03-01T18:57:02.054325,2011594,813,1489,1055,-1035,-571,-313,-35,199,-181
21842,2794,0,2023-03-01T18:57:02.059563,2011599,813,1489,1055,-1035,-571,-313,-35,199,-181
21843,2795,0,2023-03-01T18:57:02.065460,2011604,813,1489,1055,-1035,-571,-313,-35,199,-181
21844,2796,0,2023-03-01T18:57:02.070479,2011610,813,1489,1055,-1035,-571,-313,-35,199,-181
21845,2797,0,2023-03-01T18:57:02.075795,2011616,812,1490,1056,-1031,-571,-315,-38,206,-186
21846,2798,0,2023-03-01T18:57:02.081405,2011621,812,1490,1056,-1031,-571,-315,-38,206,-186
21847,2799,0,2023-03-01T18:57:02.087302,2011627,812,1490,1056,-1031,-571,-315,-38,206,-186
21848,2800,0,2023-03-01T18:57:02.092468,2011632,816,1490,1053,-1041,-578,-322,-38,206,-186
21849,2801,0,2023-03-01T18:57:02.098203,2011637,816,1490,1053,-1041,-578,-322,-38,206,-186
21850,2802,0,2023-03-01T18:57:02.103419,2011643,816,1490,1053,-1041,-578,-322,-38,206,-186
21851,2803,0,2023-03-01T18:57:02.108805,2011649,816,1490,1053,-1041,-578,-322,-38,206,-186
21852,2804,0,2023-03-01T18:57:02.113559,2011654,814,1490,1055,-1037,-573,-327,-38,206,-186
21853,2805,0,2023-03-01T18:57:02.119120,2011659,814,1490,1055,-1037,-573,-327,-38,206,-186
21854,2806,0,2023-03-01T18:57:02.128038,2011664,814,1490,1055,-1037,-573,-327,-38,206,-186
21855,2807,0,2023-03-01T18:57:02.133717,2011673,814,1488,1060,-1029,-571,-321,-38,206,-186
21856,2808,0,2023-03-01T18:57:02.139246,2011679,814,1488,1060,-1029,-571,-321,-38,206,-186
21857,2809,0,2023-03-01T18:57:02.144897,2011684,814,1488,1060,-1029,-571,-321,-38,206,-186
21858,2810,0,2023-03-01T18:57:02.149715,2011689,814,1488,1060,-1029,-571,-321,-38,206,-186
21859,2811,0,2023-03-01T18:57:02.154411,2011695,813,1489,1053,-1042,-568,-327,-38,206,-186
21860,2812,0,2023-03-01T18:57:02.159829,2011700,813,1489,1053,-1042,-568,-327,-38,206,-186
21861,2813,0,2023-03-01T18:57:02.165874,2011706,813,1489,1053,-1042,-568,-327,-38,206,-186
21862,2814,0,2023-03-01T18:57:02.170811,2011710,813,1489,1053,-1042,-568,-327,-38,206,-186
21863,2815,0,2023-03-01T18:57:02.176058,2011715,812,1490,1056,-1026,-567,-321,-38,206,-186
21864,2816,0,2023-03-01T18:57:02.183215,2011722,812,1490,1056,-1026,-567,-321,-38,206,-186
21865,2817,0,2023-03-01T18:57:02.189201,2011728,812,1490,1056,-1026,-567,-321,-38,206,-186
21866,2818,0,2023-03-01T18:57:02.193992,2011734,810,1490,1056,-1031,-570,-321,-38,206,-186
21867,2819,0,2023-03-01T18:57:02.199555,2011739,810,1490,1056,-1031,-570,-321,-38,206,-186
21868,2820,0,2023-03-01T18:57:02.205091,2011745,810,1490,1056,-1031,-570,-321,-38,206,-186
21869,2821,0,2023-03-01T18:57:02.209933,2011750,810,1490,1056,-1031,-570,-321,-38,206,-186
21870,2822,0,2023-03-01T18:57:02.214828,2011754,809,1491,1063,-1036,-571,-324,-38,206,-186
21871,2823,0,2023-03-01T18:57:02.219435,2011759,809,1491,1063,-1036,-571,-324,-38,206,-186
21872,2824,0,2023-03-01T18:57:02.224986,2011764,809,1491,1063,-1036,-571,-324,-38,206,-186
21873,2825,0,2023-03-01T18:57:02.229945,2011769,809,1491,1063,-1036,-571,-324,-38,206,-186
21874,2826,0,2023-03-01T18:57:02.235142,2011774,810,1488,1058,-1038,-569,-327,-38,206,-186
21875,2827,0,2023-03-01T18:57:02.241125,2011781,810,1488,1058,-1038,-569,-327,-38,206,-186
21876,2828,0,2023-03-01T18:57:02.247401,2011787,810,1488,1058,-1038,-569,-327,-38,206,-186
21877,2829,0,2023-03-01T18:57:02.252660,2011792,810,1488,1058,-1038,-569,-327,-38,206,-186
21878,2830,0,2023-03-01T18:57:02.257862,2011797,812,1491,1054,-1035,-566,-329,-38,206,-186
21879,2831,0,2023-03-01T18:57:02.263277,2011803,812,1491,1054,-1035,-566,-329,-38,206,-186
21880,2832,0,2023-03-01T18:57:02.269472,2011809,812,1491,1054,-1035,-566,-329,-38,206,-186
21881,2833,0,2023-03-01T18:57:02.274797,2011814,813,1489,1053,-1028,-571,-320,-38,206,-186
21882,2834,0,2023-03-01T18:57:02.280677,2011821,813,1489,1053,-1028,-571,-320,-38,206,-186
21883,2835,0,2023-03-01T18:57:02.287385,2011827,813,1489,1053,-1028,-571,-320,-38,206,-186
21884,2836,0,2023-03-01T18:57:02.292884,2011832,813,1489,1053,-1028,-571,-320,-38,206,-186
21885,2837,0,2023-03-01T18:57:02.297839,2011838,810,1487,1054,-1036,-576,-324,-38,206,-186
21886,2838,0,2023-03-01T18:57:02.303184,2011843,810,1487,1054,-1036,-576,-324,-38,206,-186
21887,2839,0,2023-03-01T18:57:02.308908,2011848,810,1487,1054,-1036,-576,-324,-38,206,-186
21888,2840,0,2023-03-01T18:57:02.313954,2011853,814,1490,1059,-1039,-577,-324,-38,206,-186
21889,2841,0,2023-03-01T18:57:02.319878,2011859,814,1490,1059,-1039,-577,-324,-38,206,-186
21890,2842,0,2023-03-01T18:57:02.325715,2011866,814,1490,1059,-1039,-577,-324,-38,206,-186
21891,2843,0,2023-03-01T18:57:02.330782,2011871,814,1490,1059,-1039,-577,-324,-38,206,-186
21892,2844,0,2023-03-01T18:57:02.335509,2011875,811,1491,1055,-1040,-581,-320,-27,207,-181
21893,2845,0,2023-03-01T18:57:02.341752,2011881,811,1491,1055,-1040,-581,-320,-27,207,-181
21894,2846,0,2023-03-01T18:57:02.348328,2011888,811,1491,1055,-1040,-581,-320,-27,207,-181
21895,2847,0,2023-03-01T18:57:02.353589,2011893,813,1489,1057,-1031,-569,-318,-27,207,-181
21896,2848,0,2023-03-01T18:57:02.358916,2011898,813,1489,1057,-1031,-569,-318,-27,207,-181
21897,2849,0,2023-03-01T18:57:02.364550,2011904,813,1489,1057,-1031,-569,-318,-27,207,-181
21898,2850,0,2023-03-01T18:57:02.369880,2011910,813,1489,1057,-1031,-569,-318,-27,207,-181
21899,2851,0,2023-03-01T18:57:02.375354,2011915,812,1489,1053,-1031,-571,-318,-27,207,-181
21900,2852,0,2023-03-01T18:57:02.381588,2011921,812,1489,1053,-1031,-571,-318,-27,207,-181
21901,2853,0,2023-03-01T18:57:02.387825,2011928,812,1489,1053,-1031,-571,-318,-27,207,-181
21902,2854,0,2023-03-01T18:57:02.392664,2011932,812,1489,1053,-1031,-571,-318,-27,207,-181
21903,2855,0,2023-03-01T18:57:02.397876,2011937,813,1488,1057,-1035,-566,-320,-27,207,-181
21904,2856,0,2023-03-01T18:57:02.404450,2011943,813,1488,1057,-1035,-566,-320,-27,207,-181
21905,2857,0,2023-03-01T18:57:02.410630,2011951,813,1488,1057,-1035,-566,-320,-27,207,-181
21906,2858,0,2023-03-01T18:57:02.415477,2011955,812,1485,1053,-1040,-572,-324,-27,207,-181
21907,2859,0,2023-03-01T18:57:02.421028,2011961,812,1485,1053,-1040,-572,-324,-27,207,-181
21908,2860,0,2023-03-01T18:57:02.427302,2011967,812,1485,1053,-1040,-572,-324,-27,207,-181
21909,2861,0,2023-03-01T18:57:02.432319,2011972,812,1485,1053,-1040,-572,-324,-27,207,-181
21910,2862,0,2023-03-01T18:57:02.437493,2011977,813,1487,1053,-1037,-570,-321,-27,207,-181
21911,2863,0,2023-03-01T18:57:02.443012,2011982,813,1487,1053,-1037,-570,-321,-27,207,-181
21912,2864,0,2023-03-01T18:57:02.448932,2011988,813,1487,1053,-1037,-570,-321,-27,207,-181
21913,2865,0,2023-03-01T18:57:02.453897,2011994,814,1490,1057,-1025,-565,-322,-33,201,-181
21914,2866,0,2023-03-01T18:57:02.459499,2011999,814,1490,1057,-1025,-565,-322,-33,201,-181
21915,2867,0,2023-03-01T18:57:02.464610,2012005,814,1490,1057,-1025,-565,-322,-33,201,-181
21916,2868,0,2023-03-01T18:57:02.469333,2012009,814,1490,1057,-1025,-565,-322,-33,201,-181
21917,2869,0,2023-03-01T18:57:02.474851,2012014,812,1488,1056,-1034,-567,-323,-33,201,-181
21918,2870,0,2023-03-01T18:57:02.481076,2012020,812,1488,1056,-1034,-567,-323,-33,201,-181
21919,2871,0,2023-03-01T18:57:02.487423,2012027,812,1488,1056,-1034,-567,-323,-33,201,-181
21920,2872,0,2023-03-01T18:57:02.492224,2012033,812,1488,1056,-1034,-567,-323,-33,201,-181
21921,2873,0,2023-03-01T18:57:02.497430,2012038,811,1489,1057,-1033,-565,-321,-33,201,-181
21922,2874,0,2023-03-01T18:57:02.502972,2012043,811,1489,1057,-1033,-565,-321,-33,201,-181
21923,2875,0,2023-03-01T18:57:02.508968,2012048,811,1489,1057,-1033,-565,-321,-33,201,-181
21924,2876,0,2023-03-01T18:57:02.514318,2012054,809,1487,1055,-1035,-577,-320,-33,201,-181
21925,2877,0,2023-03-01T18:57:02.520150,2012060,809,1487,1055,-1035,-577,-320,-33,201,-181
21926,2878,0,2023-03-01T18:57:02.526099,2012066,809,1487,1055,-1035,-577,-320,-33,201,-181
21927,2879,0,2023-03-01T18:57:02.531383,2012071,809,1487,1055,-1035,-577,-320,-33,201,-181
21928,2880,0,2023-03-01T18:57:02.536513,2012076,814,1491,1055,-1038,-567,-323,-33,201,-181
21929,2881,0,2023-03-01T18:57:02.543021,2012082,814,1491,1055,-1038,-567,-323,-33,201,-181
21930,2882,0,2023-03-01T18:57:02.549387,2012089,814,1491,1055,-1038,-567,-323,-33,201,-181
21931,2883,0,2023-03-01T18:57:02.554622,2012094,813,1489,1054,-1032,-565,-321,-33,201,-181
21932,2884,0,2023-03-01T18:57:02.559804,2012099,813,1489,1054,-1032,-565,-321,-33,201,-181
21933,2885,0,2023-03-01T18:57:02.565736,2012105,813,1489,1054,-1032,-565,-321,-33,201,-181
21934,2886,0,2023-03-01T18:57:02.571020,2012110,813,1489,1054,-1032,-565,-321,-33,201,-181
21935,2887,0,2023-03-01T18:57:02.576524,2012116,814,1488,1053,-1035,-568,-322,-33,201,-181
21936,2888,0,2023-03-01T18:57:02.582091,2012122,814,1488,1053,-1035,-568,-322,-33,201,-181
21937,2889,0,2023-03-01T18:57:02.587714,2012128,814,1488,1053,-1035,-568,-322,-33,201,-181
21938,2890,0,2023-03-01T18:57:02.592608,2012132,814,1488,1053,-1035,-568,-322,-33,201,-181
21939,2891,0,2023-03-01T18:57:02.597667,2012137,812,1487,1058,-1032,-569,-321,-29,199,-181
21940,2892,0,2023-03-01T18:57:02.603615,2012143,812,1487,1058,-1032,-569,-321,-29,199,-181
21941,2893,0,2023-03-01T18:57:02.610344,2012150,812,1487,1058,-1032,-569,-321,-29,199,-181
21942,2894,0,2023-03-01T18:57:02.616153,2012155,812,1490,1059,-1026,-569,-324,-29,199,-181
21943,2895,0,2023-03-01T18:57:02.621703,2012162,812,1490,1059,-1026,-569,-324,-29,199,-181
21944,2896,0,2023-03-01T18:57:02.627402,2012167,812,1490,1059,-1026,-569,-324,-29,199,-181
21945,2897,0,2023-03-01T18:57:02.632815,2012172,812,1490,1059,-1026,-569,-324,-29,199,-181
21946,2898,0,2023-03-01T18:57:02.637312,2012177,814,1491,1056,-1036,-575,-323,-29,199,-181
21947,2899,0,2023-03-01T18:57:02.642929,2012182,814,1491,1056,-1036,-575,-323,-29,199,-181
21948,2900,0,2023-03-01T18:57:02.648840,2012188,814,1491,1056,-1036,-575,-323,-29,199,-181
21949,2901,0,2023-03-01T18:57:02.653537,2012193,812,1491,1058,-1032,-579,-319,-29,199,-181
21950,2902,0,2023-03-01T18:57:02.659269,2012198,812,1491,1058,-1032,-579,-319,-29,199,-181
21951,2903,0,2023-03-01T18:57:02.664886,2012205,812,1491,1058,-1032,-579,-319,-29,199,-181
21952,2904,0,2023-03-01T18:57:02.669660,2012210,812,1491,1058,-1032,-579,-319,-29,199,-181
21953,2905,0,2023-03-01T18:57:02.675389,2012215,811,1492,1063,-1032,-574,-320,-29,199,-181
21954,2906,0,2023-03-01T18:57:02.681291,2012221,811,1492,1063,-1032,-574,-320,-29,199,-181
21955,2907,0,2023-03-01T18:57:02.687875,2012227,811,1492,1063,-1032,-574,-320,-29,199,-181
21956,2908,0,2023-03-01T18:57:02.692928,2012232,811,1492,1063,-1032,-574,-320,-29,199,-181
21957,2909,0,2023-03-01T18:57:02.697847,2012237,813,1490,1058,-1033,-574,-316,-29,199,-181
21958,2910,0,2023-03-01T18:57:02.703396,2012243,813,1490,1058,-1033,-574,-316,-29,199,-181
21959,2911,0,2023-03-01T18:57:02.709517,2012249,813,1490,1058,-1033,-574,-316,-29,199,-181
21960,2912,0,2023-03-01T18:57:02.714730,2012255,810,1489,1061,-1033,-562,-323,-30,200,-182
21961,2913,0,2023-03-01T18:57:02.720798,2012260,810,1489,1061,-1033,-562,-323,-30,200,-182
21962,2914,0,2023-03-01T18:57:02.726778,2012266,810,1489,1061,-1033,-562,-323,-30,200,-182
21963,2915,0,2023-03-01T18:57:02.731993,2012271,810,1489,1061,-1033,-562,-323,-30,200,-182
21964,2916,0,2023-03-01T18:57:02.737250,2012277,810,1489,1059,-1037,-576,-320,-30,200,-182
21965,2917,0,2023-03-01T18:57:02.743851,2012283,810,1489,1059,-1037,-576,-320,-30,200,-182
21966,2918,0,2023-03-01T18:57:02.748878,2012289,810,1489,1059,-1037,-576,-320,-30,200,-182
21967,2919,0,2023-03-01T18:57:02.753905,2012294,812,1490,1055,-1040,-576,-315,-30,200,-182
21968,2920,0,2023-03-01T18:57:02.759662,2012299,812,1490,1055,-1040,-576,-315,-30,200,-182
21969,2921,0,2023-03-01T18:57:02.765229,2012305,812,1490,1055,-1040,-576,-315,-30,200,-182
21970,2922,0,2023-03-01T18:57:02.770192,2012310,812,1490,1055,-1040,-576,-315,-30,200,-182
21971,2923,0,2023-03-01T18:57:02.775411,2012315,811,1488,1056,-1038,-576,-317,-30,200,-182
21972,2924,0,2023-03-01T18:57:02.781192,2012320,811,1488,1056,-1038,-576,-317,-30,200,-182
21973,2925,0,2023-03-01T18:57:02.787510,2012327,811,1488,1056,-1038,-576,-317,-30,200,-182
21974,2926,0,2023-03-01T18:57:02.792714,2012332,811,1488,1056,-1038,-576,-317,-30,200,-182
21975,2927,0,2023-03-01T18:57:02.798703,2012338,809,1489,1052,-1031,-568,-313,-30,200,-182
21976,2928,0,2023-03-01T18:57:02.804659,2012344,809,1489,1052,-1031,-568,-313,-30,200,-182
21977,2929,0,2023-03-01T18:57:02.810730,2012350,809,1489,1052,-1031,-568,-313,-30,200,-182
21978,2930,0,2023-03-01T18:57:02.815506,2012355,815,1489,1056,-1039,-574,-326,-30,200,-182
21979,2931,0,2023-03-01T18:57:02.821203,2012360,815,1489,1056,-1039,-574,-326,-30,200,-182
21980,2932,0,2023-03-01T18:57:02.827344,2012367,815,1489,1056,-1039,-574,-326,-30,200,-182
21981,2933,0,2023-03-01T18:57:02.832382,2012371,815,1489,1056,-1039,-574,-326,-30,200,-182
21982,2934,0,2023-03-01T18:57:02.839806,2012380,811,1486,1049,-1044,-571,-317,-30,200,-182
21983,2935,0,2023-03-01T18:57:02.846407,2012386,811,1486,1049,-1044,-571,-317,-30,200,-182
21984,2936,0,2023-03-01T18:57:02.852183,2012392,811,1486,1049,-1044,-571,-317,-30,200,-182
21985,2937,0,2023-03-01T18:57:02.857968,2012397,812,1488,1053,-1032,-569,-326,-30,206,-184
21986,2938,0,2023-03-01T18:57:02.864027,2012403,812,1488,1053,-1032,-569,-326,-30,206,-184
21987,2939,0,2023-03-01T18:57:02.870353,2012410,812,1488,1053,-1032,-569,-326,-30,206,-184
21988,2940,0,2023-03-01T18:57:02.876838,2012416,817,1489,1054,-1042,-570,-324,-30,206,-184
21989,2941,0,2023-03-01T18:57:02.883193,2012423,817,1489,1054,-1042,-570,-324,-30,206,-184
21990,2942,0,2023-03-01T18:57:02.889437,2012429,817,1489,1054,-1042,-570,-324,-30,206,-184
21991,2943,0,2023-03-01T18:57:02.894181,2012434,812,1489,1048,-1031,-579,-323,-30,206,-184
21992,2944,0,2023-03-01T18:57:02.899771,2012439,812,1489,1048,-1031,-579,-323,-30,206,-184
21993,2945,0,2023-03-01T18:57:02.905149,2012445,812,1489,1048,-1031,-579,-323,-30,206,-184
21994,2946,0,2023-03-01T18:57:02.910128,2012449,812,1489,1048,-1031,-579,-323,-30,206,-184
21995,2947,0,2023-03-01T18:57:02.915167,2012454,811,1488,1056,-1036,-578,-319,-30,206,-184
21996,2948,0,2023-03-01T18:57:02.920788,2012461,811,1488,1056,-1036,-578,-319,-30,206,-184
21997,2949,0,2023-03-01T18:57:02.926811,2012467,811,1488,1056,-1036,-578,-319,-30,206,-184
21998,2950,0,2023-03-01T18:57:02.932111,2012472,811,1488,1056,-1036,-578,-319,-30,206,-184
21999,2951,0,2023-03-01T18:57:02.937072,2012477,813,1491,1055,-1031,-575,-318,-30,206,-184
22000,2952,0,2023-03-01T18:57:02.943173,2012483,813,1491,1055,-1031,-575,-318,-30,206,-184
22001,2953,0,2023-03-01T18:57:02.949067,2012489,813,1491,1055,-1031,-575,-318,-30,206,-184
22002,2954,0,2023-03-01T18:57:02.953775,2012493,814,1484,1055,-1029,-567,-324,-30,206,-184
22003,2955,0,2023-03-01T18:57:02.959511,2012499,814,1484,1055,-1029,-567,-324,-30,206,-184
22004,2956,0,2023-03-01T18:57:02.964786,2012505,814,1484,1055,-1029,-567,-324,-30,206,-184
22005,2957,0,2023-03-01T18:57:02.970516,2012510,814,1484,1055,-1029,-567,-324,-30,206,-184
22006,2958,0,2023-03-01T18:57:02.975760,2012515,810,1490,1055,-1036,-571,-321,-33,201,-177
22007,2959,0,2023-03-01T18:57:02.981666,2012521,810,1490,1055,-1036,-571,-321,-33,201,-177
22008,2960,0,2023-03-01T18:57:02.987265,2012527,810,1490,1055,-1036,-571,-321,-33,201,-177
22009,2961,0,2023-03-01T18:57:02.992149,2012531,810,1490,1055,-1036,-571,-321,-33,201,-177
22010,2962,0,2023-03-01T18:57:02.996940,2012536,814,1489,1050,-1042,-576,-318,-33,201,-177
22011,2963,0,2023-03-01T18:57:03.001664,2012541,814,1489,1050,-1042,-576,-318,-33,201,-177
22012,2964,0,2023-03-01T18:57:03.007653,2012547,814,1489,1050,-1042,-576,-318,-33,201,-177
22013,2965,0,2023-03-01T18:57:03.012262,2012552,814,1489,1050,-1042,-576,-318,-33,201,-177
22014,2966,0,2023-03-01T18:57:03.017300,2012557,813,1488,1057,-1042,-574,-322,-33,201,-177
22015,2967,0,2023-03-01T18:57:03.022222,2012562,813,1488,1057,-1042,-574,-322,-33,201,-177
22016,2968,0,2023-03-01T18:57:03.028873,2012568,813,1488,1057,-1042,-574,-322,-33,201,-177
22017,2969,0,2023-03-01T18:57:03.033994,2012573,815,1491,1059,-1041,-581,-323,-33,201,-177
22018,2970,0,2023-03-01T18:57:03.039384,2012579,815,1491,1059,-1041,-581,-323,-33,201,-177
22019,2971,0,2023-03-01T18:57:03.044872,2012584,815,1491,1059,-1041,-581,-323,-33,201,-177
22020,2972,0,2023-03-01T18:57:03.050196,2012590,815,1491,1059,-1041,-581,-323,-33,201,-177
22021,2973,0,2023-03-01T18:57:03.055807,2012596,814,1490,1056,-1036,-575,-324,-33,201,-177
22022,2974,0,2023-03-01T18:57:03.061682,2012601,814,1490,1056,-1036,-575,-324,-33,201,-177
22023,2975,0,2023-03-01T18:57:03.067828,2012607,814,1490,1056,-1036,-575,-324,-33,201,-177
22024,2976,0,2023-03-01T18:57:03.072779,2012612,814,1490,1056,-1036,-575,-324,-33,201,-177
22025,2977,0,2023-03-01T18:57:03.077670,2012617,809,1489,1057,-1025,-575,-328,-33,201,-177
22026,2978,0,2023-03-01T18:57:03.083689,2012623,809,1489,1057,-1025,-575,-328,-33,201,-177
22027,2979,0,2023-03-01T18:57:03.089882,2012630,809,1489,1057,-1025,-575,-328,-33,201,-177
22028,2980,0,2023-03-01T18:57:03.094485,2012635,814,1490,1054,-1028,-567,-325,-40,200,-184
22029,2981,0,2023-03-01T18:57:03.099677,2012640,814,1490,1054,-1028,-567,-325,-40,200,-184
22030,2982,0,2023-03-01T18:57:03.104967,2012645,814,1490,1054,-1028,-567,-325,-40,200,-184
22031,2983,0,2023-03-01T18:57:03.111657,2012650,814,1490,1054,-1028,-567,-325,-40,200,-184
22032,2984,0,2023-03-01T18:57:03.116181,2012656,814,1488,1060,-1029,-568,-320,-40,200,-184
22033,2985,0,2023-03-01T18:57:03.121430,2012661,814,1488,1060,-1029,-568,-320,-40,200,-184
22034,2986,0,2023-03-01T18:57:03.127653,2012667,814,1488,1060,-1029,-568,-320,-40,200,-184
22035,2987,0,2023-03-01T18:57:03.132268,2012673,814,1488,1060,-1029,-568,-320,-40,200,-184
22036,2988,0,2023-03-01T18:57:03.137077,2012677,808,1488,1057,-1035,-579,-327,-40,200,-184
22037,2989,0,2023-03-01T18:57:03.142490,2012683,808,1488,1057,-1035,-579,-327,-40,200,-184
22038,2990,0,2023-03-01T18:57:03.147970,2012688,808,1488,1057,-1035,-579,-327,-40,200,-184
22039,2991,0,2023-03-01T18:57:03.152669,2012692,808,1488,1057,-1035,-579,-327,-40,200,-184
22040,2992,0,2023-03-01T18:57:03.158279,2012697,815,1486,1061,-1045,-574,-322,-40,200,-184
22041,2993,0,2023-03-01T18:57:03.164692,2012704,815,1486,1061,-1045,-574,-322,-40,200,-184
22042,2994,0,2023-03-01T18:57:03.170750,2012710,815,1486,1061,-1045,-574,-322,-40,200,-184
22043,2995,0,2023-03-01T18:57:03.175712,2012716,814,1491,1053,-1033,-575,-315,-40,200,-184
22044,2996,0,2023-03-01T18:57:03.180823,2012721,814,1491,1053,-1033,-575,-315,-40,200,-184
22045,2997,0,2023-03-01T18:57:03.186975,2012727,814,1491,1053,-1033,-575,-315,-40,200,-184
22046,2998,0,2023-03-01T18:57:03.191905,2012732,814,1491,1053,-1033,-575,-315,-40,200,-184
22047,2999,0,2023-03-01T18:57:03.196996,2012737,814,1491,1056,-1027,-574,-317,-40,200,-184
22048,3000,0,2023-03-01T18:57:03.202943,2012742,814,1491,1056,-1027,-574,-317,-40,200,-184
22049,3001,0,2023-03-01T18:57:03.208769,2012748,814,1491,1056,-1027,-574,-317,-40,200,-184
22050,3002,0,2023-03-01T18:57:03.213790,2012753,814,1487,1055,-1032,-566,-331,-40,200,-184
22051,3003,0,2023-03-01T18:57:03.219124,2012759,814,1487,1055,-1032,-566,-331,-40,200,-184
22052,3004,0,2023-03-01T18:57:03.224817,2012764,814,1487,1055,-1032,-566,-331,-40,200,-184
22053,3005,0,2023-03-01T18:57:03.231003,2012771,814,1487,1055,-1032,-566,-331,-40,200,-184
22054,3006,0,2023-03-01T18:57:03.235442,2012775,813,1487,1058,-1028,-564,-324,-34,206,-192
22055,3007,0,2023-03-01T18:57:03.242453,2012782,813,1487,1058,-1028,-564,-324,-34,206,-192
22056,3008,0,2023-03-01T18:57:03.248403,2012788,813,1487,1058,-1028,-564,-324,-34,206,-192
22057,3009,0,2023-03-01T18:57:03.254287,2012793,813,1490,1053,-1040,-572,-320,-34,206,-192
22058,3010,0,2023-03-01T18:57:03.259851,2012800,813,1490,1053,-1040,-572,-320,-34,206,-192
22059,3011,0,2023-03-01T18:57:03.265568,2012806,813,1490,1053,-1040,-572,-320,-34,206,-192
22060,3012,0,2023-03-01T18:57:03.270607,2012810,813,1490,1053,-1040,-572,-320,-34,206,-192
22061,3013,0,2023-03-01T18:57:03.275940,2012815,812,1491,1054,-1044,-573,-322,-34,206,-192
22062,3014,0,2023-03-01T18:57:03.281653,2012821,812,1491,1054,-1044,-573,-322,-34,206,-192
22063,3015,0,2023-03-01T18:57:03.287381,2012827,812,1491,1054,-1044,-573,-322,-34,206,-192
22064,3016,0,2023-03-01T18:57:03.292366,2012832,812,1491,1054,-1044,-573,-322,-34,206,-192
22065,3017,0,2023-03-01T18:57:03.297334,2012836,814,1491,1051,-1036,-576,-317,-34,206,-192
22066,3018,0,2023-03-01T18:57:03.302930,2012843,814,1491,1051,-1036,-576,-317,-34,206,-192
22067,3019,0,2023-03-01T18:57:03.309647,2012850,814,1491,1051,-1036,-576,-317,-34,206,-192
22068,3020,0,2023-03-01T18:57:03.314791,2012854,816,1487,1053,-1042,-573,-318,-34,206,-192
22069,3021,0,2023-03-01T18:57:03.319970,2012860,816,1487,1053,-1042,-573,-318,-34,206,-192
22070,3022,0,2023-03-01T18:57:03.325802,2012865,816,1487,1053,-1042,-573,-318,-34,206,-192
22071,3023,0,2023-03-01T18:57:03.331904,2012871,816,1487,1053,-1042,-573,-318,-34,206,-192
22072,3024,0,2023-03-01T18:57:03.337019,2012876,814,1489,1056,-1032,-573,-320,-34,206,-192
22073,3025,0,2023-03-01T18:57:03.342953,2012882,814,1489,1056,-1032,-573,-320,-34,206,-192
22074,3026,0,2023-03-01T18:57:03.348783,2012889,814,1489,1056,-1032,-573,-320,-34,206,-192
22075,3027,0,2023-03-01T18:57:03.353474,2012894,814,1489,1056,-1032,-573,-320,-34,206,-192
22076,3028,0,2023-03-01T18:57:03.358844,2012898,811,1492,1053,-1041,-578,-319,-35,201,-185
22077,3029,0,2023-03-01T18:57:03.364934,2012904,811,1492,1053,-1041,-578,-319,-35,201,-185
22078,3030,0,2023-03-01T18:57:03.371325,2012911,811,1492,1053,-1041,-578,-319,-35,201,-185
22079,3031,0,2023-03-01T18:57:03.376198,2012915,813,1490,1059,-1032,-571,-324,-35,201,-185
22080,3032,0,2023-03-01T18:57:03.383696,2012922,813,1490,1059,-1032,-571,-324,-35,201,-185
22081,3033,0,2023-03-01T18:57:03.389986,2012930,813,1490,1059,-1032,-571,-324,-35,201,-185
22082,3034,0,2023-03-01T18:57:03.394788,2012935,813,1490,1058,-1035,-573,-327,-35,201,-185
22083,3035,0,2023-03-01T18:57:03.400144,2012940,813,1490,1058,-1035,-573,-327,-35,201,-185
22084,3036,0,2023-03-01T18:57:03.405783,2012946,813,1490,1058,-1035,-573,-327,-35,201,-185
22085,3037,0,2023-03-01T18:57:03.411568,2012951,813,1490,1058,-1035,-573,-327,-35,201,-185
22086,3038,0,2023-03-01T18:57:03.416611,2012956,812,1488,1055,-1041,-573,-326,-35,201,-185
22087,3039,0,2023-03-01T18:57:03.422486,2012962,812,1488,1055,-1041,-573,-326,-35,201,-185
22088,3040,0,2023-03-01T18:57:03.429615,2012969,812,1488,1055,-1041,-573,-326,-35,201,-185
22089,3041,0,2023-03-01T18:57:03.434796,2012975,813,1488,1051,-1040,-570,-326,-35,201,-185
22090,3042,0,2023-03-01T18:57:03.440729,2012980,813,1488,1051,-1040,-570,-326,-35,201,-185
22091,3043,0,2023-03-01T18:57:03.446388,2012986,813,1488,1051,-1040,-570,-326,-35,201,-185
22092,3044,0,2023-03-01T18:57:03.452624,2012992,813,1488,1051,-1040,-570,-326,-35,201,-185
22093,3045,0,2023-03-01T18:57:03.458420,2012998,811,1488,1052,-1044,-578,-319,-35,201,-185
22094,3046,0,2023-03-01T18:57:03.464031,2013003,811,1488,1052,-1044,-578,-319,-35,201,-185
22095,3047,0,2023-03-01T18:57:03.470217,2013009,811,1488,1052,-1044,-578,-319,-35,201,-185
22096,3048,0,2023-03-01T18:57:03.476277,2013016,811,1491,1056,-1033,-578,-321,-35,201,-185
22097,3049,0,2023-03-01T18:57:03.481755,2013022,811,1491,1056,-1033,-578,-321,-35,201,-185
22098,3050,0,2023-03-01T18:57:03.488160,2013028,811,1491,1056,-1033,-578,-321,-35,201,-185
22099,3051,0,2023-03-01T18:57:03.493691,2013033,811,1491,1056,-1033,-578,-321,-35,201,-185
22100,3052,0,2023-03-01T18:57:03.498913,2013038,813,1489,1057,-1042,-576,-325,-38,204,-186
22101,3053,0,2023-03-01T18:57:03.505168,2013045,813,1489,1057,-1042,-576,-325,-38,204,-186
22102,3054,0,2023-03-01T18:57:03.510732,2013050,813,1489,1057,-1042,-576,-325,-38,204,-186
22103,3055,0,2023-03-01T18:57:03.515310,2013056,811,1490,1059,-1035,-571,-322,-38,204,-186
22104,3056,0,2023-03-01T18:57:03.520627,2013061,811,1490,1059,-1035,-571,-322,-38,204,-186
22105,3057,0,2023-03-01T18:57:03.526125,2013066,811,1490,1059,-1035,-571,-322,-38,204,-186
22106,3058,0,2023-03-01T18:57:03.532010,2013072,811,1490,1059,-1035,-571,-322,-38,204,-186
22107,3059,0,2023-03-01T18:57:03.536499,2013076,812,1489,1052,-1038,-574,-321,-38,204,-186
22108,3060,0,2023-03-01T18:57:03.541867,2013082,812,1489,1052,-1038,-574,-321,-38,204,-186
22109,3061,0,2023-03-01T18:57:03.547922,2013087,812,1489,1052,-1038,-574,-321,-38,204,-186
22110,3062,0,2023-03-01T18:57:03.552907,2013092,812,1489,1052,-1038,-574,-321,-38,204,-186
22111,3063,0,2023-03-01T18:57:03.557672,2013097,813,1486,1062,-1038,-568,-327,-38,204,-186
22112,3064,0,2023-03-01T18:57:03.563268,2013103,813,1486,1062,-1038,-568,-327,-38,204,-186
22113,3065,0,2023-03-01T18:57:03.567976,2013108,813,1486,1062,-1038,-568,-327,-38,204,-186
22114,3066,0,2023-03-01T18:57:03.572767,2013113,813,1486,1062,-1038,-568,-327,-38,204,-186
22115,3067,0,2023-03-01T18:57:03.577784,2013118,811,1487,1051,-1038,-575,-322,-38,204,-186
22116,3068,0,2023-03-01T18:57:03.583863,2013123,811,1487,1051,-1038,-575,-322,-38,204,-186
22117,3069,0,2023-03-01T18:57:03.590198,2013130,811,1487,1051,-1038,-575,-322,-38,204,-186
22118,3070,0,2023-03-01T18:57:03.595358,2013135,816,1490,1052,-1042,-567,-322,-38,204,-186
22119,3071,0,2023-03-01T18:57:03.601233,2013140,816,1490,1052,-1042,-567,-322,-38,204,-186
22120,3072,0,2023-03-01T18:57:03.606726,2013147,816,1490,1052,-1042,-567,-322,-38,204,-186
22121,3073,0,2023-03-01T18:57:03.612493,2013152,816,1490,1052,-1042,-567,-322,-38,204,-186
22122,3074,0,2023-03-01T18:57:03.617512,2013157,812,1489,1056,-1040,-573,-318,-34,198,-180
22123,3075,0,2023-03-01T18:57:03.623060,2013163,812,1489,1056,-1040,-573,-318,-34,198,-180
22124,3076,0,2023-03-01T18:57:03.629225,2013169,812,1489,1056,-1040,-573,-318,-34,198,-180
22125,3077,0,2023-03-01T18:57:03.633875,2013173,812,1489,1056,-1040,-573,-318,-34,198,-180
22126,3078,0,2023-03-01T18:57:03.638689,2013178,812,1490,1063,-1039,-579,-319,-34,198,-180
22127,3079,0,2023-03-01T18:57:03.644496,2013185,812,1490,1063,-1039,-579,-319,-34,198,-180
22128,3080,0,2023-03-01T18:57:03.651297,2013191,812,1490,1063,-1039,-579,-319,-34,198,-180
22129,3081,0,2023-03-01T18:57:03.656044,2013196,809,1491,1058,-1031,-577,-320,-34,198,-180
22130,3082,0,2023-03-01T18:57:03.661621,2013201,809,1491,1058,-1031,-577,-320,-34,198,-180
22131,3083,0,2023-03-01T18:57:03.668059,2013208,809,1491,1058,-1031,-577,-320,-34,198,-180
22132,3084,0,2023-03-01T18:57:03.672655,2013212,809,1491,1058,-1031,-577,-320,-34,198,-180
22133,3085,0,2023-03-01T18:57:03.677581,2013217,812,1490,1057,-1043,-578,-324,-34,198,-180
22134,3086,0,2023-03-01T18:57:03.683411,2013222,812,1490,1057,-1043,-578,-324,-34,198,-180
22135,3087,0,2023-03-01T18:57:03.688950,2013229,812,1490,1057,-1043,-578,-324,-34,198,-180
22136,3088,0,2023-03-01T18:57:03.693943,2013234,812,1490,1057,-1043,-578,-324,-34,198,-180
22137,3089,0,2023-03-01T18:57:03.699372,2013239,811,1490,1054,-1046,-575,-317,-34,198,-180
22138,3090,0,2023-03-01T18:57:03.705469,2013245,811,1490,1054,-1046,-575,-317,-34,198,-180
22139,3091,0,2023-03-01T18:57:03.710355,2013250,811,1490,1054,-1046,-575,-317,-34,198,-180
22140,3092,0,2023-03-01T18:57:03.715437,2013255,811,1490,1054,-1046,-575,-317,-34,198,-180
22141,3093,0,2023-03-01T18:57:03.720071,2013260,811,1490,1054,-1046,-575,-317,-34,198,-180
22142,3094,0,2023-03-01T18:57:03.725330,2013265,811,1490,1054,-1046,-575,-317,-34,198,-180
22143,3095,0,2023-03-01T18:57:03.731110,2013271,811,1490,1054,-1046,-575,-317,-34,198,-180
22144,3096,0,2023-03-01T18:57:03.736921,2013277,810,1488,1050,-1025,-572,-324,-34,198,-180
22145,3097,0,2023-03-01T18:57:03.742267,2013282,810,1488,1050,-1025,-572,-324,-34,198,-180
22146,3098,0,2023-03-01T18:57:03.747712,2013287,810,1488,1050,-1025,-572,-324,-34,198,-180
22147,3099,0,2023-03-01T18:57:03.752800,2013292,810,1488,1050,-1025,-572,-324,-34,198,-180
22148,3100,0,2023-03-01T18:57:03.757937,2013297,813,1486,1057,-1031,-568,-320,-39,201,-189
22149,3101,0,2023-03-01T18:57:03.763240,2013303,813,1486,1057,-1031,-568,-320,-39,201,-189
22150,3102,0,2023-03-01T18:57:03.768666,2013308,813,1486,1057,-1031,-568,-320,-39,201,-189
22151,3103,0,2023-03-01T18:57:03.773991,2013314,813,1486,1057,-1031,-568,-320,-39,201,-189
22152,3104,0,2023-03-01T18:57:03.779137,2013319,812,1490,1053,-1036,-577,-325,-39,201,-189
22153,3105,0,2023-03-01T18:57:03.785439,2013325,812,1490,1053,-1036,-577,-325,-39,201,-189
22154,3106,0,2023-03-01T18:57:03.790382,2013330,812,1490,1053,-1036,-577,-325,-39,201,-189
22155,3107,0,2023-03-01T18:57:03.795368,2013335,812,1488,1054,-1047,-579,-321,-39,201,-189
22156,3108,0,2023-03-01T18:57:03.800794,2013340,812,1488,1054,-1047,-579,-321,-39,201,-189
22157,3109,0,2023-03-01T18:57:03.806909,2013346,812,1488,1054,-1047,-579,-321,-39,201,-189
22158,3110,0,2023-03-01T18:57:03.812654,2013352,812,1488,1054,-1047,-579,-321,-39,201,-189
22159,3111,0,2023-03-01T18:57:03.818074,2013358,814,1488,1056,-1030,-579,-321,-39,201,-189
22160,3112,0,2023-03-01T18:57:03.824586,2013364,814,1488,1056,-1030,-579,-321,-39,201,-189
22161,3113,0,2023-03-01T18:57:03.831395,2013371,814,1488,1056,-1030,-579,-321,-39,201,-189
22162,3114,0,2023-03-01T18:57:03.836801,2013376,811,1489,1057,-1030,-579,-326,-39,201,-189
22163,3115,0,2023-03-01T18:57:03.842489,2013382,811,1489,1057,-1030,-579,-326,-39,201,-189
22164,3116,0,2023-03-01T18:57:03.848125,2013387,811,1489,1057,-1030,-579,-326,-39,201,-189
22165,3117,0,2023-03-01T18:57:03.853443,2013393,811,1489,1057,-1030,-579,-326,-39,201,-189
22166,3118,0,2023-03-01T18:57:03.858487,2013399,812,1489,1055,-1031,-572,-335,-39,201,-189
22167,3119,0,2023-03-01T18:57:03.864829,2013405,812,1489,1055,-1031,-572,-335,-39,201,-189
22168,3120,0,2023-03-01T18:57:03.870942,2013411,812,1489,1055,-1031,-572,-335,-39,201,-189
22169,3121,0,2023-03-01T18:57:03.876190,2013416,812,1493,1053,-1036,-571,-327,-31,211,-191
22170,3122,0,2023-03-01T18:57:03.882156,2013422,812,1493,1053,-1036,-571,-327,-31,211,-191
22171,3123,0,2023-03-01T18:57:03.888307,2013428,812,1493,1053,-1036,-571,-327,-31,211,-191
22172,3124,0,2023-03-01T18:57:03.893358,2013433,812,1493,1053,-1036,-571,-327,-31,211,-191
22173,3125,0,2023-03-01T18:57:03.898532,2013437,813,1490,1058,-1040,-570,-317,-31,211,-191
22174,3126,0,2023-03-01T18:57:03.904506,2013445,813,1490,1058,-1040,-570,-317,-31,211,-191
22175,3127,0,2023-03-01T18:57:03.910264,2013450,813,1490,1058,-1040,-570,-317,-31,211,-191
22176,3128,0,2023-03-01T18:57:03.915752,2013456,811,1488,1059,-1035,-573,-314,-31,211,-191
22177,3129,0,2023-03-01T18:57:03.921633,2013461,811,1488,1059,-1035,-573,-314,-31,211,-191
22178,3130,0,2023-03-01T18:57:03.928649,2013468,811,1488,1059,-1035,-573,-314,-31,211,-191
22179,3131,0,2023-03-01T18:57:03.933953,2013473,811,1488,1059,-1035,-573,-314,-31,211,-191
22180,3132,0,2023-03-01T18:57:03.939357,2013478,814,1491,1054,-1036,-571,-321,-31,211,-191
22181,3133,0,2023-03-01T18:57:03.945412,2013486,814,1491,1054,-1036,-571,-321,-31,211,-191
22182,3134,0,2023-03-01T18:57:03.951124,2013491,814,1491,1054,-1036,-571,-321,-31,211,-191
22183,3135,0,2023-03-01T18:57:03.956321,2013496,814,1491,1054,-1036,-571,-321,-31,211,-191
22184,3136,0,2023-03-01T18:57:03.961241,2013501,814,1491,1054,-1036,-571,-321,-31,211,-191
22185,3137,0,2023-03-01T18:57:03.967593,2013507,814,1491,1054,-1036,-571,-321,-31,211,-191
22186,3138,0,2023-03-01T18:57:03.972612,2013512,814,1491,1054,-1036,-571,-321,-31,211,-191
22187,3139,0,2023-03-01T18:57:03.977700,2013517,811,1489,1055,-1040,-576,-317,-31,211,-191
22188,3140,0,2023-03-01T18:57:03.983248,2013523,811,1489,1055,-1040,-576,-317,-31,211,-191
22189,3141,0,2023-03-01T18:57:03.989786,2013530,811,1489,1055,-1040,-576,-317,-31,211,-191
22190,3142,0,2023-03-01T18:57:03.994937,2013535,815,1487,1056,-1034,-570,-322,-26,211,-191
22191,3143,0,2023-03-01T18:57:04.000838,2013540,815,1487,1056,-1034,-570,-322,-26,206,-182
22192,3144,0,2023-03-01T18:57:04.006996,2013546,815,1487,1056,-1034,-570,-322,-26,206,-182
22193,3145,0,2023-03-01T18:57:04.011606,2013551,815,1487,1056,-1034,-570,-322,-26,206,-182
22194,3146,0,2023-03-01T18:57:04.016566,2013556,815,1487,1058,-1034,-576,-324,-26,206,-182
22195,3147,0,2023-03-01T18:57:04.022614,2013562,815,1487,1058,-1034,-576,-324,-26,206,-182
22196,3148,0,2023-03-01T18:57:04.028646,2013569,815,1487,1058,-1034,-576,-324,-26,206,-182
22197,3149,0,2023-03-01T18:57:04.033811,2013574,815,1487,1058,-1034,-576,-324,-26,206,-182
22198,3150,0,2023-03-01T18:57:04.038930,2013579,813,1487,1057,-1038,-573,-319,-26,206,-182
22199,3151,0,2023-03-01T18:57:04.044485,2013585,813,1487,1057,-1038,-573,-319,-26,206,-182
22200,3152,0,2023-03-01T18:57:04.050724,2013590,813,1487,1057,-1038,-573,-319,-26,206,-182
22201,3153,0,2023-03-01T18:57:04.055851,2013595,811,1490,1054,-1035,-576,-329,-26,206,-182
22202,3154,0,2023-03-01T18:57:04.061815,2013601,811,1490,1054,-1035,-576,-329,-26,206,-182
22203,3155,0,2023-03-01T18:57:04.066656,2013606,811,1490,1054,-1035,-576,-329,-26,206,-182
22204,3156,0,2023-03-01T18:57:04.071390,2013612,811,1490,1054,-1035,-576,-329,-26,206,-182
22205,3157,0,2023-03-01T18:57:04.076201,2013616,810,1490,1052,-1034,-578,-324,-26,206,-182
22206,3158,0,2023-03-01T18:57:04.081697,2013622,810,1490,1052,-1034,-578,-324,-26,206,-182
22207,3159,0,2023-03-01T18:57:04.086732,2013627,810,1490,1052,-1034,-578,-324,-26,206,-182
22208,3160,0,2023-03-01T18:57:04.091958,2013632,810,1490,1052,-1034,-578,-324,-26,206,-182
22209,3161,0,2023-03-01T18:57:04.096566,2013636,813,1488,1049,-1037,-573,-325,-26,206,-182
22210,3162,0,2023-03-01T18:57:04.102382,2013642,813,1488,1049,-1037,-573,-325,-26,206,-182
22211,3163,0,2023-03-01T18:57:04.108440,2013648,813,1488,1049,-1037,-573,-325,-26,206,-182
22212,3164,0,2023-03-01T18:57:04.113205,2013654,813,1488,1049,-1037,-573,-325,-26,206,-182
22213,3165,0,2023-03-01T18:57:04.118157,2013658,814,1488,1060,-1043,-574,-320,-26,206,-182
22214,3166,0,2023-03-01T18:57:04.124088,2013664,814,1488,1060,-1043,-574,-320,-26,206,-182
22215,3167,0,2023-03-01T18:57:04.129986,2013670,814,1488,1060,-1043,-574,-320,-26,206,-182
22216,3168,0,2023-03-01T18:57:04.134608,2013675,814,1488,1060,-1043,-574,-320,-26,206,-182
22217,3169,0,2023-03-01T18:57:04.139594,2013679,810,1490,1062,-1047,-577,-326,-35,205,-183
22218,3170,0,2023-03-01T18:57:04.146015,2013685,810,1490,1062,-1047,-577,-326,-35,205,-183
22219,3171,0,2023-03-01T18:57:04.152014,2013691,810,1490,1062,-1047,-577,-326,-35,205,-183
22220,3172,0,2023-03-01T18:57:04.156846,2013697,810,1488,1052,-1030,-577,-326,-35,205,-183
22221,3173,0,2023-03-01T18:57:04.162852,2013703,810,1488,1052,-1030,-577,-326,-35,205,-183
22222,3174,0,2023-03-01T18:57:04.169026,2013709,810,1488,1052,-1030,-577,-326,-35,205,-183
22223,3175,0,2023-03-01T18:57:04.173869,2013714,810,1488,1052,-1030,-577,-326,-35,205,-183
22224,3176,0,2023-03-01T18:57:04.178439,2013718,811,1488,1056,-1036,-582,-320,-35,205,-183
22225,3177,0,2023-03-01T18:57:04.184143,2013724,811,1488,1056,-1036,-582,-320,-35,205,-183
22226,3178,0,2023-03-01T18:57:04.190152,2013730,811,1488,1056,-1036,-582,-320,-35,205,-183
22227,3179,0,2023-03-01T18:57:04.194845,2013734,811,1488,1056,-1036,-582,-320,-35,205,-183
22228,3180,0,2023-03-01T18:57:04.200255,2013740,815,1487,1054,-1038,-571,-323,-35,205,-183
22229,3181,0,2023-03-01T18:57:04.205141,2013745,815,1487,1054,-1038,-571,-323,-35,205,-183
22230,3182,0,2023-03-01T18:57:04.211181,2013751,815,1487,1054,-1038,-571,-323,-35,205,-183
22231,3183,0,2023-03-01T18:57:04.216121,2013756,811,1489,1059,-1037,-569,-327,-35,205,-183
22232,3184,0,2023-03-01T18:57:04.221885,2013761,811,1489,1059,-1037,-569,-327,-35,205,-183
22233,3185,0,2023-03-01T18:57:04.226270,2013766,811,1489,1059,-1037,-569,-327,-35,205,-183
22234,3186,0,2023-03-01T18:57:04.231426,2013771,811,1489,1059,-1037,-569,-327,-35,205,-183
22235,3187,0,2023-03-01T18:57:04.236753,2013776,813,1491,1055,-1044,-575,-324,-35,205,-183
22236,3188,0,2023-03-01T18:57:04.242663,2013783,813,1491,1055,-1044,-575,-324,-35,205,-183
22237,3189,0,2023-03-01T18:57:04.249200,2013789,813,1491,1055,-1044,-575,-324,-35,205,-183
22238,3190,0,2023-03-01T18:57:04.254014,2013794,813,1491,1055,-1044,-575,-324,-35,205,-183
22239,3191,0,2023-03-01T18:57:04.260171,2013800,812,1487,1054,-1042,-578,-314,-22,204,-184
22240,3192,0,2023-03-01T18:57:04.266737,2013806,812,1487,1054,-1042,-578,-314,-22,204,-184
22241,3193,0,2023-03-01T18:57:04.272203,2013811,812,1487,1054,-1042,-578,-314,-22,204,-184
22242,3194,0,2023-03-01T18:57:04.277251,2013817,813,1488,1056,-1036,-575,-324,-22,204,-184
22243,3195,0,2023-03-01T18:57:04.282732,2013822,813,1488,1056,-1036,-575,-324,-22,204,-184
22244,3196,0,2023-03-01T18:57:04.289342,2013829,813,1488,1056,-1036,-575,-324,-22,204,-184
22245,3197,0,2023-03-01T18:57:04.294674,2013834,813,1488,1056,-1036,-575,-324,-22,204,-184
22246,3198,0,2023-03-01T18:57:04.299738,2013840,811,1487,1060,-1035,-571,-315,-22,204,-184
22247,3199,0,2023-03-01T18:57:04.305953,2013845,811,1487,1060,-1035,-571,-315,-22,204,-184
22248,3200,0,2023-03-01T18:57:04.311577,2013851,811,1487,1060,-1035,-571,-315,-22,204,-184
22249,3201,0,2023-03-01T18:57:04.316492,2013856,811,1488,1058,-1038,-574,-323,-22,204,-184
22250,3202,0,2023-03-01T18:57:04.321823,2013861,811,1488,1058,-1038,-574,-323,-22,204,-184
22251,3203,0,2023-03-01T18:57:04.328322,2013868,811,1488,1058,-1038,-574,-323,-22,204,-184
22252,3204,0,2023-03-01T18:57:04.333288,2013873,811,1488,1058,-1038,-574,-323,-22,204,-184
22253,3205,0,2023-03-01T18:57:04.338081,2013878,810,1490,1054,-1038,-569,-318,-22,204,-184
22254,3206,0,2023-03-01T18:57:04.343906,2013884,810,1490,1054,-1038,-569,-318,-22,204,-184
22255,3207,0,2023-03-01T18:57:04.349346,2013889,810,1490,1054,-1038,-569,-318,-22,204,-184
22256,3208,0,2023-03-01T18:57:04.355391,2013894,810,1490,1054,-1038,-569,-318,-22,204,-184
22257,3209,0,2023-03-01T18:57:04.360354,2013900,813,1487,1053,-1034,-576,-320,-22,204,-184
22258,3210,0,2023-03-01T18:57:04.367599,2013906,813,1487,1053,-1034,-576,-320,-22,204,-184
22259,3211,0,2023-03-01T18:57:04.373744,2013914,813,1487,1053,-1034,-576,-320,-22,204,-184
22260,3212,0,2023-03-01T18:57:04.378951,2013919,813,1488,1054,-1026,-572,-327,-22,204,-184
22261,3213,0,2023-03-01T18:57:04.385037,2013925,813,1488,1054,-1026,-572,-327,-22,204,-184
22262,3214,0,2023-03-01T18:57:04.391591,2013931,813,1488,1054,-1026,-572,-327,-22,204,-184
22263,3215,0,2023-03-01T18:57:04.396809,2013936,810,1487,1061,-1033,-576,-332,-32,202,-186
22264,3216,0,2023-03-01T18:57:04.402700,2013942,810,1487,1061,-1033,-576,-332,-32,202,-186
22265,3217,0,2023-03-01T18:57:04.408918,2013948,810,1487,1061,-1033,-576,-332,-32,202,-186
22266,3218,0,2023-03-01T18:57:04.413982,2013954,810,1487,1061,-1033,-576,-332,-32,202,-186
22267,3219,0,2023-03-01T18:57:04.419091,2013959,811,1484,1054,-1032,-569,-324,-32,202,-186
22268,3220,0,2023-03-01T18:57:04.425171,2013965,811,1484,1054,-1032,-569,-324,-32,202,-186
22269,3221,0,2023-03-01T18:57:04.431790,2013971,811,1484,1054,-1032,-569,-324,-32,202,-186
22270,3222,0,2023-03-01T18:57:04.436987,2013977,812,1489,1060,-1032,-570,-324,-32,202,-186
22271,3223,0,2023-03-01T18:57:04.442639,2013982,812,1489,1060,-1032,-570,-324,-32,202,-186
22272,3224,0,2023-03-01T18:57:04.448467,2013988,812,1489,1060,-1032,-570,-324,-32,202,-186
22273,3225,0,2023-03-01T18:57:04.453399,2013992,812,1489,1060,-1032,-570,-324,-32,202,-186
22274,3226,0,2023-03-01T18:57:04.458561,2013998,813,1489,1063,-1035,-569,-326,-32,202,-186
22275,3227,0,2023-03-01T18:57:04.464465,2014004,813,1489,1063,-1035,-569,-326,-32,202,-186
22276,3228,0,2023-03-01T18:57:04.470515,2014011,813,1489,1063,-1035,-569,-326,-32,202,-186
22277,3229,0,2023-03-01T18:57:04.476222,2014015,811,1487,1059,-1045,-568,-322,-32,202,-186
22278,3230,0,2023-03-01T18:57:04.482621,2014021,811,1487,1059,-1045,-568,-322,-32,202,-186
22279,3231,0,2023-03-01T18:57:04.489358,2014029,811,1487,1059,-1045,-568,-322,-32,202,-186
22280,3232,0,2023-03-01T18:57:04.495062,2014034,811,1487,1059,-1045,-568,-322,-32,202,-186
22281,3233,0,2023-03-01T18:57:04.500646,2014040,811,1487,1056,-1036,-567,-319,-32,202,-186
22282,3234,0,2023-03-01T18:57:04.507468,2014047,811,1487,1056,-1036,-567,-319,-32,202,-186
22283,3235,0,2023-03-01T18:57:04.512177,2014052,811,1487,1056,-1036,-567,-319,-32,202,-186
22284,3236,0,2023-03-01T18:57:04.516911,2014057,810,1489,1056,-1031,-571,-324,-29,201,-189
22285,3237,0,2023-03-01T18:57:04.522703,2014062,810,1489,1056,-1031,-571,-324,-29,201,-189
22286,3238,0,2023-03-01T18:57:04.527506,2014067,810,1489,1056,-1031,-571,-324,-29,201,-189
22287,3239,0,2023-03-01T18:57:04.532451,2014072,810,1489,1056,-1031,-571,-324,-29,201,-189
22288,3240,0,2023-03-01T18:57:04.537675,2014077,810,1490,1059,-1036,-578,-319,-29,201,-189
22289,3241,0,2023-03-01T18:57:04.543308,2014083,810,1490,1059,-1036,-578,-319,-29,201,-189
22290,3242,0,2023-03-01T18:57:04.549038,2014089,810,1490,1059,-1036,-578,-319,-29,201,-189
22291,3243,0,2023-03-01T18:57:04.554003,2014094,810,1490,1059,-1036,-578,-319,-29,201,-189
22292,3244,0,2023-03-01T18:57:04.558979,2014098,813,1489,1054,-1034,-577,-312,-29,201,-189
22293,3245,0,2023-03-01T18:57:04.564867,2014105,813,1489,1054,-1034,-577,-312,-29,201,-189
22294,3246,0,2023-03-01T18:57:04.571164,2014111,813,1489,1054,-1034,-577,-312,-29,201,-189
22295,3247,0,2023-03-01T18:57:04.576277,2014116,814,1489,1056,-1037,-572,-314,-29,201,-189
22296,3248,0,2023-03-01T18:57:04.581927,2014121,814,1489,1056,-1037,-572,-314,-29,201,-189
22297,3249,0,2023-03-01T18:57:04.587854,2014128,814,1489,1056,-1037,-572,-314,-29,201,-189
22298,3250,0,2023-03-01T18:57:04.593219,2014133,814,1489,1056,-1037,-572,-314,-29,201,-189
22299,3251,0,2023-03-01T18:57:04.598483,2014138,816,1488,1053,-1032,-571,-314,-29,201,-189
22300,3252,0,2023-03-01T18:57:04.604201,2014144,816,1488,1053,-1032,-571,-314,-29,201,-189
22301,3253,0,2023-03-01T18:57:04.609833,2014149,816,1488,1053,-1032,-571,-314,-29,201,-189
22302,3254,0,2023-03-01T18:57:04.615000,2014154,816,1488,1053,-1032,-571,-314,-29,201,-189
22303,3255,0,2023-03-01T18:57:04.620265,2014160,811,1489,1059,-1031,-576,-316,-29,201,-189
22304,3256,0,2023-03-01T18:57:04.626314,2014167,811,1489,1059,-1031,-576,-316,-29,201,-189
22305,3257,0,2023-03-01T18:57:04.631428,2014171,811,1489,1059,-1031,-576,-316,-29,201,-189
22306,3258,0,2023-03-01T18:57:04.636485,2014176,812,1489,1054,-1041,-574,-324,-29,201,-189
22307,3259,0,2023-03-01T18:57:04.641709,2014182,812,1489,1054,-1041,-574,-324,-29,201,-189
22308,3260,0,2023-03-01T18:57:04.648164,2014187,812,1489,1054,-1041,-574,-324,-29,201,-189
22309,3261,0,2023-03-01T18:57:04.653753,2014193,812,1489,1054,-1041,-574,-324,-29,201,-189
22310,3262,0,2023-03-01T18:57:04.658698,2014198,812,1491,1056,-1038,-573,-325,-38,204,-192
22311,3263,0,2023-03-01T18:57:04.663750,2014203,812,1491,1056,-1038,-573,-325,-38,204,-192
22312,3264,0,2023-03-01T18:57:04.670266,2014210,812,1491,1056,-1038,-573,-325,-38,204,-192
22313,3265,0,2023-03-01T18:57:04.675660,2014215,812,1491,1056,-1038,-573,-325,-38,204,-192
22314,3266,0,2023-03-01T18:57:04.680535,2014221,812,1487,1059,-1032,-573,-317,-38,204,-192
22315,3267,0,2023-03-01T18:57:04.686558,2014226,812,1487,1059,-1032,-573,-317,-38,204,-192
22316,3268,0,2023-03-01T18:57:04.691290,2014231,812,1487,1059,-1032,-573,-317,-38,204,-192
22317,3269,0,2023-03-01T18:57:04.696739,2014236,814,1493,1050,-1035,-569,-326,-38,204,-192
22318,3270,0,2023-03-01T18:57:04.703076,2014242,814,1493,1050,-1035,-569,-326,-38,204,-192
22319,3271,0,2023-03-01T18:57:04.709436,2014249,814,1493,1050,-1035,-569,-326,-38,204,-192
22320,3272,0,2023-03-01T18:57:04.714195,2014255,814,1493,1050,-1035,-569,-326,-38,204,-192
22321,3273,0,2023-03-01T18:57:04.719009,2014259,813,1490,1052,-1036,-565,-316,-38,204,-192
22322,3274,0,2023-03-01T18:57:04.724863,2014265,813,1490,1052,-1036,-565,-316,-38,204,-192
22323,3275,0,2023-03-01T18:57:04.731542,2014271,813,1490,1052,-1036,-565,-316,-38,204,-192
22324,3276,0,2023-03-01T18:57:04.736612,2014276,814,1490,1053,-1035,-575,-321,-38,204,-192
22325,3277,0,2023-03-01T18:57:04.742299,2014282,814,1490,1053,-1035,-575,-321,-38,204,-192
22326,3278,0,2023-03-01T18:57:04.748574,2014288,814,1490,1053,-1035,-575,-321,-38,204,-192
22327,3279,0,2023-03-01T18:57:04.753423,2014294,814,1490,1053,-1035,-575,-321,-38,204,-192
22328,3280,0,2023-03-01T18:57:04.758488,2014299,813,1489,1055,-1037,-574,-321,-38,204,-192
22329,3281,0,2023-03-01T18:57:04.763959,2014304,813,1489,1055,-1037,-574,-321,-38,204,-192
22330,3282,0,2023-03-01T18:57:04.770031,2014310,813,1489,1055,-1037,-574,-321,-38,204,-192
22331,3283,0,2023-03-01T18:57:04.774697,2014314,813,1489,1055,-1037,-574,-321,-38,204,-192
22332,3284,0,2023-03-01T18:57:04.779793,2014319,809,1491,1056,-1039,-566,-324,-38,198,-182
22333,3285,0,2023-03-01T18:57:04.786299,2014326,809,1491,1056,-1039,-566,-324,-38,198,-182
22334,3286,0,2023-03-01T18:57:04.791755,2014331,809,1491,1056,-1039,-566,-324,-38,198,-182
22335,3287,0,2023-03-01T18:57:04.796135,2014337,813,1486,1055,-1040,-568,-321,-38,198,-182
22336,3288,0,2023-03-01T18:57:04.801588,2014342,813,1486,1055,-1040,-568,-321,-38,198,-182
22337,3289,0,2023-03-01T18:57:04.807501,2014347,813,1486,1055,-1040,-568,-321,-38,198,-182
22338,3290,0,2023-03-01T18:57:04.815117,2014355,813,1486,1055,-1040,-568,-321,-38,198,-182
22339,3291,0,2023-03-01T18:57:04.820449,2014360,814,1487,1055,-1039,-570,-320,-38,198,-182
22340,3292,0,2023-03-01T18:57:04.826023,2014366,814,1487,1055,-1039,-570,-320,-38,198,-182
22341,3293,0,2023-03-01T18:57:04.831100,2014370,814,1487,1055,-1039,-570,-320,-38,198,-182
22342,3294,0,2023-03-01T18:57:04.836137,2014375,811,1491,1052,-1043,-573,-317,-38,198,-182
22343,3295,0,2023-03-01T18:57:04.842471,2014382,811,1491,1052,-1043,-573,-317,-38,198,-182
22344,3296,0,2023-03-01T18:57:04.848790,2014389,811,1491,1052,-1043,-573,-317,-38,198,-182
22345,3297,0,2023-03-01T18:57:04.853520,2014393,811,1491,1052,-1043,-573,-317,-38,198,-182
22346,3298,0,2023-03-01T18:57:04.858649,2014398,811,1491,1052,-1043,-573,-317,-38,198,-182
22347,3299,0,2023-03-01T18:57:04.864418,2014404,811,1491,1052,-1043,-573,-317,-38,198,-182
22348,3300,0,2023-03-01T18:57:04.870707,2014410,811,1491,1052,-1043,-573,-317,-38,198,-182
22349,3301,0,2023-03-01T18:57:04.875786,2014415,811,1491,1052,-1043,-573,-317,-38,198,-182
22350,3302,0,2023-03-01T18:57:04.881067,2014420,814,1490,1055,-1038,-574,-318,-38,198,-182
22351,3303,0,2023-03-01T18:57:04.888497,2014428,814,1490,1055,-1038,-574,-318,-38,198,-182
22352,3304,0,2023-03-01T18:57:04.893754,2014434,814,1490,1055,-1038,-574,-318,-38,198,-182
22353,3305,0,2023-03-01T18:57:04.899676,2014439,813,1489,1054,-1049,-577,-327,-32,202,-186
22354,3306,0,2023-03-01T18:57:04.906436,2014446,813,1489,1054,-1049,-577,-327,-32,202,-186
22355,3307,0,2023-03-01T18:57:04.911875,2014452,813,1489,1054,-1049,-577,-327,-32,202,-186
22356,3308,0,2023-03-01T18:57:04.916945,2014456,810,1491,1058,-1043,-572,-329,-32,202,-186
22357,3309,0,2023-03-01T18:57:04.923120,2014462,810,1491,1058,-1043,-572,-329,-32,202,-186
22358,3310,0,2023-03-01T18:57:04.929345,2014469,810,1491,1058,-1043,-572,-329,-32,202,-186
22359,3311,0,2023-03-01T18:57:04.934462,2014474,810,1491,1058,-1043,-572,-329,-32,202,-186
22360,3312,0,2023-03-01T18:57:04.939310,2014479,810,1490,1057,-1037,-572,-325,-32,202,-186
22361,3313,0,2023-03-01T18:57:04.945636,2014485,810,1490,1057,-1037,-572,-325,-32,202,-186
22362,3314,0,2023-03-01T18:57:04.951268,2014491,810,1490,1057,-1037,-572,-325,-32,202,-186
22363,3315,0,2023-03-01T18:57:04.956546,2014496,813,1488,1055,-1035,-568,-328,-32,202,-186
22364,3316,0,2023-03-01T18:57:04.962080,2014502,813,1488,1055,-1035,-568,-328,-32,202,-186
22365,3317,0,2023-03-01T18:57:04.966890,2014507,813,1488,1055,-1035,-568,-328,-32,202,-186
22366,3318,0,2023-03-01T18:57:04.971743,2014512,813,1488,1055,-1035,-568,-328,-32,202,-186
22367,3319,0,2023-03-01T18:57:04.976909,2014517,809,1490,1055,-1029,-571,-326,-32,202,-186
22368,3320,0,2023-03-01T18:57:04.982780,2014522,809,1490,1055,-1029,-571,-326,-32,202,-186
22369,3321,0,2023-03-01T18:57:04.989178,2014529,809,1490,1055,-1029,-571,-326,-32,202,-186
22370,3322,0,2023-03-01T18:57:04.994091,2014534,809,1490,1055,-1029,-571,-326,-32,202,-186
22371,3323,0,2023-03-01T18:57:04.999140,2014539,813,1489,1059,-1032,-571,-323,-32,202,-186
22372,3324,0,2023-03-01T18:57:05.004658,2014544,813,1489,1059,-1032,-571,-323,-32,202,-186
22373,3325,0,2023-03-01T18:57:05.010056,2014550,813,1489,1059,-1032,-571,-323,-32,202,-186
22374,3326,0,2023-03-01T18:57:05.015218,2014555,813,1489,1059,-1032,-571,-323,-32,202,-186
22375,3327,0,2023-03-01T18:57:05.020155,2014560,814,1491,1054,-1038,-564,-318,-32,202,-186
22376,3328,0,2023-03-01T18:57:05.026857,2014566,814,1491,1054,-1038,-564,-318,-32,202,-186
22377,3329,0,2023-03-01T18:57:05.032679,2014572,814,1491,1054,-1038,-564,-318,-32,202,-186
22378,3330,0,2023-03-01T18:57:05.037700,2014577,814,1488,1052,-1035,-572,-321,-44,206,-182
22379,3331,0,2023-03-01T18:57:05.043390,2014583,814,1488,1052,-1035,-572,-321,-44,206,-182
22380,3332,0,2023-03-01T18:57:05.049169,2014589,814,1488,1052,-1035,-572,-321,-44,206,-182
22381,3333,0,2023-03-01T18:57:05.054172,2014594,814,1488,1052,-1035,-572,-321,-44,206,-182
22382,3334,0,2023-03-01T18:57:05.059114,2014599,813,1489,1058,-1031,-571,-322,-44,206,-182
22383,3335,0,2023-03-01T18:57:05.064903,2014605,813,1489,1058,-1031,-571,-322,-44,206,-182
22384,3336,0,2023-03-01T18:57:05.070730,2014611,813,1489,1058,-1031,-571,-322,-44,206,-182
22385,3337,0,2023-03-01T18:57:05.075646,2014615,813,1489,1058,-1031,-571,-322,-44,206,-182
22386,3338,0,2023-03-01T18:57:05.080722,2014620,809,1488,1055,-1039,-569,-324,-44,206,-182
22387,3339,0,2023-03-01T18:57:05.086747,2014626,809,1488,1055,-1039,-569,-324,-44,206,-182
22388,3340,0,2023-03-01T18:57:05.092784,2014632,809,1488,1055,-1039,-569,-324,-44,206,-182
22389,3341,0,2023-03-01T18:57:05.097946,2014638,812,1487,1059,-1037,-569,-319,-44,206,-182
22390,3342,0,2023-03-01T18:57:05.103360,2014643,812,1487,1059,-1037,-569,-319,-44,206,-182
22391,3343,0,2023-03-01T18:57:05.109108,2014649,812,1487,1059,-1037,-569,-319,-44,206,-182
22392,3344,0,2023-03-01T18:57:05.114405,2014654,812,1487,1059,-1037,-569,-319,-44,206,-182
22393,3345,0,2023-03-01T18:57:05.119245,2014659,808,1488,1056,-1032,-576,-321,-44,206,-182
22394,3346,0,2023-03-01T18:57:05.125211,2014665,808,1488,1056,-1032,-576,-321,-44,206,-182
22395,3347,0,2023-03-01T18:57:05.130709,2014670,808,1488,1056,-1032,-576,-321,-44,206,-182
22396,3348,0,2023-03-01T18:57:05.135680,2014675,808,1488,1056,-1032,-576,-321,-44,206,-182
22397,3349,0,2023-03-01T18:57:05.140618,2014681,809,1489,1054,-1044,-571,-327,-44,206,-182
22398,3350,0,2023-03-01T18:57:05.146834,2014687,809,1489,1054,-1044,-571,-327,-44,206,-182
22399,3351,0,2023-03-01T18:57:05.152778,2014693,809,1489,1054,-1044,-571,-327,-44,206,-182
22400,3352,0,2023-03-01T18:57:05.157723,2014698,814,1488,1054,-1042,-575,-331,-35,209,-191
22401,3353,0,2023-03-01T18:57:05.162890,2014703,814,1488,1054,-1042,-575,-331,-35,209,-191
22402,3354,0,2023-03-01T18:57:05.168621,2014708,814,1488,1054,-1042,-575,-331,-35,209,-191
22403,3355,0,2023-03-01T18:57:05.174018,2014713,814,1488,1054,-1042,-575,-331,-35,209,-191
22404,3356,0,2023-03-01T18:57:05.178813,2014718,812,1489,1059,-1034,-576,-320,-35,209,-191
22405,3357,0,2023-03-01T18:57:05.184430,2014725,812,1489,1059,-1034,-576,-320,-35,209,-191
22406,3358,0,2023-03-01T18:57:05.190604,2014731,812,1489,1059,-1034,-576,-320,-35,209,-191
22407,3359,0,2023-03-01T18:57:05.195737,2014735,812,1489,1059,-1034,-576,-320,-35,209,-191
22408,3360,0,2023-03-01T18:57:05.201197,2014741,810,1491,1053,-1030,-578,-316,-35,209,-191
22409,3361,0,2023-03-01T18:57:05.206943,2014747,810,1491,1053,-1030,-578,-316,-35,209,-191
22410,3362,0,2023-03-01T18:57:05.212286,2014752,810,1491,1053,-1030,-578,-316,-35,209,-191
22411,3363,0,2023-03-01T18:57:05.217116,2014757,814,1486,1054,-1043,-577,-323,-35,209,-191
22412,3364,0,2023-03-01T18:57:05.222526,2014763,814,1486,1054,-1043,-577,-323,-35,209,-191
22413,3365,0,2023-03-01T18:57:05.227913,2014768,814,1486,1054,-1043,-577,-323,-35,209,-191
22414,3366,0,2023-03-01T18:57:05.233204,2014773,814,1486,1054,-1043,-577,-323,-35,209,-191
22415,3367,0,2023-03-01T18:57:05.238689,2014778,811,1491,1053,-1049,-568,-328,-35,209,-191
22416,3368,0,2023-03-01T18:57:05.246124,2014786,811,1491,1053,-1049,-568,-328,-35,209,-191
22417,3369,0,2023-03-01T18:57:05.252442,2014792,811,1491,1053,-1049,-568,-328,-35,209,-191
22418,3370,0,2023-03-01T18:57:05.257397,2014797,812,1489,1049,-1048,-575,-329,-35,209,-191
22419,3371,0,2023-03-01T18:57:05.262628,2014802,812,1489,1049,-1048,-575,-329,-35,209,-191
22420,3372,0,2023-03-01T18:57:05.268333,2014809,812,1489,1049,-1048,-575,-329,-35,209,-191
22421,3373,0,2023-03-01T18:57:05.273505,2014814,812,1489,1049,-1048,-575,-329,-35,209,-191
22422,3374,0,2023-03-01T18:57:05.278796,2014819,810,1488,1057,-1040,-575,-311,-35,209,-191
22423,3375,0,2023-03-01T18:57:05.284568,2014824,810,1488,1057,-1040,-575,-311,-35,209,-191
22424,3376,0,2023-03-01T18:57:05.290951,2014831,810,1488,1057,-1040,-575,-311,-35,209,-191
22425,3377,0,2023-03-01T18:57:05.295718,2014835,810,1488,1057,-1040,-575,-311,-35,209,-191
22426,3378,0,2023-03-01T18:57:05.300996,2014840,811,1488,1057,-1039,-576,-324,-35,207,-183
22427,3379,0,2023-03-01T18:57:05.306800,2014846,811,1488,1057,-1039,-576,-324,-35,207,-183
22428,3380,0,2023-03-01T18:57:05.312439,2014853,811,1488,1057,-1039,-576,-324,-35,207,-183
22429,3381,0,2023-03-01T18:57:05.317480,2014857,813,1491,1060,-1048,-586,-320,-35,207,-183
22430,3382,0,2023-03-01T18:57:05.323299,2014863,813,1491,1060,-1048,-586,-320,-35,207,-183
22431,3383,0,2023-03-01T18:57:05.329495,2014869,813,1491,1060,-1048,-586,-320,-35,207,-183
22432,3384,0,2023-03-01T18:57:05.334416,2014874,813,1491,1060,-1048,-586,-320,-35,207,-183
22433,3385,0,2023-03-01T18:57:05.339431,2014879,815,1486,1055,-1040,-571,-321,-35,207,-183
22434,3386,0,2023-03-01T18:57:05.345158,2014884,815,1486,1055,-1040,-571,-321,-35,207,-183
22435,3387,0,2023-03-01T18:57:05.350418,2014891,815,1486,1055,-1040,-571,-321,-35,207,-183
22436,3388,0,2023-03-01T18:57:05.355835,2014896,815,1486,1055,-1040,-571,-321,-35,207,-183
22437,3389,0,2023-03-01T18:57:05.361502,2014901,813,1489,1054,-1037,-572,-317,-35,207,-183
22438,3390,0,2023-03-01T18:57:05.368589,2014908,813,1489,1054,-1037,-572,-317,-35,207,-183
22439,3391,0,2023-03-01T18:57:05.374259,2014914,813,1489,1054,-1037,-572,-317,-35,207,-183
22440,3392,0,2023-03-01T18:57:05.378856,2014919,811,1491,1051,-1040,-574,-319,-35,207,-183
22441,3393,0,2023-03-01T18:57:05.384701,2014924,811,1491,1051,-1040,-574,-319,-35,207,-183
22442,3394,0,2023-03-01T18:57:05.390935,2014930,811,1491,1051,-1040,-574,-319,-35,207,-183
22443,3395,0,2023-03-01T18:57:05.396127,2014936,811,1491,1051,-1040,-574,-319,-35,207,-183
22444,3396,0,2023-03-01T18:57:05.401160,2014941,813,1489,1055,-1037,-572,-322,-35,207,-183
22445,3397,0,2023-03-01T18:57:05.407429,2014947,813,1489,1055,-1037,-572,-322,-35,207,-183
22446,3398,0,2023-03-01T18:57:05.412258,2014952,813,1489,1055,-1037,-572,-322,-35,207,-183
22447,3399,0,2023-03-01T18:57:05.417498,2014957,812,1489,1054,-1039,-569,-317,-39,209,-187
22448,3400,0,2023-03-01T18:57:05.424083,2014963,812,1489,1054,-1039,-569,-317,-39,209,-187
22449,3401,0,2023-03-01T18:57:05.430708,2014970,812,1489,1054,-1039,-569,-317,-39,209,-187
22450,3402,0,2023-03-01T18:57:05.435306,2014976,812,1489,1054,-1039,-569,-317,-39,209,-187
22451,3403,0,2023-03-01T18:57:05.440180,2014980,812,1487,1057,-1044,-576,-317,-39,209,-187
22452,3404,0,2023-03-01T18:57:05.446651,2014987,812,1487,1057,-1044,-576,-317,-39,209,-187
22453,3405,0,2023-03-01T18:57:05.452340,2014992,812,1487,1057,-1044,-576,-317,-39,209,-187
22454,3406,0,2023-03-01T18:57:05.457872,2014997,814,1486,1054,-1031,-575,-316,-39,209,-187
22455,3407,0,2023-03-01T18:57:05.464429,2015004,814,1486,1054,-1031,-575,-316,-39,209,-187
22456,3408,0,2023-03-01T18:57:05.471217,2015011,814,1486,1054,-1031,-575,-316,-39,209,-187
22457,3409,0,2023-03-01T18:57:05.477855,2015017,814,1490,1057,-1036,-574,-324,-39,209,-187
22458,3410,0,2023-03-01T18:57:05.483711,2015024,814,1490,1057,-1036,-574,-324,-39,209,-187
22459,3411,0,2023-03-01T18:57:05.489853,2015030,814,1490,1057,-1036,-574,-324,-39,209,-187
22460,3412,0,2023-03-01T18:57:05.494724,2015035,814,1490,1057,-1036,-574,-324,-39,209,-187
22461,3413,0,2023-03-01T18:57:05.499469,2015039,812,1487,1054,-1041,-581,-324,-39,209,-187
22462,3414,0,2023-03-01T18:57:05.505703,2015045,812,1487,1054,-1041,-581,-324,-39,209,-187
22463,3415,0,2023-03-01T18:57:05.512664,2015052,812,1487,1054,-1041,-581,-324,-39,209,-187
22464,3416,0,2023-03-01T18:57:05.517760,2015057,813,1490,1055,-1033,-579,-322,-39,209,-187
22465,3417,0,2023-03-01T18:57:05.523878,2015064,813,1490,1055,-1033,-579,-322,-39,209,-187
22466,3418,0,2023-03-01T18:57:05.531134,2015071,813,1490,1055,-1033,-579,-322,-39,209,-187
22467,3419,0,2023-03-01T18:57:05.535898,2015076,813,1490,1055,-1033,-579,-322,-39,209,-187
22468,3420,0,2023-03-01T18:57:05.540973,2015081,812,1489,1054,-1035,-571,-323,-39,209,-187
22469,3421,0,2023-03-01T18:57:05.547347,2015087,812,1489,1054,-1035,-571,-323,-39,209,-187
22470,3422,0,2023-03-01T18:57:05.553029,2015093,812,1489,1054,-1035,-571,-323,-39,209,-187
22471,3423,0,2023-03-01T18:57:05.558779,2015098,813,1490,1053,-1030,-577,-331,-26,204,-188
22472,3424,0,2023-03-01T18:57:05.565187,2015105,813,1490,1053,-1030,-577,-331,-26,204,-188
22473,3425,0,2023-03-01T18:57:05.573236,2015113,813,1490,1053,-1030,-577,-331,-26,204,-188
22474,3426,0,2023-03-01T18:57:05.578115,2015118,814,1490,1054,-1040,-579,-325,-26,204,-188
22475,3427,0,2023-03-01T18:57:05.583869,2015124,814,1490,1054,-1040,-579,-325,-26,204,-188
22476,3428,0,2023-03-01T18:57:05.589695,2015129,814,1490,1054,-1040,-579,-325,-26,204,-188
22477,3429,0,2023-03-01T18:57:05.594283,2015134,814,1490,1054,-1040,-579,-325,-26,204,-188
22478,3430,0,2023-03-01T18:57:05.599268,2015139,814,1488,1056,-1046,-575,-321,-26,204,-188
22479,3431,0,2023-03-01T18:57:05.604512,2015144,814,1488,1056,-1046,-575,-321,-26,204,-188
22480,3432,0,2023-03-01T18:57:05.610639,2015151,814,1488,1056,-1046,-575,-321,-26,204,-188
22481,3433,0,2023-03-01T18:57:05.616132,2015156,814,1488,1056,-1046,-575,-321,-26,204,-188
22482,3434,0,2023-03-01T18:57:05.621492,2015161,811,1490,1053,-1044,-570,-323,-26,204,-188
22483,3435,0,2023-03-01T18:57:05.627714,2015168,811,1490,1053,-1044,-570,-323,-26,204,-188
22484,3436,0,2023-03-01T18:57:05.633386,2015173,811,1490,1053,-1044,-570,-323,-26,204,-188
22485,3437,0,2023-03-01T18:57:05.638882,2015178,813,1488,1055,-1037,-570,-320,-26,204,-188
22486,3438,0,2023-03-01T18:57:05.644858,2015184,813,1488,1055,-1037,-570,-320,-26,204,-188
22487,3439,0,2023-03-01T18:57:05.650566,2015191,813,1488,1055,-1037,-570,-320,-26,204,-188
22488,3440,0,2023-03-01T18:57:05.655329,2015196,813,1488,1055,-1037,-570,-320,-26,204,-188
22489,3441,0,2023-03-01T18:57:05.660118,2015200,810,1489,1054,-1041,-575,-324,-26,204,-188
22490,3442,0,2023-03-01T18:57:05.665816,2015206,810,1489,1054,-1041,-575,-324,-26,204,-188
22491,3443,0,2023-03-01T18:57:05.671113,2015211,810,1489,1054,-1041,-575,-324,-26,204,-188
22492,3444,0,2023-03-01T18:57:05.676714,2015216,810,1489,1054,-1041,-575,-324,-26,204,-188
22493,3445,0,2023-03-01T18:57:05.682361,2015222,811,1489,1058,-1038,-578,-319,-26,200,-184
22494,3446,0,2023-03-01T18:57:05.688177,2015228,811,1489,1058,-1038,-578,-319,-26,200,-184
22495,3447,0,2023-03-01T18:57:05.693409,2015234,811,1489,1058,-1038,-578,-319,-26,200,-184
22496,3448,0,2023-03-01T18:57:05.698833,2015239,811,1488,1056,-1030,-575,-320,-26,200,-184
22497,3449,0,2023-03-01T18:57:05.704660,2015245,811,1488,1056,-1030,-575,-320,-26,200,-184
22498,3450,0,2023-03-01T18:57:05.710761,2015251,811,1488,1056,-1030,-575,-320,-26,200,-184
22499,3451,0,2023-03-01T18:57:05.715335,2015255,811,1488,1056,-1030,-575,-320,-26,200,-184
22500,3452,0,2023-03-01T18:57:05.720381,2015260,812,1487,1051,-1030,-572,-314,-26,200,-184
22501,3453,0,2023-03-01T18:57:05.726528,2015266,812,1487,1051,-1030,-572,-314,-26,200,-184
22502,3454,0,2023-03-01T18:57:05.731754,2015271,812,1487,1051,-1030,-572,-314,-26,200,-184
22503,3455,0,2023-03-01T18:57:05.736869,2015277,812,1489,1052,-1036,-575,-318,-26,200,-184
22504,3456,0,2023-03-01T18:57:05.742810,2015283,812,1489,1052,-1036,-575,-318,-26,200,-184
22505,3457,0,2023-03-01T18:57:05.747767,2015288,812,1489,1052,-1036,-575,-318,-26,200,-184
22506,3458,0,2023-03-01T18:57:05.752902,2015293,812,1489,1052,-1036,-575,-318,-26,200,-184
22507,3459,0,2023-03-01T18:57:05.757967,2015297,812,1489,1052,-1036,-575,-318,-26,200,-184
22508,3460,0,2023-03-01T18:57:05.762676,2015302,812,1489,1052,-1036,-575,-318,-26,200,-184
22509,3461,0,2023-03-01T18:57:05.768243,2015308,812,1489,1052,-1036,-575,-318,-26,200,-184
22510,3462,0,2023-03-01T18:57:05.773560,2015313,812,1489,1052,-1036,-575,-318,-26,200,-184
22511,3463,0,2023-03-01T18:57:05.779091,2015319,816,1491,1055,-1035,-573,-323,-26,200,-184
22512,3464,0,2023-03-01T18:57:05.785453,2015325,816,1491,1055,-1035,-573,-323,-26,200,-184
22513,3465,0,2023-03-01T18:57:05.792697,2015332,816,1491,1055,-1035,-573,-323,-26,200,-184
22514,3466,0,2023-03-01T18:57:05.797333,2015337,812,1489,1051,-1035,-574,-326,-29,205,-193
22515,3467,0,2023-03-01T18:57:05.802445,2015342,812,1489,1051,-1035,-574,-326,-29,205,-193
22516,3468,0,2023-03-01T18:57:05.807732,2015347,812,1489,1051,-1035,-574,-326,-29,205,-193
22517,3469,0,2023-03-01T18:57:05.812688,2015352,812,1489,1051,-1035,-574,-326,-29,205,-193
22518,3470,0,2023-03-01T18:57:05.817311,2015357,808,1488,1057,-1041,-573,-329,-29,205,-193
22519,3471,0,2023-03-01T18:57:05.822897,2015363,808,1488,1057,-1041,-573,-329,-29,205,-193
22520,3472,0,2023-03-01T18:57:05.828857,2015369,808,1488,1057,-1041,-573,-329,-29,205,-193
22521,3473,0,2023-03-01T18:57:05.833698,2015374,808,1488,1057,-1041,-573,-329,-29,205,-193
22522,3474,0,2023-03-01T18:57:05.838637,2015378,814,1489,1053,-1038,-571,-327,-29,205,-193
22523,3475,0,2023-03-01T18:57:05.844340,2015384,814,1489,1053,-1038,-571,-327,-29,205,-193
22524,3476,0,2023-03-01T18:57:05.851383,2015390,814,1489,1053,-1038,-571,-327,-29,205,-193
22525,3477,0,2023-03-01T18:57:05.856327,2015395,814,1489,1053,-1038,-571,-327,-29,205,-193
22526,3478,0,2023-03-01T18:57:05.861605,2015400,813,1487,1055,-1035,-577,-321,-29,205,-193
22527,3479,0,2023-03-01T18:57:05.866629,2015407,813,1487,1055,-1035,-577,-321,-29,205,-193
22528,3480,0,2023-03-01T18:57:05.872146,2015412,813,1487,1055,-1035,-577,-321,-29,205,-193
22529,3481,0,2023-03-01T18:57:05.877721,2015417,811,1487,1058,-1035,-575,-318,-29,205,-193
22530,3482,0,2023-03-01T18:57:05.883667,2015423,811,1487,1058,-1035,-575,-318,-29,205,-193
22531,3483,0,2023-03-01T18:57:05.890005,2015430,811,1487,1058,-1035,-575,-318,-29,205,-193
22532,3484,0,2023-03-01T18:57:05.895144,2015434,811,1487,1058,-1035,-575,-318,-29,205,-193
22533,3485,0,2023-03-01T18:57:05.900916,2015440,811,1489,1055,-1038,-572,-316,-29,205,-193
22534,3486,0,2023-03-01T18:57:05.907227,2015447,811,1489,1055,-1038,-572,-316,-29,205,-193
22535,3487,0,2023-03-01T18:57:05.913193,2015453,811,1489,1055,-1038,-572,-316,-29,205,-193
22536,3488,0,2023-03-01T18:57:05.918728,2015458,812,1491,1048,-1029,-578,-323,-29,205,-193
22537,3489,0,2023-03-01T18:57:05.924455,2015464,812,1491,1048,-1029,-578,-323,-29,205,-193
22538,3490,0,2023-03-01T18:57:05.929660,2015469,812,1491,1048,-1029,-578,-323,-29,205,-193
22539,3491,0,2023-03-01T18:57:05.934844,2015474,812,1491,1048,-1029,-578,-323,-29,205,-193
22540,3492,0,2023-03-01T18:57:05.940026,2015479,813,1487,1055,-1034,-574,-322,-33,209,-185
22541,3493,0,2023-03-01T18:57:05.946281,2015485,813,1487,1055,-1034,-574,-322,-33,209,-185
22542,3494,0,2023-03-01T18:57:05.951213,2015491,813,1487,1055,-1034,-574,-322,-33,209,-185
22543,3495,0,2023-03-01T18:57:05.956358,2015496,813,1487,1055,-1034,-574,-322,-33,209,-185
22544,3496,0,2023-03-01T18:57:05.961358,2015501,813,1487,1052,-1035,-571,-324,-33,209,-185
22545,3497,0,2023-03-01T18:57:05.967643,2015507,813,1487,1052,-1035,-571,-324,-33,209,-185
22546,3498,0,2023-03-01T18:57:05.972496,2015512,813,1487,1052,-1035,-571,-324,-33,209,-185
22547,3499,0,2023-03-01T18:57:05.978026,2015517,810,1488,1050,-1039,-570,-323,-33,209,-185
22548,3500,0,2023-03-01T18:57:05.983926,2015523,810,1488,1050,-1039,-570,-323,-33,209,-185
22549,3501,0,2023-03-01T18:57:05.989720,2015529,810,1488,1050,-1039,-570,-323,-33,209,-185
22550,3502,0,2023-03-01T18:57:05.994565,2015535,810,1488,1050,-1039,-570,-323,-33,209,-185
22551,3503,0,2023-03-01T18:57:05.999373,2015539,813,1490,1053,-1028,-569,-323,-33,209,-185
22552,3504,0,2023-03-01T18:57:06.006417,2015546,813,1490,1053,-1028,-569,-323,-33,209,-185
22553,3505,0,2023-03-01T18:57:06.013223,2015553,813,1490,1053,-1028,-569,-323,-33,209,-185
22554,3506,0,2023-03-01T18:57:06.018392,2015558,813,1492,1056,-1036,-572,-321,-33,209,-185
22555,3507,0,2023-03-01T18:57:06.023870,2015563,813,1492,1056,-1036,-572,-321,-33,209,-185
22556,3508,0,2023-03-01T18:57:06.030229,2015569,813,1492,1056,-1036,-572,-321,-33,209,-185
22557,3509,0,2023-03-01T18:57:06.035620,2015576,813,1492,1056,-1036,-572,-321,-33,209,-185
22558,3510,0,2023-03-01T18:57:06.040426,2015581,816,1489,1060,-1036,-569,-324,-33,209,-185
22559,3511,0,2023-03-01T18:57:06.046408,2015587,816,1489,1060,-1036,-569,-324,-33,209,-185
22560,3512,0,2023-03-01T18:57:06.051726,2015591,816,1489,1060,-1036,-569,-324,-33,209,-185
22561,3513,0,2023-03-01T18:57:06.056634,2015596,816,1489,1060,-1036,-569,-324,-33,209,-185
22562,3514,0,2023-03-01T18:57:06.061663,2015601,810,1488,1061,-1029,-569,-327,-40,208,-194
22563,3515,0,2023-03-01T18:57:06.067995,2015607,810,1488,1061,-1029,-569,-327,-40,208,-194
22564,3516,0,2023-03-01T18:57:06.072769,2015612,810,1488,1061,-1029,-569,-327,-40,208,-194
22565,3517,0,2023-03-01T18:57:06.077902,2015618,812,1489,1050,-1027,-576,-318,-40,208,-194
22566,3518,0,2023-03-01T18:57:06.083602,2015624,812,1489,1050,-1027,-576,-318,-40,208,-194
22567,3519,0,2023-03-01T18:57:06.089737,2015630,812,1489,1050,-1027,-576,-318,-40,208,-194
22568,3520,0,2023-03-01T18:57:06.094989,2015635,812,1489,1050,-1027,-576,-318,-40,208,-194
22569,3521,0,2023-03-01T18:57:06.099650,2015640,811,1489,1060,-1037,-569,-319,-40,208,-194
22570,3522,0,2023-03-01T18:57:06.105676,2015645,811,1489,1060,-1037,-569,-319,-40,208,-194
22571,3523,0,2023-03-01T18:57:06.111143,2015651,811,1489,1060,-1037,-569,-319,-40,208,-194
22572,3524,0,2023-03-01T18:57:06.116717,2015655,811,1489,1060,-1037,-569,-319,-40,208,-194
22573,3525,0,2023-03-01T18:57:06.122336,2015662,813,1491,1056,-1037,-577,-330,-40,208,-194
22574,3526,0,2023-03-01T18:57:06.129462,2015669,813,1491,1056,-1037,-577,-330,-40,208,-194
22575,3527,0,2023-03-01T18:57:06.134887,2015675,813,1491,1056,-1037,-577,-330,-40,208,-194
22576,3528,0,2023-03-01T18:57:06.140225,2015680,815,1490,1052,-1026,-576,-327,-40,208,-194
22577,3529,0,2023-03-01T18:57:06.146877,2015686,815,1490,1052,-1026,-576,-327,-40,208,-194
22578,3530,0,2023-03-01T18:57:06.153144,2015692,815,1490,1052,-1026,-576,-327,-40,208,-194
22579,3531,0,2023-03-01T18:57:06.158413,2015698,810,1487,1057,-1036,-567,-324,-40,208,-194
22580,3532,0,2023-03-01T18:57:06.164450,2015704,810,1487,1057,-1036,-567,-324,-40,208,-194
22581,3533,0,2023-03-01T18:57:06.170455,2015710,810,1487,1057,-1036,-567,-324,-40,208,-194
22582,3534,0,2023-03-01T18:57:06.176091,2015716,810,1487,1057,-1036,-567,-324,-40,208,-194
22583,3535,0,2023-03-01T18:57:06.181292,2015721,810,1486,1059,-1032,-577,-322,-40,208,-194
22584,3536,0,2023-03-01T18:57:06.188392,2015727,810,1486,1059,-1032,-577,-322,-40,208,-194
22585,3537,0,2023-03-01T18:57:06.195210,2015734,810,1486,1059,-1032,-577,-322,-40,208,-194
22586,3538,0,2023-03-01T18:57:06.200915,2015740,812,1490,1062,-1043,-577,-322,-32,212,-190
22587,3539,0,2023-03-01T18:57:06.207648,2015748,812,1490,1062,-1043,-577,-322,-32,212,-190
22588,3540,0,2023-03-01T18:57:06.213611,2015754,812,1490,1062,-1043,-577,-322,-32,212,-190
22589,3541,0,2023-03-01T18:57:06.218695,2015758,812,1488,1054,-1038,-569,-321,-32,212,-190
22590,3542,0,2023-03-01T18:57:06.224292,2015764,812,1488,1054,-1038,-569,-321,-32,212,-190
22591,3543,0,2023-03-01T18:57:06.231669,2015771,812,1488,1054,-1038,-569,-321,-32,212,-190
22592,3544,0,2023-03-01T18:57:06.236977,2015776,812,1488,1054,-1038,-569,-321,-32,212,-190
22593,3545,0,2023-03-01T18:57:06.241773,2015781,812,1490,1052,-1034,-574,-323,-32,212,-190
22594,3546,0,2023-03-01T18:57:06.247915,2015788,812,1490,1052,-1034,-574,-323,-32,212,-190
22595,3547,0,2023-03-01T18:57:06.253043,2015793,812,1490,1052,-1034,-574,-323,-32,212,-190
22596,3548,0,2023-03-01T18:57:06.258377,2015798,811,1491,1056,-1034,-581,-332,-32,212,-190
22597,3549,0,2023-03-01T18:57:06.263909,2015804,811,1491,1056,-1034,-581,-332,-32,212,-190
22598,3550,0,2023-03-01T18:57:06.270189,2015810,811,1491,1056,-1034,-581,-332,-32,212,-190
22599,3551,0,2023-03-01T18:57:06.275775,2015815,811,1491,1056,-1034,-581,-332,-32,212,-190
22600,3552,0,2023-03-01T18:57:06.281519,2015821,810,1491,1055,-1033,-571,-325,-32,212,-190
22601,3553,0,2023-03-01T18:57:06.287508,2015827,810,1491,1055,-1033,-571,-325,-32,212,-190
22602,3554,0,2023-03-01T18:57:06.292975,2015833,810,1491,1055,-1033,-571,-325,-32,212,-190
22603,3555,0,2023-03-01T18:57:06.298011,2015838,811,1490,1058,-1043,-569,-323,-32,212,-190
22604,3556,0,2023-03-01T18:57:06.303713,2015844,811,1490,1058,-1043,-569,-323,-32,212,-190
22605,3557,0,2023-03-01T18:57:06.309952,2015850,811,1490,1058,-1043,-569,-323,-32,212,-190
22606,3558,0,2023-03-01T18:57:06.315257,2015855,811,1490,1058,-1043,-569,-323,-32,212,-190
22607,3559,0,2023-03-01T18:57:06.320219,2015860,811,1490,1058,-1043,-569,-323,-33,201,-191
22608,3560,0,2023-03-01T18:57:06.325739,2015865,811,1490,1058,-1043,-569,-323,-33,201,-191
22609,3561,0,2023-03-01T18:57:06.332097,2015872,811,1490,1058,-1043,-569,-323,-33,201,-191
22610,3562,0,2023-03-01T18:57:06.338167,2015878,810,1493,1054,-1041,-575,-319,-33,201,-191
22611,3563,0,2023-03-01T18:57:06.343998,2015884,810,1493,1054,-1041,-575,-319,-33,201,-191
22612,3564,0,2023-03-01T18:57:06.349690,2015890,810,1493,1054,-1041,-575,-319,-33,201,-191
22613,3565,0,2023-03-01T18:57:06.354651,2015894,810,1493,1054,-1041,-575,-319,-33,201,-191
22614,3566,0,2023-03-01T18:57:06.359394,2015899,809,1489,1053,-1036,-574,-323,-33,201,-191
22615,3567,0,2023-03-01T18:57:06.365920,2015905,809,1489,1053,-1036,-574,-323,-33,201,-191
22616,3568,0,2023-03-01T18:57:06.371108,2015911,809,1489,1053,-1036,-574,-323,-33,201,-191
22617,3569,0,2023-03-01T18:57:06.375986,2015916,809,1489,1053,-1036,-574,-323,-33,201,-191
22618,3570,0,2023-03-01T18:57:06.381634,2015922,815,1491,1052,-1040,-571,-322,-33,201,-191
22619,3571,0,2023-03-01T18:57:06.388188,2015928,815,1491,1052,-1040,-571,-322,-33,201,-191
22620,3572,0,2023-03-01T18:57:06.394022,2015934,815,1491,1052,-1040,-571,-322,-33,201,-191
22621,3573,0,2023-03-01T18:57:06.399161,2015939,811,1488,1056,-1043,-571,-313,-33,201,-191
22622,3574,0,2023-03-01T18:57:06.404954,2015944,811,1488,1056,-1043,-571,-313,-33,201,-191
22623,3575,0,2023-03-01T18:57:06.411487,2015951,811,1488,1056,-1043,-571,-313,-33,201,-191
22624,3576,0,2023-03-01T18:57:06.417302,2015956,811,1488,1056,-1043,-571,-313,-33,201,-191
22625,3577,0,2023-03-01T18:57:06.422368,2015963,812,1492,1056,-1032,-572,-325,-33,201,-191
22626,3578,0,2023-03-01T18:57:06.428741,2015968,812,1492,1056,-1032,-572,-325,-33,201,-191
22627,3579,0,2023-03-01T18:57:06.433590,2015973,812,1492,1056,-1032,-572,-325,-33,201,-191
22628,3580,0,2023-03-01T18:57:06.439685,2015979,812,1489,1044,-1036,-563,-323,-35,199,-189
22629,3581,0,2023-03-01T18:57:06.447025,2015986,812,1489,1044,-1036,-563,-323,-35,199,-189
22630,3582,0,2023-03-01T18:57:06.453021,2015993,812,1489,1044,-1036,-563,-323,-35,199,-189
22631,3583,0,2023-03-01T18:57:06.458159,2015997,808,1490,1058,-1035,-567,-324,-35,199,-189
22632,3584,0,2023-03-01T18:57:06.463692,2016004,808,1490,1058,-1035,-567,-324,-35,199,-189
22633,3585,0,2023-03-01T18:57:06.469633,2016009,808,1490,1058,-1035,-567,-324,-35,199,-189
22634,3586,0,2023-03-01T18:57:06.475187,2016015,808,1490,1058,-1035,-567,-324,-35,199,-189
22635,3587,0,2023-03-01T18:57:06.480867,2016020,812,1488,1059,-1031,-567,-326,-35,199,-189
22636,3588,0,2023-03-01T18:57:06.487274,2016027,812,1488,1059,-1031,-567,-326,-35,199,-189
22637,3589,0,2023-03-01T18:57:06.492345,2016032,812,1488,1059,-1031,-567,-326,-35,199,-189
22638,3590,0,2023-03-01T18:57:06.497521,2016037,812,1488,1059,-1031,-567,-326,-35,199,-189
22639,3591,0,2023-03-01T18:57:06.502980,2016043,811,1490,1054,-1031,-571,-324,-35,199,-189
22640,3592,0,2023-03-01T18:57:06.509948,2016050,811,1490,1054,-1031,-571,-324,-35,199,-189
22641,3593,0,2023-03-01T18:57:06.514685,2016055,811,1490,1054,-1031,-571,-324,-35,199,-189
22642,3594,0,2023-03-01T18:57:06.519430,2016059,814,1489,1058,-1032,-569,-319,-35,199,-189
22643,3595,0,2023-03-01T18:57:06.525069,2016065,814,1489,1058,-1032,-569,-319,-35,199,-189
22644,3596,0,2023-03-01T18:57:06.531375,2016071,814,1489,1058,-1032,-569,-319,-35,199,-189
22645,3597,0,2023-03-01T18:57:06.538283,2016078,812,1489,1054,-1030,-568,-322,-35,199,-189
22646,3598,0,2023-03-01T18:57:06.544928,2016084,812,1489,1054,-1030,-568,-322,-35,199,-189
22647,3599,0,2023-03-01T18:57:06.551656,2016091,812,1489,1054,-1030,-568,-322,-35,199,-189
22648,3600,0,2023-03-01T18:57:06.556484,2016096,812,1489,1054,-1030,-568,-322,-35,199,-189
22649,3601,0,2023-03-01T18:57:06.561521,2016101,809,1488,1062,-1038,-574,-316,-35,199,-189
22650,3602,0,2023-03-01T18:57:06.567213,2016107,809,1488,1062,-1038,-574,-316,-35,199,-189
22651,3603,0,2023-03-01T18:57:06.572720,2016112,809,1488,1062,-1038,-574,-316,-35,199,-189
22652,3604,0,2023-03-01T18:57:06.578203,2016117,809,1488,1062,-1038,-574,-316,-35,199,-189
22653,3605,0,2023-03-01T18:57:06.583232,2016123,810,1487,1058,-1037,-580,-325,-37,205,-191
22654,3606,0,2023-03-01T18:57:06.589526,2016130,810,1487,1058,-1037,-580,-325,-37,205,-191
22655,3607,0,2023-03-01T18:57:06.594938,2016135,810,1487,1058,-1037,-580,-325,-37,205,-191
22656,3608,0,2023-03-01T18:57:06.599741,2016140,810,1486,1059,-1035,-574,-326,-37,205,-191
22657,3609,0,2023-03-01T18:57:06.605593,2016146,810,1486,1059,-1035,-574,-326,-37,205,-191
22658,3610,0,2023-03-01T18:57:06.611925,2016152,810,1486,1059,-1035,-574,-326,-37,205,-191
22659,3611,0,2023-03-01T18:57:06.616573,2016156,810,1486,1059,-1035,-574,-326,-37,205,-191
22660,3612,0,2023-03-01T18:57:06.621886,2016161,813,1486,1058,-1038,-568,-325,-37,205,-191
22661,3613,0,2023-03-01T18:57:06.627887,2016167,813,1486,1058,-1038,-568,-325,-37,205,-191
22662,3614,0,2023-03-01T18:57:06.633159,2016174,813,1486,1058,-1038,-568,-325,-37,205,-191
22663,3615,0,2023-03-01T18:57:06.637821,2016178,813,1486,1058,-1038,-568,-325,-37,205,-191
22664,3616,0,2023-03-01T18:57:06.642847,2016183,813,1487,1060,-1033,-574,-320,-37,205,-191
22665,3617,0,2023-03-01T18:57:06.649183,2016189,813,1487,1060,-1033,-574,-320,-37,205,-191
22666,3618,0,2023-03-01T18:57:06.654152,2016194,813,1487,1060,-1033,-574,-320,-37,205,-191
22667,3619,0,2023-03-01T18:57:06.659005,2016199,813,1486,1057,-1037,-571,-324,-37,205,-191
22668,3620,0,2023-03-01T18:57:06.664673,2016204,813,1486,1057,-1037,-571,-324,-37,205,-191
22669,3621,0,2023-03-01T18:57:06.671114,2016210,813,1486,1057,-1037,-571,-324,-37,205,-191
22670,3622,0,2023-03-01T18:57:06.675966,2016216,813,1486,1057,-1037,-571,-324,-37,205,-191
22671,3623,0,2023-03-01T18:57:06.681036,2016221,815,1489,1049,-1035,-577,-321,-37,205,-191
22672,3624,0,2023-03-01T18:57:06.686564,2016227,815,1489,1049,-1035,-577,-321,-37,205,-191
22673,3625,0,2023-03-01T18:57:06.691340,2016231,815,1489,1049,-1035,-577,-321,-37,205,-191
22674,3626,0,2023-03-01T18:57:06.696862,2016237,815,1489,1049,-1035,-577,-321,-37,205,-191
22675,3627,0,2023-03-01T18:57:06.701773,2016241,811,1488,1059,-1034,-572,-315,-44,208,-186
22676,3628,0,2023-03-01T18:57:06.708575,2016248,811,1488,1059,-1034,-572,-315,-44,208,-186
22677,3629,0,2023-03-01T18:57:06.714297,2016254,811,1488,1059,-1034,-572,-315,-44,208,-186
22678,3630,0,2023-03-01T18:57:06.719389,2016260,809,1488,1055,-1041,-569,-315,-44,208,-186
22679,3631,0,2023-03-01T18:57:06.724759,2016265,809,1488,1055,-1041,-569,-315,-44,208,-186
22680,3632,0,2023-03-01T18:57:06.730758,2016271,809,1488,1055,-1041,-569,-315,-44,208,-186
22681,3633,0,2023-03-01T18:57:06.735906,2016276,809,1488,1055,-1041,-569,-315,-44,208,-186
22682,3634,0,2023-03-01T18:57:06.740962,2016281,812,1491,1055,-1041,-572,-316,-44,208,-186
22683,3635,0,2023-03-01T18:57:06.746719,2016287,812,1491,1055,-1041,-572,-316,-44,208,-186
22684,3636,0,2023-03-01T18:57:06.752238,2016292,812,1491,1055,-1041,-572,-316,-44,208,-186
22685,3637,0,2023-03-01T18:57:06.757452,2016297,812,1491,1055,-1041,-572,-316,-44,208,-186
22686,3638,0,2023-03-01T18:57:06.762730,2016303,809,1491,1059,-1036,-571,-318,-44,208,-186
22687,3639,0,2023-03-01T18:57:06.768993,2016309,809,1491,1059,-1036,-571,-318,-44,208,-186
22688,3640,0,2023-03-01T18:57:06.774470,2016314,809,1491,1059,-1036,-571,-318,-44,208,-186
22689,3641,0,2023-03-01T18:57:06.779557,2016319,812,1490,1055,-1037,-574,-321,-44,208,-186
22690,3642,0,2023-03-01T18:57:06.784871,2016325,812,1490,1055,-1037,-574,-321,-44,208,-186
22691,3643,0,2023-03-01T18:57:06.790680,2016330,812,1490,1055,-1037,-574,-321,-44,208,-186
22692,3644,0,2023-03-01T18:57:06.795672,2016335,812,1490,1055,-1037,-574,-321,-44,208,-186
22693,3645,0,2023-03-01T18:57:06.800632,2016340,811,1489,1057,-1042,-571,-331,-44,208,-186
22694,3646,0,2023-03-01T18:57:06.806812,2016347,811,1489,1057,-1042,-571,-331,-44,208,-186
22695,3647,0,2023-03-01T18:57:06.811664,2016352,811,1489,1057,-1042,-571,-331,-44,208,-186
22696,3648,0,2023-03-01T18:57:06.816656,2016357,811,1489,1057,-1042,-571,-331,-44,208,-186
22697,3649,0,2023-03-01T18:57:06.821563,2016362,813,1490,1052,-1042,-570,-325,-44,208,-186
22698,3650,0,2023-03-01T18:57:06.827728,2016367,813,1490,1052,-1042,-570,-325,-44,208,-186
22699,3651,0,2023-03-01T18:57:06.832757,2016372,813,1490,1052,-1042,-570,-325,-44,208,-186
22700,3652,0,2023-03-01T18:57:06.837979,2016377,813,1490,1052,-1042,-570,-325,-44,208,-186
22701,3653,0,2023-03-01T18:57:06.843427,2016382,810,1490,1058,-1034,-566,-320,-34,202,-184
22702,3654,0,2023-03-01T18:57:06.849827,2016390,810,1490,1058,-1034,-566,-320,-34,202,-184
22703,3655,0,2023-03-01T18:57:06.854758,2016395,810,1490,1058,-1034,-566,-320,-34,202,-184
22704,3656,0,2023-03-01T18:57:06.859433,2016400,810,1492,1053,-1035,-567,-322,-34,202,-184
22705,3657,0,2023-03-01T18:57:06.865006,2016405,810,1492,1053,-1035,-567,-322,-34,202,-184
22706,3658,0,2023-03-01T18:57:06.870935,2016410,810,1492,1053,-1035,-567,-322,-34,202,-184
22707,3659,0,2023-03-01T18:57:06.876519,2016416,810,1492,1053,-1035,-567,-322,-34,202,-184
22708,3660,0,2023-03-01T18:57:06.881790,2016421,812,1488,1056,-1038,-575,-319,-34,202,-184
22709,3661,0,2023-03-01T18:57:06.887739,2016428,812,1488,1056,-1038,-575,-319,-34,202,-184
22710,3662,0,2023-03-01T18:57:06.892335,2016433,812,1488,1056,-1038,-575,-319,-34,202,-184
22711,3663,0,2023-03-01T18:57:06.897513,2016437,812,1488,1056,-1038,-575,-319,-34,202,-184
22712,3664,0,2023-03-01T18:57:06.903086,2016443,811,1491,1058,-1043,-570,-326,-34,202,-184
22713,3665,0,2023-03-01T18:57:06.909336,2016449,811,1491,1058,-1043,-570,-326,-34,202,-184
22714,3666,0,2023-03-01T18:57:06.914093,2016454,811,1491,1058,-1043,-570,-326,-34,202,-184
22715,3667,0,2023-03-01T18:57:06.919331,2016459,810,1486,1055,-1038,-581,-322,-34,202,-184
22716,3668,0,2023-03-01T18:57:06.925256,2016464,810,1486,1055,-1038,-581,-322,-34,202,-184
22717,3669,0,2023-03-01T18:57:06.931840,2016472,810,1486,1055,-1038,-581,-322,-34,202,-184
22718,3670,0,2023-03-01T18:57:06.936458,2016477,810,1486,1055,-1038,-581,-322,-34,202,-184
22719,3671,0,2023-03-01T18:57:06.941999,2016482,813,1487,1056,-1033,-576,-319,-34,202,-184
22720,3672,0,2023-03-01T18:57:06.948526,2016488,813,1487,1056,-1033,-576,-319,-34,202,-184
22721,3673,0,2023-03-01T18:57:06.954647,2016494,813,1487,1056,-1033,-576,-319,-34,202,-184
22722,3674,0,2023-03-01T18:57:06.959821,2016499,812,1488,1053,-1037,-580,-326,-36,204,-184
22723,3675,0,2023-03-01T18:57:06.965226,2016505,812,1488,1053,-1037,-580,-326,-36,204,-184
22724,3676,0,2023-03-01T18:57:06.971638,2016512,812,1488,1053,-1037,-580,-326,-36,204,-184
22725,3677,0,2023-03-01T18:57:06.978556,2016517,812,1488,1053,-1037,-580,-326,-36,204,-184
22726,3678,0,2023-03-01T18:57:06.983741,2016524,809,1488,1056,-1031,-573,-325,-36,204,-184
22727,3679,0,2023-03-01T18:57:06.992389,2016532,809,1488,1056,-1031,-573,-325,-36,204,-184
22728,3680,0,2023-03-01T18:57:06.997720,2016537,809,1488,1056,-1031,-573,-325,-36,204,-184
22729,3681,0,2023-03-01T18:57:07.002471,2016542,813,1489,1056,-1033,-574,-318,-36,204,-184
22730,3682,0,2023-03-01T18:57:07.009539,2016548,813,1489,1056,-1033,-574,-318,-36,204,-184
22731,3683,0,2023-03-01T18:57:07.015716,2016556,813,1489,1056,-1033,-574,-318,-36,204,-184
22732,3684,0,2023-03-01T18:57:07.020837,2016561,813,1489,1054,-1030,-580,-321,-36,204,-184
22733,3685,0,2023-03-01T18:57:07.027109,2016567,813,1489,1054,-1030,-580,-321,-36,204,-184
22734,3686,0,2023-03-01T18:57:07.032334,2016572,813,1489,1054,-1030,-580,-321,-36,204,-184
22735,3687,0,2023-03-01T18:57:07.037715,2016577,813,1489,1054,-1030,-580,-321,-36,204,-184
22736,3688,0,2023-03-01T18:57:07.043001,2016582,814,1492,1052,-1035,-576,-325,-36,204,-184
22737,3689,0,2023-03-01T18:57:07.049511,2016589,814,1492,1052,-1035,-576,-325,-36,204,-184
22738,3690,0,2023-03-01T18:57:07.054568,2016594,814,1492,1052,-1035,-576,-325,-36,204,-184
22739,3691,0,2023-03-01T18:57:07.059500,2016600,809,1486,1060,-1036,-576,-326,-36,204,-184
22740,3692,0,2023-03-01T18:57:07.065423,2016606,809,1486,1060,-1036,-576,-326,-36,204,-184
22741,3693,0,2023-03-01T18:57:07.070332,2016610,809,1486,1060,-1036,-576,-326,-36,204,-184
22742,3694,0,2023-03-01T18:57:07.075404,2016615,809,1486,1060,-1036,-576,-326,-36,204,-184
22743,3695,0,2023-03-01T18:57:07.080319,2016620,813,1487,1050,-1032,-570,-322,-36,204,-184
22744,3696,0,2023-03-01T18:57:07.086702,2016627,813,1487,1050,-1032,-570,-322,-36,204,-184
22745,3697,0,2023-03-01T18:57:07.092064,2016631,813,1487,1050,-1032,-570,-322,-36,204,-184
22746,3698,0,2023-03-01T18:57:07.098270,2016637,813,1487,1050,-1032,-570,-322,-36,204,-184
22747,3699,0,2023-03-01T18:57:07.103500,2016644,812,1490,1060,-1031,-566,-320,-36,206,-180
22748,3700,0,2023-03-01T18:57:07.110267,2016650,812,1490,1060,-1031,-566,-320,-36,206,-180
