,Unnamed: 0,imu,server_time,arduino_time,ax,ay,az,gx,gy,gz,mx,my,mz
25027,5979,0,2023-03-01T18:57:19.801666,2029342,662,1131,1363,-1536,-1108,-1500,17,235,-129
25028,5980,0,2023-03-01T18:57:19.807858,2029347,662,1131,1363,-1536,-1108,-1500,17,235,-129
25029,5981,0,2023-03-01T18:57:19.814026,2029355,662,1131,1363,-1536,-1108,-1500,17,235,-129
25030,5982,0,2023-03-01T18:57:19.818940,2029360,658,1131,1371,-1527,-1101,-1490,17,235,-129
25031,5983,0,2023-03-01T18:57:19.824725,2029365,658,1131,1371,-1527,-1101,-1490,17,235,-129
25032,5984,0,2023-03-01T18:57:19.830618,2029371,658,1131,1371,-1527,-1101,-1490,17,235,-129
25033,5985,0,2023-03-01T18:57:19.835716,2029376,656,1130,1373,-1502,-1075,-1448,15,237,-133
25034,5986,0,2023-03-01T18:57:19.842056,2029382,656,1130,1373,-1502,-1075,-1448,15,237,-133
25035,5987,0,2023-03-01T18:57:19.846995,2029387,656,1130,1373,-1502,-1075,-1448,15,237,-133
25036,5988,0,2023-03-01T18:57:19.852973,2029393,656,1130,1373,-1502,-1075,-1448,15,237,-133
25037,5989,0,2023-03-01T18:57:19.858083,2029399,654,1131,1367,-1465,-1038,-1354,15,237,-133
25038,5990,0,2023-03-01T18:57:19.863937,2029405,654,1131,1367,-1465,-1038,-1354,15,237,-133
25039,5991,0,2023-03-01T18:57:19.869649,2029410,654,1131,1367,-1465,-1038,-1354,15,237,-133
25040,5992,0,2023-03-01T18:57:19.874818,2029415,645,1120,1374,-1435,-1024,-1295,15,237,-133
25041,5993,0,2023-03-01T18:57:19.880728,2029421,645,1120,1374,-1435,-1024,-1295,15,237,-133
25042,5994,0,2023-03-01T18:57:19.885944,2029427,645,1120,1374,-1435,-1024,-1295,15,237,-133
25043,5995,0,2023-03-01T18:57:19.891371,2029432,645,1120,1374,-1435,-1024,-1295,15,237,-133
25044,5996,0,2023-03-01T18:57:19.896183,2029436,656,1131,1362,-1445,-1079,-1371,15,237,-133
25045,5997,0,2023-03-01T18:57:19.903590,2029443,656,1131,1362,-1445,-1079,-1371,15,237,-133
25046,5998,0,2023-03-01T18:57:19.908938,2029450,656,1131,1362,-1445,-1079,-1371,15,237,-133
25047,5999,0,2023-03-01T18:57:19.915003,2029456,668,1146,1352,-1486,-1103,-1455,15,237,-133
25048,6000,0,2023-03-01T18:57:19.921112,2029461,668,1146,1352,-1486,-1103,-1455,15,237,-133
25049,6001,0,2023-03-01T18:57:19.925961,2029466,668,1146,1352,-1486,-1103,-1455,15,237,-133
25050,6002,0,2023-03-01T18:57:19.931379,2029472,668,1146,1352,-1486,-1103,-1455,15,237,-133
25051,6003,0,2023-03-01T18:57:19.936160,2029476,661,1136,1358,-1506,-1081,-1441,15,237,-133
25052,6004,0,2023-03-01T18:57:19.942313,2029483,661,1136,1358,-1506,-1081,-1441,15,237,-133
25053,6005,0,2023-03-01T18:57:19.946924,2029488,661,1136,1358,-1506,-1081,-1441,15,237,-133
25054,6006,0,2023-03-01T18:57:19.952564,2029493,661,1136,1358,-1506,-1081,-1441,15,237,-133
25055,6007,0,2023-03-01T18:57:19.957737,2029498,652,1124,1375,-1527,-1086,-1466,25,231,-119
25056,6008,0,2023-03-01T18:57:19.962944,2029503,652,1124,1375,-1527,-1086,-1466,25,231,-119
25057,6009,0,2023-03-01T18:57:19.967833,2029508,652,1124,1375,-1527,-1086,-1466,25,231,-119
25058,6010,0,2023-03-01T18:57:19.972879,2029513,652,1124,1375,-1527,-1086,-1466,25,231,-119
25059,6011,0,2023-03-01T18:57:19.977976,2029518,650,1123,1368,-1543,-1106,-1527,25,231,-119
25060,6012,0,2023-03-01T18:57:19.983712,2029524,650,1123,1368,-1543,-1106,-1527,25,231,-119
25061,6013,0,2023-03-01T18:57:19.988757,2029530,650,1123,1368,-1543,-1106,-1527,25,231,-119
25062,6014,0,2023-03-01T18:57:19.994542,2029535,650,1123,1368,-1543,-1106,-1527,25,231,-119
25063,6015,0,2023-03-01T18:57:19.999644,2029540,649,1123,1372,-1522,-1100,-1485,25,231,-119
25064,6016,0,2023-03-01T18:57:20.005434,2029546,649,1123,1372,-1522,-1100,-1485,25,231,-119
25065,6017,0,2023-03-01T18:57:20.011118,2029551,649,1123,1372,-1522,-1100,-1485,25,231,-119
25066,6018,0,2023-03-01T18:57:20.015939,2029556,646,1125,1365,-1478,-1087,-1443,25,231,-119
25067,6019,0,2023-03-01T18:57:20.022400,2029563,646,1125,1365,-1478,-1087,-1443,25,231,-119
25068,6020,0,2023-03-01T18:57:20.028085,2029569,646,1125,1365,-1478,-1087,-1443,25,231,-119
25069,6021,0,2023-03-01T18:57:20.033765,2029575,646,1125,1365,-1478,-1087,-1443,25,231,-119
25070,6022,0,2023-03-01T18:57:20.038679,2029580,655,1127,1359,-1473,-1098,-1448,25,231,-119
25071,6023,0,2023-03-01T18:57:20.044163,2029585,655,1127,1359,-1473,-1098,-1448,25,231,-119
25072,6024,0,2023-03-01T18:57:20.049937,2029590,655,1127,1359,-1473,-1098,-1448,25,231,-119
25073,6025,0,2023-03-01T18:57:20.055354,2029596,663,1141,1368,-1474,-1118,-1461,25,231,-119
25074,6026,0,2023-03-01T18:57:20.059815,2029600,663,1141,1368,-1474,-1118,-1461,25,231,-119
25075,6027,0,2023-03-01T18:57:20.065185,2029605,663,1141,1368,-1474,-1118,-1461,25,231,-119
25076,6028,0,2023-03-01T18:57:20.070901,2029612,663,1141,1368,-1474,-1118,-1461,25,231,-119
25077,6029,0,2023-03-01T18:57:20.075803,2029617,663,1134,1372,-1496,-1118,-1502,31,235,-127
25078,6030,0,2023-03-01T18:57:20.082039,2029623,663,1134,1372,-1496,-1118,-1502,31,235,-127
25079,6031,0,2023-03-01T18:57:20.086951,2029628,663,1134,1372,-1496,-1118,-1502,31,235,-127
25080,6032,0,2023-03-01T18:57:20.091463,2029632,663,1134,1372,-1496,-1118,-1502,31,235,-127
25081,6033,0,2023-03-01T18:57:20.096073,2029637,660,1133,1373,-1533,-1139,-1551,31,235,-127
25082,6034,0,2023-03-01T18:57:20.101836,2029642,660,1133,1373,-1533,-1139,-1551,31,235,-127
25083,6035,0,2023-03-01T18:57:20.106959,2029647,660,1133,1373,-1533,-1139,-1551,31,235,-127
25084,6036,0,2023-03-01T18:57:20.112820,2029654,660,1133,1373,-1533,-1139,-1551,31,235,-127
25085,6037,0,2023-03-01T18:57:20.117635,2029659,665,1136,1369,-1558,-1135,-1590,31,235,-127
25086,6038,0,2023-03-01T18:57:20.123802,2029665,665,1136,1369,-1558,-1135,-1590,31,235,-127
25087,6039,0,2023-03-01T18:57:20.128612,2029669,665,1136,1369,-1558,-1135,-1590,31,235,-127
25088,6040,0,2023-03-01T18:57:20.134482,2029675,665,1136,1369,-1558,-1135,-1590,31,235,-127
25089,6041,0,2023-03-01T18:57:20.140347,2029680,649,1125,1375,-1548,-1064,-1479,31,235,-127
25090,6042,0,2023-03-01T18:57:20.146627,2029687,649,1125,1375,-1548,-1064,-1479,31,235,-127
25091,6043,0,2023-03-01T18:57:20.151928,2029692,649,1125,1375,-1548,-1064,-1479,31,235,-127
25092,6044,0,2023-03-01T18:57:20.156811,2029698,641,1117,1381,-1494,-1003,-1341,31,235,-127
25093,6045,0,2023-03-01T18:57:20.162970,2029704,641,1117,1381,-1494,-1003,-1341,31,235,-127
25094,6046,0,2023-03-01T18:57:20.167810,2029709,641,1117,1381,-1494,-1003,-1341,31,235,-127
25095,6047,0,2023-03-01T18:57:20.173480,2029714,641,1117,1381,-1494,-1003,-1341,31,235,-127
25096,6048,0,2023-03-01T18:57:20.178290,2029719,642,1117,1384,-1439,-941,-1212,31,235,-127
25097,6049,0,2023-03-01T18:57:20.184392,2029725,642,1117,1384,-1439,-941,-1212,31,235,-127
25098,6050,0,2023-03-01T18:57:20.190135,2029730,642,1117,1384,-1439,-941,-1212,31,235,-127
25099,6051,0,2023-03-01T18:57:20.194917,2029735,642,1117,1384,-1439,-941,-1212,31,235,-127
25100,6052,0,2023-03-01T18:57:20.199833,2029741,648,1123,1369,-1383,-863,-1046,31,235,-127
25101,6053,0,2023-03-01T18:57:20.206230,2029747,648,1123,1369,-1383,-863,-1046,31,235,-127
25102,6054,0,2023-03-01T18:57:20.212477,2029753,648,1123,1369,-1383,-863,-1046,31,235,-127
25103,6055,0,2023-03-01T18:57:20.217814,2029758,649,1123,1374,-1334,-763,-883,19,233,-119
25104,6056,0,2023-03-01T18:57:20.223870,2029764,649,1123,1374,-1334,-763,-883,19,233,-119
25105,6057,0,2023-03-01T18:57:20.228912,2029769,649,1123,1374,-1334,-763,-883,19,233,-119
25106,6058,0,2023-03-01T18:57:20.234572,2029775,649,1123,1374,-1334,-763,-883,19,233,-119
25107,6059,0,2023-03-01T18:57:20.239673,2029779,656,1124,1374,-1267,-717,-759,19,233,-119
25108,6060,0,2023-03-01T18:57:20.245700,2029786,656,1124,1374,-1267,-717,-759,19,233,-119
25109,6061,0,2023-03-01T18:57:20.252152,2029792,656,1124,1374,-1267,-717,-759,19,233,-119
25110,6062,0,2023-03-01T18:57:20.257392,2029798,658,1126,1370,-1190,-721,-686,19,233,-119
25111,6063,0,2023-03-01T18:57:20.263414,2029804,658,1126,1370,-1190,-721,-686,19,233,-119
25112,6064,0,2023-03-01T18:57:20.268507,2029809,658,1126,1370,-1190,-721,-686,19,233,-119
25113,6065,0,2023-03-01T18:57:20.274160,2029814,658,1126,1370,-1190,-721,-686,19,233,-119
25114,6066,0,2023-03-01T18:57:20.279204,2029819,654,1127,1365,-1135,-729,-641,19,233,-119
25115,6067,0,2023-03-01T18:57:20.285789,2029827,654,1127,1365,-1135,-729,-641,19,233,-119
25116,6068,0,2023-03-01T18:57:20.290825,2029832,654,1127,1365,-1135,-729,-641,19,233,-119
25117,6069,0,2023-03-01T18:57:20.295593,2029836,654,1129,1378,-1124,-703,-587,19,233,-119
25118,6070,0,2023-03-01T18:57:20.301432,2029842,654,1129,1378,-1124,-703,-587,19,233,-119
25119,6071,0,2023-03-01T18:57:20.307400,2029848,654,1129,1378,-1124,-703,-587,19,233,-119
25120,6072,0,2023-03-01T18:57:20.313659,2029854,654,1129,1378,-1124,-703,-587,19,233,-119
25121,6073,0,2023-03-01T18:57:20.318500,2029859,645,1118,1376,-1113,-670,-527,19,233,-119
25122,6074,0,2023-03-01T18:57:20.324635,2029865,645,1118,1376,-1113,-670,-527,19,233,-119
25123,6075,0,2023-03-01T18:57:20.330366,2029871,645,1118,1376,-1113,-670,-527,19,233,-119
25124,6076,0,2023-03-01T18:57:20.335783,2029877,649,1117,1388,-1083,-649,-463,29,237,-121
25125,6077,0,2023-03-01T18:57:20.342357,2029883,649,1117,1388,-1083,-649,-463,29,237,-121
25126,6078,0,2023-03-01T18:57:20.347311,2029888,649,1117,1388,-1083,-649,-463,29,237,-121
25127,6079,0,2023-03-01T18:57:20.352783,2029893,649,1117,1388,-1083,-649,-463,29,237,-121
25128,6080,0,2023-03-01T18:57:20.357856,2029898,646,1117,1381,-1057,-612,-376,29,237,-121
25129,6081,0,2023-03-01T18:57:20.365872,2029906,646,1117,1381,-1057,-612,-376,29,237,-121
25130,6082,0,2023-03-01T18:57:20.371879,2029913,646,1117,1381,-1057,-612,-376,29,237,-121
25131,6083,0,2023-03-01T18:57:20.376708,2029918,648,1115,1375,-1032,-591,-324,29,237,-121
25132,6084,0,2023-03-01T18:57:20.383337,2029924,648,1115,1375,-1032,-591,-324,29,237,-121
25133,6085,0,2023-03-01T18:57:20.388323,2029929,648,1115,1375,-1032,-591,-324,29,237,-121
25134,6086,0,2023-03-01T18:57:20.394525,2029935,648,1115,1375,-1032,-591,-324,29,237,-121
25135,6087,0,2023-03-01T18:57:20.399407,2029940,653,1122,1375,-1027,-587,-312,29,237,-121
25136,6088,0,2023-03-01T18:57:20.405406,2029946,653,1122,1375,-1027,-587,-312,29,237,-121
25137,6089,0,2023-03-01T18:57:20.410857,2029952,653,1122,1375,-1027,-587,-312,29,237,-121
25138,6090,0,2023-03-01T18:57:20.415750,2029957,653,1124,1367,-1026,-566,-319,29,237,-121
25139,6091,0,2023-03-01T18:57:20.421894,2029963,653,1124,1367,-1026,-566,-319,29,237,-121
25140,6092,0,2023-03-01T18:57:20.427284,2029968,653,1124,1367,-1026,-566,-319,29,237,-121
25141,6093,0,2023-03-01T18:57:20.432968,2029973,653,1124,1367,-1026,-566,-319,29,237,-121
25142,6094,0,2023-03-01T18:57:20.437840,2029978,650,1127,1371,-1045,-563,-329,29,237,-121
25143,6095,0,2023-03-01T18:57:20.443340,2029984,650,1127,1371,-1045,-563,-329,29,237,-121
25144,6096,0,2023-03-01T18:57:20.448251,2029988,650,1127,1371,-1045,-563,-329,29,237,-121
25145,6097,0,2023-03-01T18:57:20.454462,2029995,650,1127,1371,-1045,-563,-329,29,237,-121
25146,6098,0,2023-03-01T18:57:20.459634,2030001,647,1121,1372,-1047,-561,-339,29,237,-121
25147,6099,0,2023-03-01T18:57:20.465811,2030007,647,1121,1372,-1047,-561,-339,29,237,-121
25148,6100,0,2023-03-01T18:57:20.471671,2030012,647,1121,1372,-1047,-561,-339,29,237,-121
25149,6101,0,2023-03-01T18:57:20.477148,2030017,645,1115,1387,-1053,-559,-328,34,240,-122
25150,6102,0,2023-03-01T18:57:20.483393,2030024,645,1115,1387,-1053,-559,-328,34,240,-122
25151,6103,0,2023-03-01T18:57:20.488845,2030029,645,1115,1387,-1053,-559,-328,34,240,-122
25152,6104,0,2023-03-01T18:57:20.494466,2030034,645,1115,1387,-1053,-559,-328,34,240,-122
25153,6105,0,2023-03-01T18:57:20.499788,2030041,649,1114,1377,-1039,-574,-322,34,240,-122
25154,6106,0,2023-03-01T18:57:20.505911,2030047,649,1114,1377,-1039,-574,-322,34,240,-122
25155,6107,0,2023-03-01T18:57:20.511178,2030052,649,1114,1377,-1039,-574,-322,34,240,-122
25156,6108,0,2023-03-01T18:57:20.515961,2030057,646,1117,1376,-1026,-579,-312,34,240,-122
25157,6109,0,2023-03-01T18:57:20.521448,2030062,646,1117,1376,-1026,-579,-312,34,240,-122
25158,6110,0,2023-03-01T18:57:20.526408,2030067,646,1117,1376,-1026,-579,-312,34,240,-122
25159,6111,0,2023-03-01T18:57:20.532099,2030072,646,1117,1376,-1026,-579,-312,34,240,-122
25160,6112,0,2023-03-01T18:57:20.536758,2030077,649,1121,1376,-1023,-583,-318,34,240,-122
25161,6113,0,2023-03-01T18:57:20.542825,2030084,649,1121,1376,-1023,-583,-318,34,240,-122
25162,6114,0,2023-03-01T18:57:20.547841,2030089,649,1121,1376,-1023,-583,-318,34,240,-122
25163,6115,0,2023-03-01T18:57:20.553842,2030095,649,1121,1376,-1023,-583,-318,34,240,-122
25164,6116,0,2023-03-01T18:57:20.558998,2030099,654,1124,1366,-1039,-578,-318,34,240,-122
25165,6117,0,2023-03-01T18:57:20.565311,2030106,654,1124,1366,-1039,-578,-318,34,240,-122
25166,6118,0,2023-03-01T18:57:20.570743,2030111,654,1124,1366,-1039,-578,-318,34,240,-122
25167,6119,0,2023-03-01T18:57:20.575456,2030116,652,1122,1366,-1054,-566,-326,34,240,-122
25168,6120,0,2023-03-01T18:57:20.581164,2030121,652,1122,1366,-1054,-566,-326,34,240,-122
25169,6121,0,2023-03-01T18:57:20.587440,2030128,652,1122,1366,-1054,-566,-326,34,240,-122
25170,6122,0,2023-03-01T18:57:20.593256,2030134,652,1122,1366,-1054,-566,-326,34,240,-122
25171,6123,0,2023-03-01T18:57:20.598315,2030139,650,1121,1382,-1046,-556,-323,27,235,-127
25172,6124,0,2023-03-01T18:57:20.604546,2030145,650,1121,1382,-1046,-556,-323,27,235,-127
25173,6125,0,2023-03-01T18:57:20.610308,2030151,650,1121,1382,-1046,-556,-323,27,235,-127
25174,6126,0,2023-03-01T18:57:20.615166,2030156,650,1121,1382,-1046,-556,-323,27,235,-127
25175,6127,0,2023-03-01T18:57:20.619861,2030160,646,1116,1379,-1043,-563,-321,27,235,-127
25176,6128,0,2023-03-01T18:57:20.625627,2030167,646,1116,1379,-1043,-563,-321,27,235,-127
25177,6129,0,2023-03-01T18:57:20.630885,2030172,646,1116,1379,-1043,-563,-321,27,235,-127
25178,6130,0,2023-03-01T18:57:20.636641,2030176,648,1115,1377,-1034,-569,-324,27,235,-127
25179,6131,0,2023-03-01T18:57:20.642307,2030183,648,1115,1377,-1034,-569,-324,27,235,-127
25180,6132,0,2023-03-01T18:57:20.647853,2030189,648,1115,1377,-1034,-569,-324,27,235,-127
25181,6133,0,2023-03-01T18:57:20.653445,2030194,648,1115,1377,-1034,-569,-324,27,235,-127
25182,6134,0,2023-03-01T18:57:20.657967,2030198,646,1117,1374,-1020,-579,-316,27,235,-127
25183,6135,0,2023-03-01T18:57:20.663985,2030204,646,1117,1374,-1020,-579,-316,27,235,-127
25184,6136,0,2023-03-01T18:57:20.668939,2030210,646,1117,1374,-1020,-579,-316,27,235,-127
25185,6137,0,2023-03-01T18:57:20.674601,2030216,646,1117,1374,-1020,-579,-316,27,235,-127
25186,6138,0,2023-03-01T18:57:20.679371,2030220,651,1121,1376,-1023,-581,-323,27,235,-127
25187,6139,0,2023-03-01T18:57:20.684657,2030225,651,1121,1376,-1023,-581,-323,27,235,-127
25188,6140,0,2023-03-01T18:57:20.690102,2030230,651,1121,1376,-1023,-581,-323,27,235,-127
25189,6141,0,2023-03-01T18:57:20.695934,2030236,651,1121,1376,-1023,-581,-323,27,235,-127
25190,6142,0,2023-03-01T18:57:20.701060,2030241,652,1120,1372,-1032,-575,-318,27,235,-127
25191,6143,0,2023-03-01T18:57:20.706829,2030247,652,1120,1372,-1032,-575,-318,27,235,-127
25192,6144,0,2023-03-01T18:57:20.712388,2030253,652,1120,1372,-1032,-575,-318,27,235,-127
25193,6145,0,2023-03-01T18:57:20.717359,2030258,650,1118,1372,-1047,-571,-319,30,232,-126
25194,6146,0,2023-03-01T18:57:20.722534,2030264,650,1118,1372,-1047,-571,-319,30,232,-126
25195,6147,0,2023-03-01T18:57:20.727696,2030268,650,1118,1372,-1047,-571,-319,30,232,-126
25196,6148,0,2023-03-01T18:57:20.732955,2030273,650,1118,1372,-1047,-571,-319,30,232,-126
25197,6149,0,2023-03-01T18:57:20.738032,2030279,648,1111,1374,-1041,-563,-329,30,232,-126
25198,6150,0,2023-03-01T18:57:20.743978,2030284,648,1111,1374,-1041,-563,-329,30,232,-126
25199,6151,0,2023-03-01T18:57:20.748744,2030289,648,1111,1374,-1041,-563,-329,30,232,-126
25200,6152,0,2023-03-01T18:57:20.753944,2030295,648,1111,1374,-1041,-563,-329,30,232,-126
25201,6153,0,2023-03-01T18:57:20.758706,2030300,646,1115,1376,-1027,-563,-323,30,232,-126
25202,6154,0,2023-03-01T18:57:20.764631,2030306,646,1115,1376,-1027,-563,-323,30,232,-126
25203,6155,0,2023-03-01T18:57:20.769933,2030311,646,1115,1376,-1027,-563,-323,30,232,-126
25204,6156,0,2023-03-01T18:57:20.774900,2030315,646,1115,1376,-1027,-563,-323,30,232,-126
25205,6157,0,2023-03-01T18:57:20.779695,2030320,647,1119,1375,-1032,-568,-320,30,232,-126
25206,6158,0,2023-03-01T18:57:20.785666,2030326,647,1119,1375,-1032,-568,-320,30,232,-126
25207,6159,0,2023-03-01T18:57:20.791918,2030332,647,1119,1375,-1032,-568,-320,30,232,-126
25208,6160,0,2023-03-01T18:57:20.796858,2030338,645,1121,1372,-1029,-574,-316,30,232,-126
25209,6161,0,2023-03-01T18:57:20.805317,2030346,645,1121,1372,-1029,-574,-316,30,232,-126
25210,6162,0,2023-03-01T18:57:20.810093,2030351,645,1121,1372,-1029,-574,-316,30,232,-126
25211,6163,0,2023-03-01T18:57:20.815199,2030356,645,1121,1372,-1029,-574,-316,30,232,-126
25212,6164,0,2023-03-01T18:57:20.820213,2030361,651,1120,1371,-1026,-578,-314,30,232,-126
25213,6165,0,2023-03-01T18:57:20.826525,2030367,651,1120,1371,-1026,-578,-314,30,232,-126
25214,6166,0,2023-03-01T18:57:20.832443,2030372,651,1120,1371,-1026,-578,-314,30,232,-126
25215,6167,0,2023-03-01T18:57:20.837666,2030379,650,1118,1371,-1039,-570,-326,30,232,-126
25216,6168,0,2023-03-01T18:57:20.843854,2030385,650,1118,1371,-1039,-570,-326,30,232,-126
25217,6169,0,2023-03-01T18:57:20.848646,2030389,650,1118,1371,-1039,-570,-326,30,232,-126
25218,6170,0,2023-03-01T18:57:20.854156,2030395,650,1118,1371,-1039,-570,-326,30,232,-126
25219,6171,0,2023-03-01T18:57:20.859329,2030400,650,1117,1378,-1042,-569,-338,23,233,-123
25220,6172,0,2023-03-01T18:57:20.865596,2030406,650,1117,1378,-1042,-569,-338,23,233,-123
25221,6173,0,2023-03-01T18:57:20.871255,2030412,650,1117,1378,-1042,-569,-338,23,233,-123
25222,6174,0,2023-03-01T18:57:20.876583,2030416,647,1116,1374,-1040,-561,-329,23,233,-123
25223,6175,0,2023-03-01T18:57:20.881977,2030423,647,1116,1374,-1040,-561,-329,23,233,-123
25224,6176,0,2023-03-01T18:57:20.887982,2030429,647,1116,1374,-1040,-561,-329,23,233,-123
25225,6177,0,2023-03-01T18:57:20.893746,2030435,647,1116,1374,-1040,-561,-329,23,233,-123
25226,6178,0,2023-03-01T18:57:20.899236,2030440,645,1118,1379,-1032,-556,-329,23,233,-123
25227,6179,0,2023-03-01T18:57:20.905424,2030446,645,1118,1379,-1032,-556,-329,23,233,-123
25228,6180,0,2023-03-01T18:57:20.910869,2030451,645,1118,1379,-1032,-556,-329,23,233,-123
25229,6181,0,2023-03-01T18:57:20.916061,2030456,645,1118,1379,-1032,-556,-329,23,233,-123
25230,6182,0,2023-03-01T18:57:20.921839,2030462,646,1118,1377,-1032,-570,-329,23,233,-123
25231,6183,0,2023-03-01T18:57:20.928348,2030469,646,1118,1377,-1032,-570,-329,23,233,-123
25232,6184,0,2023-03-01T18:57:20.933903,2030475,646,1118,1377,-1032,-570,-329,23,233,-123
25233,6185,0,2023-03-01T18:57:20.939131,2030480,648,1122,1375,-1032,-580,-325,23,233,-123
25234,6186,0,2023-03-01T18:57:20.945822,2030486,648,1122,1375,-1032,-580,-325,23,233,-123
25235,6187,0,2023-03-01T18:57:20.951236,2030492,648,1122,1375,-1032,-580,-325,23,233,-123
25236,6188,0,2023-03-01T18:57:20.956866,2030496,649,1121,1378,-1040,-577,-317,23,233,-123
25237,6189,0,2023-03-01T18:57:20.962223,2030503,649,1121,1378,-1040,-577,-317,23,233,-123
25238,6190,0,2023-03-01T18:57:20.967759,2030509,649,1121,1378,-1040,-577,-317,23,233,-123
25239,6191,0,2023-03-01T18:57:20.972660,2030514,649,1121,1378,-1040,-577,-317,23,233,-123
25240,6192,0,2023-03-01T18:57:20.977951,2030519,650,1122,1375,-1046,-570,-317,25,231,-121
25241,6193,0,2023-03-01T18:57:20.984350,2030525,650,1122,1375,-1046,-570,-317,25,231,-121
25242,6194,0,2023-03-01T18:57:20.989606,2030530,650,1122,1375,-1046,-570,-317,25,231,-121
25243,6195,0,2023-03-01T18:57:20.994292,2030535,650,1122,1375,-1046,-570,-317,25,231,-121
25244,6196,0,2023-03-01T18:57:20.999093,2030539,650,1121,1379,-1039,-576,-330,25,231,-121
25245,6197,0,2023-03-01T18:57:21.005059,2030545,650,1121,1379,-1039,-576,-330,25,231,-121
25246,6198,0,2023-03-01T18:57:21.010251,2030552,650,1121,1379,-1039,-576,-330,25,231,-121
25247,6199,0,2023-03-01T18:57:21.015197,2030556,650,1121,1379,-1039,-576,-330,25,231,-121
25248,6200,0,2023-03-01T18:57:21.020295,2030561,649,1117,1378,-1035,-566,-323,25,231,-121
25249,6201,0,2023-03-01T18:57:21.026797,2030567,649,1117,1378,-1035,-566,-323,25,231,-121
25250,6202,0,2023-03-01T18:57:21.032696,2030573,649,1117,1378,-1035,-566,-323,25,231,-121
25251,6203,0,2023-03-01T18:57:21.037507,2030578,647,1119,1374,-1033,-569,-326,25,231,-121
25252,6204,0,2023-03-01T18:57:21.043635,2030584,647,1119,1374,-1033,-569,-326,25,231,-121
25253,6205,0,2023-03-01T18:57:21.048258,2030589,647,1119,1374,-1033,-569,-326,25,231,-121
25254,6206,0,2023-03-01T18:57:21.053643,2030595,647,1119,1374,-1033,-569,-326,25,231,-121
25255,6207,0,2023-03-01T18:57:21.058479,2030600,649,1121,1371,-1032,-574,-320,25,231,-121
25256,6208,0,2023-03-01T18:57:21.064356,2030605,649,1121,1371,-1032,-574,-320,25,231,-121
25257,6209,0,2023-03-01T18:57:21.070258,2030611,649,1121,1371,-1032,-574,-320,25,231,-121
25258,6210,0,2023-03-01T18:57:21.075020,2030616,649,1121,1371,-1032,-574,-320,25,231,-121
25259,6211,0,2023-03-01T18:57:21.080248,2030621,649,1120,1374,-1032,-573,-315,25,231,-121
25260,6212,0,2023-03-01T18:57:21.087800,2030628,649,1120,1374,-1032,-573,-315,25,231,-121
25261,6213,0,2023-03-01T18:57:21.093465,2030635,649,1120,1374,-1032,-573,-315,25,231,-121
25262,6214,0,2023-03-01T18:57:21.098616,2030640,650,1120,1373,-1033,-573,-315,25,231,-121
25263,6215,0,2023-03-01T18:57:21.103658,2030645,650,1120,1373,-1033,-573,-315,25,231,-121
25264,6216,0,2023-03-01T18:57:21.108591,2030649,650,1120,1373,-1033,-573,-315,25,231,-121
25265,6217,0,2023-03-01T18:57:21.114095,2030654,650,1120,1373,-1033,-573,-315,25,231,-121
25266,6218,0,2023-03-01T18:57:21.118921,2030659,651,1116,1374,-1040,-577,-321,18,242,-124
25267,6219,0,2023-03-01T18:57:21.124983,2030666,651,1116,1374,-1040,-577,-321,18,242,-124
25268,6220,0,2023-03-01T18:57:21.130767,2030671,651,1116,1374,-1040,-577,-321,18,242,-124
25269,6221,0,2023-03-01T18:57:21.135793,2030676,651,1116,1374,-1040,-577,-321,18,242,-124
25270,6222,0,2023-03-01T18:57:21.140880,2030682,651,1120,1380,-1033,-569,-323,18,242,-124
25271,6223,0,2023-03-01T18:57:21.145224,2030686,651,1120,1380,-1033,-569,-323,18,242,-124
25272,6224,0,2023-03-01T18:57:21.150507,2030691,651,1120,1380,-1033,-569,-323,18,242,-124
25273,6225,0,2023-03-01T18:57:21.155399,2030696,651,1120,1380,-1033,-569,-323,18,242,-124
25274,6226,0,2023-03-01T18:57:21.160143,2030701,649,1119,1376,-1032,-572,-322,18,242,-124
25275,6227,0,2023-03-01T18:57:21.166059,2030706,649,1119,1376,-1032,-572,-322,18,242,-124
25276,6228,0,2023-03-01T18:57:21.170687,2030711,649,1119,1376,-1032,-572,-322,18,242,-124
25277,6229,0,2023-03-01T18:57:21.175751,2030716,649,1119,1376,-1032,-572,-322,18,242,-124
25278,6230,0,2023-03-01T18:57:21.180952,2030722,642,1121,1379,-1041,-573,-322,18,242,-124
25279,6231,0,2023-03-01T18:57:21.187127,2030728,642,1121,1379,-1041,-573,-322,18,242,-124
25280,6232,0,2023-03-01T18:57:21.193210,2030734,642,1121,1379,-1041,-573,-322,18,242,-124
25281,6233,0,2023-03-01T18:57:21.197855,2030739,648,1122,1374,-1033,-576,-319,18,242,-124
25282,6234,0,2023-03-01T18:57:21.203766,2030745,648,1122,1374,-1033,-576,-319,18,242,-124
25283,6235,0,2023-03-01T18:57:21.209968,2030750,648,1122,1374,-1033,-576,-319,18,242,-124
25284,6236,0,2023-03-01T18:57:21.214828,2030755,648,1122,1374,-1033,-576,-319,18,242,-124
25285,6237,0,2023-03-01T18:57:21.220380,2030760,650,1118,1378,-1024,-575,-323,18,242,-124
25286,6238,0,2023-03-01T18:57:21.226931,2030768,650,1118,1378,-1024,-575,-323,18,242,-124
25287,6239,0,2023-03-01T18:57:21.232640,2030774,650,1118,1378,-1024,-575,-323,18,242,-124
25288,6240,0,2023-03-01T18:57:21.237469,2030778,652,1120,1380,-1033,-577,-320,25,229,-121
25289,6241,0,2023-03-01T18:57:21.243915,2030785,652,1120,1380,-1033,-577,-320,25,229,-121
25290,6242,0,2023-03-01T18:57:21.248646,2030789,652,1120,1380,-1033,-577,-320,25,229,-121
25291,6243,0,2023-03-01T18:57:21.254072,2030794,652,1120,1380,-1033,-577,-320,25,229,-121
25292,6244,0,2023-03-01T18:57:21.259313,2030799,652,1118,1381,-1039,-573,-319,25,229,-121
25293,6245,0,2023-03-01T18:57:21.265016,2030806,652,1118,1381,-1039,-573,-319,25,229,-121
25294,6246,0,2023-03-01T18:57:21.270380,2030811,652,1118,1381,-1039,-573,-319,25,229,-121
25295,6247,0,2023-03-01T18:57:21.275358,2030816,652,1118,1381,-1039,-573,-319,25,229,-121
25296,6248,0,2023-03-01T18:57:21.280417,2030821,649,1117,1370,-1036,-563,-317,25,229,-121
25297,6249,0,2023-03-01T18:57:21.286809,2030828,649,1117,1370,-1036,-563,-317,25,229,-121
25298,6250,0,2023-03-01T18:57:21.292684,2030833,649,1117,1370,-1036,-563,-317,25,229,-121
25299,6251,0,2023-03-01T18:57:21.297828,2030838,650,1120,1379,-1032,-564,-327,25,229,-121
25300,6252,0,2023-03-01T18:57:21.303588,2030844,650,1120,1379,-1032,-564,-327,25,229,-121
25301,6253,0,2023-03-01T18:57:21.308697,2030850,650,1120,1379,-1032,-564,-327,25,229,-121
25302,6254,0,2023-03-01T18:57:21.314578,2030855,650,1120,1379,-1032,-564,-327,25,229,-121
25303,6255,0,2023-03-01T18:57:21.319414,2030860,647,1119,1379,-1027,-568,-325,25,229,-121
25304,6256,0,2023-03-01T18:57:21.326289,2030867,647,1119,1379,-1027,-568,-325,25,229,-121
25305,6257,0,2023-03-01T18:57:21.331690,2030872,647,1119,1379,-1027,-568,-325,25,229,-121
25306,6258,0,2023-03-01T18:57:21.336800,2030877,646,1122,1373,-1038,-574,-323,25,229,-121
25307,6259,0,2023-03-01T18:57:21.342535,2030883,646,1122,1373,-1038,-574,-323,25,229,-121
25308,6260,0,2023-03-01T18:57:21.348054,2030888,646,1122,1373,-1038,-574,-323,25,229,-121
25309,6261,0,2023-03-01T18:57:21.354486,2030895,646,1122,1373,-1038,-574,-323,25,229,-121
25310,6262,0,2023-03-01T18:57:21.359629,2030901,649,1119,1373,-1035,-571,-319,25,229,-121
25311,6263,0,2023-03-01T18:57:21.366017,2030907,649,1119,1373,-1035,-571,-319,25,229,-121
25312,6264,0,2023-03-01T18:57:21.371732,2030912,649,1119,1373,-1035,-571,-319,25,229,-121
25313,6265,0,2023-03-01T18:57:21.376870,2030917,650,1120,1383,-1035,-571,-321,27,229,-121
25314,6266,0,2023-03-01T18:57:21.382987,2030923,650,1120,1383,-1035,-571,-321,27,235,-129
25315,6267,0,2023-03-01T18:57:21.388065,2030928,650,1120,1383,-1035,-571,-321,27,235,-129
25316,6268,0,2023-03-01T18:57:21.394225,2030935,650,1120,1383,-1035,-571,-321,27,235,-129
25317,6269,0,2023-03-01T18:57:21.399158,2030940,655,1120,1371,-1029,-564,-321,27,235,-129
25318,6270,0,2023-03-01T18:57:21.405495,2030946,655,1120,1371,-1029,-564,-321,27,235,-129
25319,6271,0,2023-03-01T18:57:21.410999,2030952,655,1120,1371,-1029,-564,-321,27,235,-129
25320,6272,0,2023-03-01T18:57:21.415957,2030957,655,1120,1371,-1029,-564,-321,27,235,-129
25321,6273,0,2023-03-01T18:57:21.420717,2030961,649,1118,1378,-1036,-569,-321,27,235,-129
25322,6274,0,2023-03-01T18:57:21.426591,2030967,649,1118,1378,-1036,-569,-321,27,235,-129
25323,6275,0,2023-03-01T18:57:21.431254,2030972,649,1118,1378,-1036,-569,-321,27,235,-129
25324,6276,0,2023-03-01T18:57:21.435984,2030977,649,1118,1378,-1036,-569,-321,27,235,-129
25325,6277,0,2023-03-01T18:57:21.440932,2030982,650,1118,1374,-1042,-567,-324,27,235,-129
25326,6278,0,2023-03-01T18:57:21.447402,2030988,650,1118,1374,-1042,-567,-324,27,235,-129
25327,6279,0,2023-03-01T18:57:21.453378,2030994,650,1118,1374,-1042,-567,-324,27,235,-129
25328,6280,0,2023-03-01T18:57:21.458941,2030999,646,1121,1376,-1029,-569,-330,27,235,-129
25329,6281,0,2023-03-01T18:57:21.465192,2031006,646,1121,1376,-1029,-569,-330,27,235,-129
25330,6282,0,2023-03-01T18:57:21.470983,2031011,646,1121,1376,-1029,-569,-330,27,235,-129
25331,6283,0,2023-03-01T18:57:21.475824,2031016,646,1121,1376,-1029,-569,-330,27,235,-129
25332,6284,0,2023-03-01T18:57:21.481348,2031022,649,1120,1376,-1028,-575,-329,27,235,-129
25333,6285,0,2023-03-01T18:57:21.487835,2031028,649,1120,1376,-1028,-575,-329,27,235,-129
25334,6286,0,2023-03-01T18:57:21.492985,2031034,649,1120,1376,-1028,-575,-329,27,235,-129
25335,6287,0,2023-03-01T18:57:21.497802,2031039,648,1119,1378,-1034,-576,-320,29,243,-121
25336,6288,0,2023-03-01T18:57:21.503361,2031044,648,1119,1378,-1034,-576,-320,29,243,-121
25337,6289,0,2023-03-01T18:57:21.508338,2031049,648,1119,1378,-1034,-576,-320,29,243,-121
25338,6290,0,2023-03-01T18:57:21.514082,2031054,648,1119,1378,-1034,-576,-320,29,243,-121
25339,6291,0,2023-03-01T18:57:21.519324,2031059,650,1118,1381,-1030,-573,-322,29,243,-121
25340,6292,0,2023-03-01T18:57:21.525357,2031066,650,1118,1381,-1030,-573,-322,29,243,-121
25341,6293,0,2023-03-01T18:57:21.531428,2031072,650,1118,1381,-1030,-573,-322,29,243,-121
25342,6294,0,2023-03-01T18:57:21.536564,2031077,650,1118,1381,-1030,-573,-322,29,243,-121
25343,6295,0,2023-03-01T18:57:21.541400,2031082,648,1117,1377,-1027,-570,-321,29,243,-121
25344,6296,0,2023-03-01T18:57:21.548237,2031088,648,1117,1377,-1027,-570,-321,29,243,-121
25345,6297,0,2023-03-01T18:57:21.553943,2031094,648,1117,1377,-1027,-570,-321,29,243,-121
25346,6298,0,2023-03-01T18:57:21.558687,2031099,647,1119,1378,-1029,-572,-325,29,243,-121
25347,6299,0,2023-03-01T18:57:21.564130,2031105,647,1119,1378,-1029,-572,-325,29,243,-121
25348,6300,0,2023-03-01T18:57:21.569287,2031110,647,1119,1378,-1029,-572,-325,29,243,-121
25349,6301,0,2023-03-01T18:57:21.574744,2031116,647,1119,1378,-1029,-572,-325,29,243,-121
25350,6302,0,2023-03-01T18:57:21.579993,2031120,644,1119,1372,-1039,-569,-319,29,243,-121
25351,6303,0,2023-03-01T18:57:21.586624,2031127,644,1119,1372,-1039,-569,-319,29,243,-121
25352,6304,0,2023-03-01T18:57:21.592283,2031133,644,1119,1372,-1039,-569,-319,29,243,-121
25353,6305,0,2023-03-01T18:57:21.597065,2031138,644,1122,1371,-1037,-570,-320,29,243,-121
25354,6306,0,2023-03-01T18:57:21.603547,2031144,644,1122,1371,-1037,-570,-320,29,243,-121
25355,6307,0,2023-03-01T18:57:21.608812,2031150,644,1122,1371,-1037,-570,-320,29,243,-121
25356,6308,0,2023-03-01T18:57:21.614178,2031155,644,1122,1371,-1037,-570,-320,29,243,-121
25357,6309,0,2023-03-01T18:57:21.619398,2031160,648,1119,1380,-1033,-575,-322,30,240,-118
25358,6310,0,2023-03-01T18:57:21.623922,2031165,648,1119,1380,-1033,-575,-322,30,240,-118
25359,6311,0,2023-03-01T18:57:21.629033,2031169,648,1119,1380,-1033,-575,-322,30,240,-118
25360,6312,0,2023-03-01T18:57:21.635284,2031175,648,1119,1380,-1033,-575,-322,30,240,-118
25361,6313,0,2023-03-01T18:57:21.640291,2031181,648,1121,1374,-1042,-575,-320,30,240,-118
25362,6314,0,2023-03-01T18:57:21.646418,2031187,648,1121,1374,-1042,-575,-320,30,240,-118
25363,6315,0,2023-03-01T18:57:21.651907,2031193,648,1121,1374,-1042,-575,-320,30,240,-118
25364,6316,0,2023-03-01T18:57:21.657042,2031198,653,1120,1374,-1031,-575,-313,30,240,-118
25365,6317,0,2023-03-01T18:57:21.661762,2031203,653,1120,1374,-1031,-575,-313,30,240,-118
25366,6318,0,2023-03-01T18:57:21.666394,2031207,653,1120,1374,-1031,-575,-313,30,240,-118
25367,6319,0,2023-03-01T18:57:21.671398,2031212,653,1120,1374,-1031,-575,-313,30,240,-118
25368,6320,0,2023-03-01T18:57:21.676625,2031217,653,1120,1374,-1031,-575,-313,30,240,-118
25369,6321,0,2023-03-01T18:57:21.681910,2031222,651,1117,1372,-1035,-569,-321,30,240,-118
25370,6322,0,2023-03-01T18:57:21.688289,2031228,651,1117,1372,-1035,-569,-321,30,240,-118
25371,6323,0,2023-03-01T18:57:21.694554,2031235,651,1117,1372,-1035,-569,-321,30,240,-118
25372,6324,0,2023-03-01T18:57:21.699174,2031240,651,1118,1380,-1034,-565,-324,30,240,-118
25373,6325,0,2023-03-01T18:57:21.704459,2031246,651,1118,1380,-1034,-565,-324,30,240,-118
25374,6326,0,2023-03-01T18:57:21.709971,2031251,651,1118,1380,-1034,-565,-324,30,240,-118
25375,6327,0,2023-03-01T18:57:21.715135,2031256,651,1118,1380,-1034,-565,-324,30,240,-118
25376,6328,0,2023-03-01T18:57:21.719820,2031261,647,1118,1372,-1040,-566,-326,30,240,-118
25377,6329,0,2023-03-01T18:57:21.725254,2031265,647,1118,1372,-1040,-566,-326,30,240,-118
25378,6330,0,2023-03-01T18:57:21.730602,2031271,647,1118,1372,-1040,-566,-326,30,240,-118
25379,6331,0,2023-03-01T18:57:21.735350,2031277,647,1118,1372,-1040,-566,-326,30,240,-118
25380,6332,0,2023-03-01T18:57:21.739984,2031281,651,1121,1378,-1039,-572,-323,30,240,-118
25381,6333,0,2023-03-01T18:57:21.745431,2031286,651,1121,1378,-1039,-572,-323,30,240,-118
25382,6334,0,2023-03-01T18:57:21.751483,2031292,651,1121,1378,-1039,-572,-323,30,240,-118
25383,6335,0,2023-03-01T18:57:21.756356,2031297,651,1121,1378,-1039,-572,-323,30,240,-118
25384,6336,0,2023-03-01T18:57:21.760996,2031302,649,1118,1382,-1047,-579,-320,24,234,-128
25385,6337,0,2023-03-01T18:57:21.766280,2031307,649,1118,1382,-1047,-579,-320,24,234,-128
25386,6338,0,2023-03-01T18:57:21.772660,2031313,649,1118,1382,-1047,-579,-320,24,234,-128
25387,6339,0,2023-03-01T18:57:21.777811,2031319,651,1119,1382,-1033,-577,-318,24,234,-128
25388,6340,0,2023-03-01T18:57:21.784240,2031325,651,1119,1382,-1033,-577,-318,24,234,-128
25389,6341,0,2023-03-01T18:57:21.790847,2031332,651,1119,1382,-1033,-577,-318,24,234,-128
25390,6342,0,2023-03-01T18:57:21.796350,2031337,651,1119,1382,-1033,-577,-318,24,234,-128
25391,6343,0,2023-03-01T18:57:21.801341,2031342,652,1119,1373,-1027,-569,-325,24,234,-128
25392,6344,0,2023-03-01T18:57:21.807769,2031348,652,1119,1373,-1027,-569,-325,24,234,-128
25393,6345,0,2023-03-01T18:57:21.813733,2031354,652,1119,1373,-1027,-569,-325,24,234,-128
25394,6346,0,2023-03-01T18:57:21.818927,2031360,650,1119,1369,-1031,-568,-323,24,234,-128
25395,6347,0,2023-03-01T18:57:21.824557,2031365,650,1119,1369,-1031,-568,-323,24,234,-128
25396,6348,0,2023-03-01T18:57:21.829432,2031370,650,1119,1369,-1031,-568,-323,24,234,-128
25397,6349,0,2023-03-01T18:57:21.834385,2031375,650,1119,1369,-1031,-568,-323,24,234,-128
25398,6350,0,2023-03-01T18:57:21.840117,2031381,650,1122,1374,-1035,-566,-325,24,234,-128
25399,6351,0,2023-03-01T18:57:21.846453,2031387,650,1122,1374,-1035,-566,-325,24,234,-128
25400,6352,0,2023-03-01T18:57:21.852177,2031392,650,1122,1374,-1035,-566,-325,24,234,-128
25401,6353,0,2023-03-01T18:57:21.857499,2031398,648,1120,1376,-1035,-570,-325,24,234,-128
25402,6354,0,2023-03-01T18:57:21.863925,2031405,648,1120,1376,-1035,-570,-325,24,234,-128
25403,6355,0,2023-03-01T18:57:21.869251,2031410,648,1120,1376,-1035,-570,-325,24,234,-128
25404,6356,0,2023-03-01T18:57:21.874785,2031416,648,1120,1376,-1035,-570,-325,24,234,-128
25405,6357,0,2023-03-01T18:57:21.879678,2031420,651,1121,1377,-1040,-569,-319,31,233,-117
25406,6358,0,2023-03-01T18:57:21.885240,2031426,651,1121,1377,-1040,-569,-319,31,233,-117
25407,6359,0,2023-03-01T18:57:21.891223,2031431,651,1121,1377,-1040,-569,-319,31,233,-117
25408,6360,0,2023-03-01T18:57:21.896931,2031437,651,1121,1377,-1040,-569,-319,31,233,-117
25409,6361,0,2023-03-01T18:57:21.901755,2031442,650,1118,1373,-1047,-577,-316,31,233,-117
25410,6362,0,2023-03-01T18:57:21.907071,2031448,650,1118,1373,-1047,-577,-316,31,233,-117
25411,6363,0,2023-03-01T18:57:21.913128,2031454,650,1118,1373,-1047,-577,-316,31,233,-117
25412,6364,0,2023-03-01T18:57:21.918682,2031459,647,1117,1373,-1041,-570,-321,31,233,-117
25413,6365,0,2023-03-01T18:57:21.924792,2031465,647,1117,1373,-1041,-570,-321,31,233,-117
25414,6366,0,2023-03-01T18:57:21.929905,2031471,647,1117,1373,-1041,-570,-321,31,233,-117
25415,6367,0,2023-03-01T18:57:21.935135,2031476,647,1117,1373,-1041,-570,-321,31,233,-117
25416,6368,0,2023-03-01T18:57:21.940025,2031480,650,1119,1371,-1039,-573,-322,31,233,-117
25417,6369,0,2023-03-01T18:57:21.944657,2031485,650,1119,1371,-1039,-573,-322,31,233,-117
25418,6370,0,2023-03-01T18:57:21.950533,2031491,650,1119,1371,-1039,-573,-322,31,233,-117
25419,6371,0,2023-03-01T18:57:21.955738,2031496,650,1119,1371,-1039,-573,-322,31,233,-117
25420,6372,0,2023-03-01T18:57:21.960546,2031501,648,1119,1376,-1032,-576,-324,31,233,-117
25421,6373,0,2023-03-01T18:57:21.967032,2031508,648,1119,1376,-1032,-576,-324,31,233,-117
25422,6374,0,2023-03-01T18:57:21.972517,2031513,648,1119,1376,-1032,-576,-324,31,233,-117
25423,6375,0,2023-03-01T18:57:21.977991,2031518,649,1120,1377,-1038,-576,-329,31,233,-117
25424,6376,0,2023-03-01T18:57:21.984368,2031524,649,1120,1377,-1038,-576,-329,31,233,-117
25425,6377,0,2023-03-01T18:57:21.989369,2031531,649,1120,1377,-1038,-576,-329,31,233,-117
25426,6378,0,2023-03-01T18:57:21.995222,2031536,649,1120,1377,-1038,-576,-329,31,233,-117
25427,6379,0,2023-03-01T18:57:22.000760,2031541,650,1120,1370,-1042,-571,-321,31,233,-117
25428,6380,0,2023-03-01T18:57:22.008407,2031549,650,1120,1370,-1042,-571,-321,31,233,-117
25429,6381,0,2023-03-01T18:57:22.013257,2031554,650,1120,1370,-1042,-571,-321,31,233,-117
25430,6382,0,2023-03-01T18:57:22.017966,2031559,648,1119,1376,-1039,-578,-325,36,242,-132
25431,6383,0,2023-03-01T18:57:22.023960,2031564,648,1119,1376,-1039,-578,-325,36,242,-132
25432,6384,0,2023-03-01T18:57:22.029291,2031569,648,1119,1376,-1039,-578,-325,36,242,-132
25433,6385,0,2023-03-01T18:57:22.034706,2031576,648,1119,1376,-1039,-578,-325,36,242,-132
25434,6386,0,2023-03-01T18:57:22.039637,2031581,650,1115,1376,-1039,-579,-314,36,242,-132
25435,6387,0,2023-03-01T18:57:22.045545,2031586,650,1115,1376,-1039,-579,-314,36,242,-132
25436,6388,0,2023-03-01T18:57:22.051127,2031592,650,1115,1376,-1039,-579,-314,36,242,-132
25437,6389,0,2023-03-01T18:57:22.055861,2031597,650,1115,1376,-1039,-579,-314,36,242,-132
25438,6390,0,2023-03-01T18:57:22.061487,2031601,651,1119,1371,-1036,-575,-323,36,242,-132
25439,6391,0,2023-03-01T18:57:22.068575,2031608,651,1119,1371,-1036,-575,-323,36,242,-132
25440,6392,0,2023-03-01T18:57:22.073862,2031614,651,1119,1371,-1036,-575,-323,36,242,-132
25441,6393,0,2023-03-01T18:57:22.079122,2031620,652,1120,1377,-1041,-564,-325,36,242,-132
25442,6394,0,2023-03-01T18:57:22.085825,2031627,652,1120,1377,-1041,-564,-325,36,242,-132
25443,6395,0,2023-03-01T18:57:22.091226,2031632,652,1120,1377,-1041,-564,-325,36,242,-132
25444,6396,0,2023-03-01T18:57:22.096025,2031637,652,1120,1377,-1041,-564,-325,36,242,-132
25445,6397,0,2023-03-01T18:57:22.101391,2031642,648,1119,1376,-1036,-572,-329,36,242,-132
25446,6398,0,2023-03-01T18:57:22.107987,2031648,648,1119,1376,-1036,-572,-329,36,242,-132
25447,6399,0,2023-03-01T18:57:22.113993,2031654,648,1119,1376,-1036,-572,-329,36,242,-132
25448,6400,0,2023-03-01T18:57:22.119247,2031660,649,1120,1372,-1036,-571,-323,36,242,-132
25449,6401,0,2023-03-01T18:57:22.125088,2031666,649,1120,1372,-1036,-571,-323,36,242,-132
25450,6402,0,2023-03-01T18:57:22.130357,2031671,649,1120,1372,-1036,-571,-323,36,242,-132
25451,6403,0,2023-03-01T18:57:22.135100,2031676,649,1120,1372,-1036,-571,-323,36,242,-132
25452,6404,0,2023-03-01T18:57:22.140271,2031681,651,1121,1379,-1038,-571,-321,25,237,-123
25453,6405,0,2023-03-01T18:57:22.146175,2031687,651,1121,1379,-1038,-571,-321,25,237,-123
25454,6406,0,2023-03-01T18:57:22.152019,2031692,651,1121,1379,-1038,-571,-321,25,237,-123
25455,6407,0,2023-03-01T18:57:22.157040,2031697,651,1121,1379,-1038,-571,-321,25,237,-123
25456,6408,0,2023-03-01T18:57:22.162317,2031703,652,1118,1370,-1037,-567,-324,25,237,-123
25457,6409,0,2023-03-01T18:57:22.168056,2031709,652,1118,1370,-1037,-567,-324,25,237,-123
25458,6410,0,2023-03-01T18:57:22.173289,2031714,652,1118,1370,-1037,-567,-324,25,237,-123
25459,6411,0,2023-03-01T18:57:22.178202,2031719,650,1120,1378,-1034,-575,-321,25,237,-123
25460,6412,0,2023-03-01T18:57:22.184472,2031725,650,1120,1378,-1034,-575,-321,25,237,-123
25461,6413,0,2023-03-01T18:57:22.190686,2031731,650,1120,1378,-1034,-575,-321,25,237,-123
25462,6414,0,2023-03-01T18:57:22.196423,2031737,650,1120,1378,-1034,-575,-321,25,237,-123
25463,6415,0,2023-03-01T18:57:22.201416,2031742,650,1121,1368,-1038,-570,-318,25,237,-123
25464,6416,0,2023-03-01T18:57:22.205930,2031747,650,1121,1368,-1038,-570,-318,25,237,-123
25465,6417,0,2023-03-01T18:57:22.211472,2031753,650,1121,1368,-1038,-570,-318,25,237,-123
25466,6418,0,2023-03-01T18:57:22.216688,2031757,650,1121,1368,-1038,-570,-318,25,237,-123
25467,6419,0,2023-03-01T18:57:22.222151,2031762,651,1120,1376,-1023,-565,-322,25,237,-123
25468,6420,0,2023-03-01T18:57:22.228712,2031769,651,1120,1376,-1023,-565,-322,25,237,-123
25469,6421,0,2023-03-01T18:57:22.234174,2031774,651,1120,1376,-1023,-565,-322,25,237,-123
25470,6422,0,2023-03-01T18:57:22.239468,2031780,650,1119,1380,-1035,-566,-321,25,237,-123
25471,6423,0,2023-03-01T18:57:22.245659,2031787,650,1119,1380,-1035,-566,-321,25,237,-123
25472,6424,0,2023-03-01T18:57:22.251428,2031793,650,1119,1380,-1035,-566,-321,25,237,-123
25473,6425,0,2023-03-01T18:57:22.256237,2031797,650,1119,1380,-1035,-566,-321,25,237,-123
25474,6426,0,2023-03-01T18:57:22.260946,2031802,650,1121,1377,-1038,-573,-317,25,237,-123
25475,6427,0,2023-03-01T18:57:22.267652,2031808,650,1121,1377,-1038,-573,-317,25,237,-123
25476,6428,0,2023-03-01T18:57:22.273423,2031814,650,1121,1377,-1038,-573,-317,25,237,-123
25477,6429,0,2023-03-01T18:57:22.278254,2031819,648,1120,1383,-1043,-569,-327,25,237,-123
25478,6430,0,2023-03-01T18:57:22.284315,2031825,648,1120,1383,-1043,-569,-327,25,237,-123
25479,6431,0,2023-03-01T18:57:22.289800,2031831,648,1120,1383,-1043,-569,-327,25,237,-123
25480,6432,0,2023-03-01T18:57:22.294390,2031836,648,1120,1383,-1043,-569,-327,25,237,-123
25481,6433,0,2023-03-01T18:57:22.299395,2031840,650,1119,1376,-1045,-574,-326,25,237,-123
25482,6434,0,2023-03-01T18:57:22.304906,2031845,650,1119,1376,-1045,-574,-326,25,237,-123
25483,6435,0,2023-03-01T18:57:22.310439,2031851,650,1119,1376,-1045,-574,-326,25,237,-123
25484,6436,0,2023-03-01T18:57:22.315378,2031856,650,1119,1376,-1045,-574,-326,25,237,-123
25485,6437,0,2023-03-01T18:57:22.320559,2031861,649,1119,1373,-1034,-574,-318,25,237,-123
25486,6438,0,2023-03-01T18:57:22.326551,2031867,649,1119,1373,-1034,-574,-318,25,237,-123
25487,6439,0,2023-03-01T18:57:22.332644,2031874,649,1119,1373,-1034,-574,-318,25,237,-123
25488,6440,0,2023-03-01T18:57:22.337805,2031879,649,1119,1381,-1032,-568,-328,25,237,-123
25489,6441,0,2023-03-01T18:57:22.343533,2031885,649,1119,1381,-1032,-568,-328,25,237,-123
25490,6442,0,2023-03-01T18:57:22.348914,2031889,649,1119,1381,-1032,-568,-328,25,237,-123
25491,6443,0,2023-03-01T18:57:22.354976,2031896,649,1119,1381,-1032,-568,-328,25,237,-123
25492,6444,0,2023-03-01T18:57:22.359947,2031901,649,1120,1372,-1036,-566,-326,25,237,-123
25493,6445,0,2023-03-01T18:57:22.365977,2031906,649,1120,1372,-1036,-566,-326,25,237,-123
25494,6446,0,2023-03-01T18:57:22.371602,2031912,649,1120,1372,-1036,-566,-326,25,237,-123
25495,6447,0,2023-03-01T18:57:22.376409,2031918,649,1120,1372,-1036,-566,-326,25,237,-123
25496,6448,0,2023-03-01T18:57:22.381405,2031922,649,1121,1377,-1037,-567,-320,25,237,-123
25497,6449,0,2023-03-01T18:57:22.387388,2031928,649,1121,1377,-1037,-567,-320,25,237,-123
25498,6450,0,2023-03-01T18:57:22.392833,2031934,649,1121,1377,-1037,-567,-320,25,237,-123
25499,6451,0,2023-03-01T18:57:22.397905,2031939,649,1118,1376,-1035,-567,-323,25,237,-123
25500,6452,0,2023-03-01T18:57:22.403985,2031944,649,1118,1376,-1035,-567,-323,29,235,-131
25501,6453,0,2023-03-01T18:57:22.408887,2031949,649,1118,1376,-1035,-567,-323,29,235,-131
25502,6454,0,2023-03-01T18:57:22.414757,2031955,649,1118,1376,-1035,-567,-323,29,235,-131
25503,6455,0,2023-03-01T18:57:22.420346,2031961,649,1118,1375,-1039,-575,-322,29,235,-131
25504,6456,0,2023-03-01T18:57:22.426925,2031968,649,1118,1375,-1039,-575,-322,29,235,-131
25505,6457,0,2023-03-01T18:57:22.433118,2031974,649,1118,1375,-1039,-575,-322,29,235,-131
25506,6458,0,2023-03-01T18:57:22.439803,2031980,649,1118,1374,-1031,-576,-326,29,235,-131
25507,6459,0,2023-03-01T18:57:22.446237,2031987,649,1118,1374,-1031,-576,-326,29,235,-131
25508,6460,0,2023-03-01T18:57:22.451737,2031992,649,1118,1374,-1031,-576,-326,29,235,-131
25509,6461,0,2023-03-01T18:57:22.456842,2031997,649,1118,1374,-1031,-576,-326,29,235,-131
25510,6462,0,2023-03-01T18:57:22.462320,2032003,649,1119,1371,-1043,-575,-317,29,235,-131
25511,6463,0,2023-03-01T18:57:22.468839,2032010,649,1119,1371,-1043,-575,-317,29,235,-131
25512,6464,0,2023-03-01T18:57:22.474332,2032015,649,1119,1371,-1043,-575,-317,29,235,-131
25513,6465,0,2023-03-01T18:57:22.479294,2032020,648,1118,1369,-1041,-578,-321,29,235,-131
25514,6466,0,2023-03-01T18:57:22.483932,2032025,648,1118,1369,-1041,-578,-321,29,235,-131
25515,6467,0,2023-03-01T18:57:22.488593,2032029,648,1118,1369,-1041,-578,-321,29,235,-131
25516,6468,0,2023-03-01T18:57:22.494127,2032034,648,1118,1369,-1041,-578,-321,29,235,-131
25517,6469,0,2023-03-01T18:57:22.499637,2032040,649,1116,1371,-1039,-575,-325,29,235,-131
25518,6470,0,2023-03-01T18:57:22.505961,2032047,649,1116,1371,-1039,-575,-325,29,235,-131
25519,6471,0,2023-03-01T18:57:22.511703,2032052,649,1116,1371,-1039,-575,-325,29,235,-131
25520,6472,0,2023-03-01T18:57:22.516951,2032058,649,1116,1371,-1039,-575,-325,29,235,-131
25521,6473,0,2023-03-01T18:57:22.522299,2032063,648,1120,1375,-1036,-574,-323,32,232,-124
25522,6474,0,2023-03-01T18:57:22.529245,2032070,648,1120,1375,-1036,-574,-323,32,232,-124
25523,6475,0,2023-03-01T18:57:22.535353,2032076,648,1120,1375,-1036,-574,-323,32,232,-124
25524,6476,0,2023-03-01T18:57:22.540873,2032081,648,1119,1374,-1042,-566,-329,32,232,-124
25525,6477,0,2023-03-01T18:57:22.546860,2032088,648,1119,1374,-1042,-566,-329,32,232,-124
25526,6478,0,2023-03-01T18:57:22.554867,2032096,648,1119,1374,-1042,-566,-329,32,232,-124
25527,6479,0,2023-03-01T18:57:22.559936,2032101,648,1118,1378,-1041,-574,-327,32,232,-124
25528,6480,0,2023-03-01T18:57:22.565779,2032106,648,1118,1378,-1041,-574,-327,32,232,-124
25529,6481,0,2023-03-01T18:57:22.570977,2032111,648,1118,1378,-1041,-574,-327,32,232,-124
25530,6482,0,2023-03-01T18:57:22.576323,2032117,648,1118,1378,-1041,-574,-327,32,232,-124
25531,6483,0,2023-03-01T18:57:22.581636,2032122,649,1119,1371,-1043,-574,-318,32,232,-124
25532,6484,0,2023-03-01T18:57:22.587460,2032129,649,1119,1371,-1043,-574,-318,32,232,-124
25533,6485,0,2023-03-01T18:57:22.592769,2032134,649,1119,1371,-1043,-574,-318,32,232,-124
25534,6486,0,2023-03-01T18:57:22.597591,2032139,649,1119,1371,-1043,-574,-318,32,232,-124
25535,6487,0,2023-03-01T18:57:22.602459,2032143,646,1117,1380,-1034,-574,-322,32,232,-124
25536,6488,0,2023-03-01T18:57:22.608926,2032149,646,1117,1380,-1034,-574,-322,32,232,-124
25537,6489,0,2023-03-01T18:57:22.615087,2032155,646,1117,1380,-1034,-574,-322,32,232,-124
25538,6490,0,2023-03-01T18:57:22.619753,2032160,647,1121,1373,-1037,-576,-327,32,232,-124
25539,6491,0,2023-03-01T18:57:22.625718,2032166,647,1121,1373,-1037,-576,-327,32,232,-124
25540,6492,0,2023-03-01T18:57:22.630735,2032172,647,1121,1373,-1037,-576,-327,32,232,-124
25541,6493,0,2023-03-01T18:57:22.635735,2032177,647,1121,1373,-1037,-576,-327,32,232,-124
25542,6494,0,2023-03-01T18:57:22.640829,2032181,646,1120,1375,-1027,-573,-322,32,232,-124
25543,6495,0,2023-03-01T18:57:22.647433,2032188,646,1120,1375,-1027,-573,-322,32,232,-124
25544,6496,0,2023-03-01T18:57:22.652911,2032194,646,1120,1375,-1027,-573,-322,32,232,-124
25545,6497,0,2023-03-01T18:57:22.657636,2032198,646,1120,1375,-1027,-573,-322,32,232,-124
25546,6498,0,2023-03-01T18:57:22.663236,2032203,649,1120,1376,-1032,-565,-318,40,242,-120
25547,6499,0,2023-03-01T18:57:22.669971,2032210,649,1120,1376,-1032,-565,-318,40,242,-120
25548,6500,0,2023-03-01T18:57:22.675404,2032217,649,1120,1376,-1032,-565,-318,40,242,-120
25549,6501,0,2023-03-01T18:57:22.680212,2032221,647,1120,1376,-1031,-566,-318,40,242,-120
25550,6502,0,2023-03-01T18:57:22.686482,2032227,647,1120,1376,-1031,-566,-318,40,242,-120
25551,6503,0,2023-03-01T18:57:22.692106,2032233,647,1120,1376,-1031,-566,-318,40,242,-120
25552,6504,0,2023-03-01T18:57:22.696856,2032238,647,1120,1376,-1031,-566,-318,40,242,-120
25553,6505,0,2023-03-01T18:57:22.701478,2032242,649,1121,1374,-1033,-573,-325,40,242,-120
25554,6506,0,2023-03-01T18:57:22.707264,2032248,649,1121,1374,-1033,-573,-325,40,242,-120
25555,6507,0,2023-03-01T18:57:22.712611,2032253,649,1121,1374,-1033,-573,-325,40,242,-120
25556,6508,0,2023-03-01T18:57:22.717697,2032258,649,1121,1374,-1033,-573,-325,40,242,-120
25557,6509,0,2023-03-01T18:57:22.722709,2032264,646,1120,1374,-1030,-578,-326,40,242,-120
25558,6510,0,2023-03-01T18:57:22.728481,2032269,646,1120,1374,-1030,-578,-326,40,242,-120
25559,6511,0,2023-03-01T18:57:22.733725,2032275,646,1120,1374,-1030,-578,-326,40,242,-120
25560,6512,0,2023-03-01T18:57:22.739085,2032280,648,1119,1375,-1035,-576,-321,40,242,-120
25561,6513,0,2023-03-01T18:57:22.744016,2032284,648,1119,1375,-1035,-576,-321,40,242,-120
25562,6514,0,2023-03-01T18:57:22.748692,2032289,648,1119,1375,-1035,-576,-321,40,242,-120
25563,6515,0,2023-03-01T18:57:22.753486,2032294,648,1119,1375,-1035,-576,-321,40,242,-120
25564,6516,0,2023-03-01T18:57:22.758364,2032300,647,1117,1375,-1031,-569,-332,40,242,-120
25565,6517,0,2023-03-01T18:57:22.764577,2032306,647,1117,1375,-1031,-569,-332,40,242,-120
25566,6518,0,2023-03-01T18:57:22.769734,2032311,647,1117,1375,-1031,-569,-332,40,242,-120
25567,6519,0,2023-03-01T18:57:22.776853,2032317,647,1117,1375,-1031,-569,-332,40,242,-120
25568,6520,0,2023-03-01T18:57:22.781951,2032323,649,1120,1373,-1033,-571,-332,33,237,-127
25569,6521,0,2023-03-01T18:57:22.788403,2032329,649,1120,1373,-1033,-571,-332,33,237,-127
25570,6522,0,2023-03-01T18:57:22.793701,2032334,649,1120,1373,-1033,-571,-332,33,237,-127
25571,6523,0,2023-03-01T18:57:22.798459,2032339,646,1121,1377,-1037,-573,-325,33,237,-127
25572,6524,0,2023-03-01T18:57:22.804359,2032346,646,1121,1377,-1037,-573,-325,33,237,-127
25573,6525,0,2023-03-01T18:57:22.810225,2032351,646,1121,1377,-1037,-573,-325,33,237,-127
25574,6526,0,2023-03-01T18:57:22.815697,2032357,646,1121,1377,-1037,-573,-325,33,237,-127
25575,6527,0,2023-03-01T18:57:22.820153,2032361,645,1118,1377,-1039,-571,-326,33,237,-127
25576,6528,0,2023-03-01T18:57:22.825683,2032366,645,1118,1377,-1039,-571,-326,33,237,-127
25577,6529,0,2023-03-01T18:57:22.830557,2032371,645,1118,1377,-1039,-571,-326,33,237,-127
25578,6530,0,2023-03-01T18:57:22.835600,2032376,645,1118,1377,-1039,-571,-326,33,237,-127
25579,6531,0,2023-03-01T18:57:22.840646,2032381,650,1118,1375,-1033,-573,-324,33,237,-127
25580,6532,0,2023-03-01T18:57:22.847095,2032388,650,1118,1375,-1033,-573,-324,33,237,-127
25581,6533,0,2023-03-01T18:57:22.852523,2032393,650,1118,1375,-1033,-573,-324,33,237,-127
25582,6534,0,2023-03-01T18:57:22.857749,2032399,650,1118,1375,-1033,-573,-324,33,237,-127
25583,6535,0,2023-03-01T18:57:22.862596,2032403,649,1120,1373,-1027,-563,-323,33,237,-127
25584,6536,0,2023-03-01T18:57:22.868633,2032409,649,1120,1373,-1027,-563,-323,33,237,-127
25585,6537,0,2023-03-01T18:57:22.874440,2032415,649,1120,1373,-1027,-563,-323,33,237,-127
25586,6538,0,2023-03-01T18:57:22.879358,2032420,648,1118,1379,-1031,-569,-319,33,237,-127
25587,6539,0,2023-03-01T18:57:22.887847,2032429,648,1118,1379,-1031,-569,-319,33,237,-127
25588,6540,0,2023-03-01T18:57:22.893726,2032435,648,1118,1379,-1031,-569,-319,33,237,-127
25589,6541,0,2023-03-01T18:57:22.898530,2032440,651,1118,1380,-1028,-570,-324,33,237,-127
25590,6542,0,2023-03-01T18:57:22.904906,2032446,651,1118,1380,-1028,-570,-324,33,237,-127
25591,6543,0,2023-03-01T18:57:22.910891,2032451,651,1118,1380,-1028,-570,-324,33,237,-127
25592,6544,0,2023-03-01T18:57:22.916273,2032457,651,1118,1380,-1028,-570,-324,33,237,-127
25593,6545,0,2023-03-01T18:57:22.920976,2032462,648,1116,1379,-1033,-571,-319,25,237,-131
25594,6546,0,2023-03-01T18:57:22.926839,2032467,648,1116,1379,-1033,-571,-319,25,237,-131
25595,6547,0,2023-03-01T18:57:22.932009,2032473,648,1116,1379,-1033,-571,-319,25,237,-131
25596,6548,0,2023-03-01T18:57:22.937026,2032478,648,1116,1379,-1033,-571,-319,25,237,-131
25597,6549,0,2023-03-01T18:57:22.942175,2032483,650,1119,1372,-1036,-574,-324,25,237,-131
25598,6550,0,2023-03-01T18:57:22.948669,2032489,650,1119,1372,-1036,-574,-324,25,237,-131
25599,6551,0,2023-03-01T18:57:22.954317,2032495,650,1119,1372,-1036,-574,-324,25,237,-131
25600,6552,0,2023-03-01T18:57:22.959453,2032500,650,1117,1375,-1029,-571,-328,25,237,-131
25601,6553,0,2023-03-01T18:57:22.965609,2032506,650,1117,1375,-1029,-571,-328,25,237,-131
25602,6554,0,2023-03-01T18:57:22.971427,2032513,650,1117,1375,-1029,-571,-328,25,237,-131
25603,6555,0,2023-03-01T18:57:22.976673,2032517,650,1117,1375,-1029,-571,-328,25,237,-131
25604,6556,0,2023-03-01T18:57:22.982843,2032524,647,1117,1378,-1037,-567,-319,25,237,-131
25605,6557,0,2023-03-01T18:57:22.989454,2032530,647,1117,1378,-1037,-567,-319,25,237,-131
25606,6558,0,2023-03-01T18:57:22.995512,2032536,647,1117,1378,-1037,-567,-319,25,237,-131
25607,6559,0,2023-03-01T18:57:23.001437,2032541,648,1122,1377,-1037,-566,-316,25,237,-131
25608,6560,0,2023-03-01T18:57:23.008906,2032549,648,1122,1377,-1037,-566,-316,25,237,-131
25609,6561,0,2023-03-01T18:57:23.014236,2032555,648,1122,1377,-1037,-566,-316,25,237,-131
25610,6562,0,2023-03-01T18:57:23.019337,2032561,646,1118,1379,-1034,-561,-311,25,237,-131
25611,6563,0,2023-03-01T18:57:23.025222,2032566,646,1118,1379,-1034,-561,-311,25,237,-131
25612,6564,0,2023-03-01T18:57:23.031077,2032572,646,1118,1379,-1034,-561,-311,25,237,-131
25613,6565,0,2023-03-01T18:57:23.036249,2032577,646,1118,1379,-1034,-561,-311,25,237,-131
25614,6566,0,2023-03-01T18:57:23.040914,2032582,650,1120,1384,-1035,-569,-317,35,237,-129
25615,6567,0,2023-03-01T18:57:23.046761,2032587,650,1120,1384,-1035,-569,-317,35,237,-129
25616,6568,0,2023-03-01T18:57:23.052409,2032593,650,1120,1384,-1035,-569,-317,35,237,-129
25617,6569,0,2023-03-01T18:57:23.057396,2032599,650,1120,1384,-1035,-569,-317,35,237,-129
25618,6570,0,2023-03-01T18:57:23.062181,2032603,651,1115,1377,-1039,-576,-319,35,237,-129
25619,6571,0,2023-03-01T18:57:23.068639,2032609,651,1115,1377,-1039,-576,-319,35,237,-129
25620,6572,0,2023-03-01T18:57:23.073835,2032615,651,1115,1377,-1039,-576,-319,35,237,-129
25621,6573,0,2023-03-01T18:57:23.079445,2032620,649,1115,1376,-1045,-573,-323,35,237,-129
25622,6574,0,2023-03-01T18:57:23.085691,2032626,649,1115,1376,-1045,-573,-323,35,237,-129
25623,6575,0,2023-03-01T18:57:23.090729,2032631,649,1115,1376,-1045,-573,-323,35,237,-129
25624,6576,0,2023-03-01T18:57:23.095736,2032636,649,1115,1376,-1045,-573,-323,35,237,-129
25625,6577,0,2023-03-01T18:57:23.101069,2032642,648,1119,1380,-1036,-574,-332,35,237,-129
25626,6578,0,2023-03-01T18:57:23.108313,2032649,648,1119,1380,-1036,-574,-332,35,237,-129
25627,6579,0,2023-03-01T18:57:23.114121,2032655,648,1119,1380,-1036,-574,-332,35,237,-129
25628,6580,0,2023-03-01T18:57:23.118854,2032660,648,1118,1370,-1039,-576,-319,35,237,-129
25629,6581,0,2023-03-01T18:57:23.124866,2032666,648,1118,1370,-1039,-576,-319,35,237,-129
25630,6582,0,2023-03-01T18:57:23.130599,2032671,648,1118,1370,-1039,-576,-319,35,237,-129
25631,6583,0,2023-03-01T18:57:23.135598,2032676,648,1118,1370,-1039,-576,-319,35,237,-129
25632,6584,0,2023-03-01T18:57:23.140572,2032681,648,1118,1370,-1039,-576,-319,35,237,-129
25633,6585,0,2023-03-01T18:57:23.146062,2032687,648,1118,1370,-1039,-576,-319,35,237,-129
25634,6586,0,2023-03-01T18:57:23.151473,2032693,648,1118,1370,-1039,-576,-319,35,237,-129
25635,6587,0,2023-03-01T18:57:23.156634,2032697,648,1118,1370,-1039,-576,-319,35,237,-129
25636,6588,0,2023-03-01T18:57:23.161592,2032702,650,1117,1376,-1025,-567,-325,30,236,-132
25637,6589,0,2023-03-01T18:57:23.167876,2032708,650,1117,1376,-1025,-567,-325,30,236,-132
25638,6590,0,2023-03-01T18:57:23.173403,2032714,650,1117,1376,-1025,-567,-325,30,236,-132
25639,6591,0,2023-03-01T18:57:23.178432,2032719,650,1117,1376,-1025,-567,-325,30,236,-132
25640,6592,0,2023-03-01T18:57:23.185095,2032724,648,1119,1381,-1039,-574,-318,30,236,-132
25641,6593,0,2023-03-01T18:57:23.191331,2032732,648,1119,1381,-1039,-574,-318,30,236,-132
25642,6594,0,2023-03-01T18:57:23.197016,2032738,648,1119,1381,-1039,-574,-318,30,236,-132
25643,6595,0,2023-03-01T18:57:23.201739,2032743,649,1122,1376,-1034,-568,-326,30,236,-132
25644,6596,0,2023-03-01T18:57:23.207414,2032748,649,1122,1376,-1034,-568,-326,30,236,-132
25645,6597,0,2023-03-01T18:57:23.213040,2032754,649,1122,1376,-1034,-568,-326,30,236,-132
25646,6598,0,2023-03-01T18:57:23.220939,2032761,650,1120,1374,-1033,-572,-316,30,236,-132
25647,6599,0,2023-03-01T18:57:23.226315,2032768,650,1120,1374,-1033,-572,-316,30,236,-132
25648,6600,0,2023-03-01T18:57:23.231887,2032773,650,1120,1374,-1033,-572,-316,30,236,-132
25649,6601,0,2023-03-01T18:57:23.236701,2032778,650,1120,1374,-1033,-572,-316,30,236,-132
25650,6602,0,2023-03-01T18:57:23.241506,2032783,648,1122,1371,-1046,-566,-314,30,236,-132
25651,6603,0,2023-03-01T18:57:23.247769,2032789,648,1122,1371,-1046,-566,-314,30,236,-132
25652,6604,0,2023-03-01T18:57:23.253347,2032794,648,1122,1371,-1046,-566,-314,30,236,-132
25653,6605,0,2023-03-01T18:57:23.258199,2032799,648,1122,1371,-1046,-566,-314,30,236,-132
25654,6606,0,2023-03-01T18:57:23.263286,2032804,648,1119,1374,-1038,-575,-320,30,236,-132
25655,6607,0,2023-03-01T18:57:23.269651,2032811,648,1119,1374,-1038,-575,-320,30,236,-132
25656,6608,0,2023-03-01T18:57:23.274087,2032815,648,1119,1374,-1038,-575,-320,30,236,-132
25657,6609,0,2023-03-01T18:57:23.279174,2032820,648,1121,1370,-1031,-574,-316,30,236,-132
25658,6610,0,2023-03-01T18:57:23.284616,2032826,648,1121,1370,-1031,-574,-316,30,236,-132
25659,6611,0,2023-03-01T18:57:23.289685,2032831,648,1121,1370,-1031,-574,-316,30,236,-132
25660,6612,0,2023-03-01T18:57:23.295306,2032836,648,1121,1370,-1031,-574,-316,30,236,-132
25661,6613,0,2023-03-01T18:57:23.300129,2032841,646,1118,1375,-1039,-569,-319,34,238,-124
25662,6614,0,2023-03-01T18:57:23.306467,2032847,646,1118,1375,-1039,-569,-319,34,238,-124
25663,6615,0,2023-03-01T18:57:23.312082,2032852,646,1118,1375,-1039,-569,-319,34,238,-124
25664,6616,0,2023-03-01T18:57:23.316972,2032858,646,1118,1375,-1039,-569,-319,34,238,-124
25665,6617,0,2023-03-01T18:57:23.321780,2032863,649,1119,1377,-1036,-571,-325,34,238,-124
25666,6618,0,2023-03-01T18:57:23.327685,2032868,649,1119,1377,-1036,-571,-325,34,238,-124
25667,6619,0,2023-03-01T18:57:23.334720,2032875,649,1119,1377,-1036,-571,-325,34,238,-124
25668,6620,0,2023-03-01T18:57:23.339965,2032881,649,1119,1374,-1030,-570,-321,34,238,-124
25669,6621,0,2023-03-01T18:57:23.346002,2032887,649,1119,1374,-1030,-570,-321,34,238,-124
25670,6622,0,2023-03-01T18:57:23.352010,2032892,649,1119,1374,-1030,-570,-321,34,238,-124
25671,6623,0,2023-03-01T18:57:23.357451,2032899,649,1119,1374,-1030,-570,-321,34,238,-124
25672,6624,0,2023-03-01T18:57:23.362476,2032903,651,1121,1375,-1037,-573,-320,34,238,-124
25673,6625,0,2023-03-01T18:57:23.368514,2032910,651,1121,1375,-1037,-573,-320,34,238,-124
25674,6626,0,2023-03-01T18:57:23.373888,2032915,651,1121,1375,-1037,-573,-320,34,238,-124
25675,6627,0,2023-03-01T18:57:23.379006,2032920,651,1121,1375,-1037,-573,-320,34,238,-124
25676,6628,0,2023-03-01T18:57:23.384845,2032925,648,1120,1374,-1035,-567,-319,34,238,-124
25677,6629,0,2023-03-01T18:57:23.390289,2032931,648,1120,1374,-1035,-567,-319,34,238,-124
25678,6630,0,2023-03-01T18:57:23.396073,2032936,648,1120,1374,-1035,-567,-319,34,238,-124
25679,6631,0,2023-03-01T18:57:23.401169,2032942,652,1120,1375,-1028,-566,-318,34,238,-124
25680,6632,0,2023-03-01T18:57:23.407676,2032948,652,1120,1375,-1028,-566,-318,34,238,-124
25681,6633,0,2023-03-01T18:57:23.412769,2032954,652,1120,1375,-1028,-566,-318,34,238,-124
25682,6634,0,2023-03-01T18:57:23.418049,2032959,652,1120,1375,-1028,-566,-318,34,238,-124
25683,6635,0,2023-03-01T18:57:23.422895,2032964,650,1120,1377,-1030,-574,-322,26,240,-122
25684,6636,0,2023-03-01T18:57:23.429918,2032970,650,1120,1377,-1030,-574,-322,26,240,-122
25685,6637,0,2023-03-01T18:57:23.436919,2032976,650,1120,1377,-1030,-574,-322,26,240,-122
25686,6638,0,2023-03-01T18:57:23.442426,2032984,648,1119,1375,-1034,-572,-329,26,240,-122
25687,6639,0,2023-03-01T18:57:23.448705,2032990,648,1119,1375,-1034,-572,-329,26,240,-122
25688,6640,0,2023-03-01T18:57:23.454374,2032995,648,1119,1375,-1034,-572,-329,26,240,-122
25689,6641,0,2023-03-01T18:57:23.459409,2033000,647,1118,1375,-1025,-568,-326,26,240,-122
25690,6642,0,2023-03-01T18:57:23.465603,2033006,647,1118,1375,-1025,-568,-326,26,240,-122
25691,6643,0,2023-03-01T18:57:23.471557,2033012,647,1118,1375,-1025,-568,-326,26,240,-122
25692,6644,0,2023-03-01T18:57:23.476560,2033017,647,1118,1375,-1025,-568,-326,26,240,-122
25693,6645,0,2023-03-01T18:57:23.481735,2033022,650,1117,1370,-1031,-573,-322,26,240,-122
25694,6646,0,2023-03-01T18:57:23.488183,2033029,650,1117,1370,-1031,-573,-322,26,240,-122
25695,6647,0,2023-03-01T18:57:23.494104,2033035,650,1117,1370,-1031,-573,-322,26,240,-122
25696,6648,0,2023-03-01T18:57:23.499139,2033040,645,1119,1373,-1045,-564,-320,26,240,-122
25697,6649,0,2023-03-01T18:57:23.505331,2033046,645,1119,1373,-1045,-564,-320,26,240,-122
25698,6650,0,2023-03-01T18:57:23.510528,2033051,645,1119,1373,-1045,-564,-320,26,240,-122
25699,6651,0,2023-03-01T18:57:23.515741,2033056,645,1119,1373,-1045,-564,-320,26,240,-122
25700,6652,0,2023-03-01T18:57:23.520846,2033061,649,1118,1377,-1039,-572,-319,26,240,-122
25701,6653,0,2023-03-01T18:57:23.526898,2033068,649,1118,1377,-1039,-572,-319,26,240,-122
25702,6654,0,2023-03-01T18:57:23.532764,2033074,649,1118,1377,-1039,-572,-319,26,240,-122
25703,6655,0,2023-03-01T18:57:23.538202,2033079,649,1118,1377,-1039,-572,-319,26,240,-122
25704,6656,0,2023-03-01T18:57:23.543130,2033084,647,1119,1378,-1035,-574,-321,26,240,-122
25705,6657,0,2023-03-01T18:57:23.550763,2033091,647,1119,1378,-1035,-574,-321,26,240,-122
25706,6658,0,2023-03-01T18:57:23.557060,2033097,647,1119,1378,-1035,-574,-321,26,240,-122
25707,6659,0,2023-03-01T18:57:23.561852,2033102,650,1119,1374,-1039,-572,-314,30,236,-124
25708,6660,0,2023-03-01T18:57:23.568026,2033108,650,1119,1374,-1039,-572,-314,30,236,-124
25709,6661,0,2023-03-01T18:57:23.573240,2033114,650,1119,1374,-1039,-572,-314,30,236,-124
25710,6662,0,2023-03-01T18:57:23.578641,2033119,650,1119,1374,-1039,-572,-314,30,236,-124
25711,6663,0,2023-03-01T18:57:23.583659,2033125,648,1120,1373,-1030,-568,-322,30,236,-124
25712,6664,0,2023-03-01T18:57:23.590012,2033131,648,1120,1373,-1030,-568,-322,30,236,-124
25713,6665,0,2023-03-01T18:57:23.597020,2033138,648,1120,1373,-1030,-568,-322,30,236,-124
25714,6666,0,2023-03-01T18:57:23.602481,2033143,647,1120,1377,-1041,-576,-321,30,236,-124
25715,6667,0,2023-03-01T18:57:23.609078,2033149,647,1120,1377,-1041,-576,-321,30,236,-124
25716,6668,0,2023-03-01T18:57:23.615045,2033156,647,1120,1377,-1041,-576,-321,30,236,-124
25717,6669,0,2023-03-01T18:57:23.619883,2033161,646,1119,1377,-1033,-577,-321,30,236,-124
25718,6670,0,2023-03-01T18:57:23.626417,2033167,646,1119,1377,-1033,-577,-321,30,236,-124
25719,6671,0,2023-03-01T18:57:23.632149,2033173,646,1119,1377,-1033,-577,-321,30,236,-124
25720,6672,0,2023-03-01T18:57:23.637743,2033178,646,1119,1377,-1033,-577,-321,30,236,-124
25721,6673,0,2023-03-01T18:57:23.642673,2033184,648,1118,1373,-1033,-575,-323,30,236,-124
25722,6674,0,2023-03-01T18:57:23.648794,2033189,648,1118,1373,-1033,-575,-323,30,236,-124
25723,6675,0,2023-03-01T18:57:23.653720,2033195,648,1118,1373,-1033,-575,-323,30,236,-124
25724,6676,0,2023-03-01T18:57:23.659696,2033201,650,1117,1377,-1030,-571,-324,30,236,-124
25725,6677,0,2023-03-01T18:57:23.665852,2033207,650,1117,1377,-1030,-571,-324,30,236,-124
25726,6678,0,2023-03-01T18:57:23.671114,2033212,650,1117,1377,-1030,-571,-324,30,236,-124
25727,6679,0,2023-03-01T18:57:23.675815,2033217,650,1117,1377,-1030,-571,-324,30,236,-124
25728,6680,0,2023-03-01T18:57:23.680808,2033221,646,1120,1378,-1035,-572,-324,30,234,-122
25729,6681,0,2023-03-01T18:57:23.686925,2033228,646,1120,1378,-1035,-572,-324,30,234,-122
25730,6682,0,2023-03-01T18:57:23.692570,2033233,646,1120,1378,-1035,-572,-324,30,234,-122
25731,6683,0,2023-03-01T18:57:23.697589,2033239,646,1120,1378,-1035,-572,-324,30,234,-122
25732,6684,0,2023-03-01T18:57:23.702362,2033243,648,1120,1380,-1036,-570,-318,30,234,-122
25733,6685,0,2023-03-01T18:57:23.708252,2033249,648,1120,1380,-1036,-570,-318,30,234,-122
25734,6686,0,2023-03-01T18:57:23.713207,2033254,648,1120,1380,-1036,-570,-318,30,234,-122
25735,6687,0,2023-03-01T18:57:23.719135,2033259,648,1120,1380,-1036,-570,-318,30,234,-122
25736,6688,0,2023-03-01T18:57:23.724233,2033265,644,1120,1373,-1036,-568,-321,30,234,-122
25737,6689,0,2023-03-01T18:57:23.730795,2033271,644,1120,1373,-1036,-568,-321,30,234,-122
25738,6690,0,2023-03-01T18:57:23.736908,2033277,644,1120,1373,-1036,-568,-321,30,234,-122
25739,6691,0,2023-03-01T18:57:23.741941,2033283,647,1118,1378,-1037,-577,-324,30,234,-122
25740,6692,0,2023-03-01T18:57:23.747636,2033289,647,1118,1378,-1037,-577,-324,30,234,-122
25741,6693,0,2023-03-01T18:57:23.752611,2033294,647,1118,1378,-1037,-577,-324,30,234,-122
25742,6694,0,2023-03-01T18:57:23.757597,2033298,647,1118,1378,-1037,-577,-324,30,234,-122
25743,6695,0,2023-03-01T18:57:23.762300,2033303,648,1117,1375,-1037,-577,-321,30,234,-122
25744,6696,0,2023-03-01T18:57:23.768708,2033309,648,1117,1375,-1037,-577,-321,30,234,-122
25745,6697,0,2023-03-01T18:57:23.775721,2033316,648,1117,1375,-1037,-577,-321,30,234,-122
25746,6698,0,2023-03-01T18:57:23.780739,2033321,651,1122,1374,-1038,-577,-315,30,234,-122
25747,6699,0,2023-03-01T18:57:23.786443,2033327,651,1122,1374,-1038,-577,-315,30,234,-122
25748,6700,0,2023-03-01T18:57:23.791955,2033333,651,1122,1374,-1038,-577,-315,30,234,-122
25749,6701,0,2023-03-01T18:57:23.796377,2033338,651,1122,1374,-1038,-577,-315,30,234,-122
25750,6702,0,2023-03-01T18:57:23.801433,2033342,647,1119,1370,-1034,-575,-326,30,234,-122
25751,6703,0,2023-03-01T18:57:23.807659,2033348,647,1119,1370,-1034,-575,-326,30,234,-122
25752,6704,0,2023-03-01T18:57:23.812430,2033353,647,1119,1370,-1034,-575,-326,30,234,-122
25753,6705,0,2023-03-01T18:57:23.817329,2033358,647,1119,1370,-1034,-575,-326,30,234,-122
25754,6706,0,2023-03-01T18:57:23.821775,2033362,648,1120,1376,-1029,-572,-320,31,231,-123
25755,6707,0,2023-03-01T18:57:23.827573,2033369,648,1120,1376,-1029,-572,-320,31,231,-123
25756,6708,0,2023-03-01T18:57:23.833246,2033374,648,1120,1376,-1029,-572,-320,31,231,-123
25757,6709,0,2023-03-01T18:57:23.838583,2033379,648,1120,1376,-1029,-572,-320,31,231,-123
25758,6710,0,2023-03-01T18:57:23.843435,2033384,650,1125,1379,-1037,-572,-322,31,231,-123
25759,6711,0,2023-03-01T18:57:23.849622,2033390,650,1125,1379,-1037,-572,-322,31,231,-123
25760,6712,0,2023-03-01T18:57:23.855125,2033396,650,1125,1379,-1037,-572,-322,31,231,-123
25761,6713,0,2023-03-01T18:57:23.860269,2033401,650,1121,1373,-1025,-573,-324,31,231,-123
25762,6714,0,2023-03-01T18:57:23.866537,2033408,650,1121,1373,-1025,-573,-324,31,231,-123
25763,6715,0,2023-03-01T18:57:23.871867,2033413,650,1121,1373,-1025,-573,-324,31,231,-123
25764,6716,0,2023-03-01T18:57:23.877700,2033418,650,1121,1373,-1025,-573,-324,31,231,-123
25765,6717,0,2023-03-01T18:57:23.883436,2033424,647,1120,1372,-1033,-578,-328,31,231,-123
25766,6718,0,2023-03-01T18:57:23.889660,2033431,647,1120,1372,-1033,-578,-328,31,231,-123
25767,6719,0,2023-03-01T18:57:23.895308,2033436,647,1120,1372,-1033,-578,-328,31,231,-123
25768,6720,0,2023-03-01T18:57:23.900585,2033441,646,1121,1377,-1040,-573,-324,31,231,-123
25769,6721,0,2023-03-01T18:57:23.906419,2033447,646,1121,1377,-1040,-573,-324,31,231,-123
25770,6722,0,2023-03-01T18:57:23.912143,2033453,646,1121,1377,-1040,-573,-324,31,231,-123
25771,6723,0,2023-03-01T18:57:23.917197,2033458,646,1121,1377,-1040,-573,-324,31,231,-123
25772,6724,0,2023-03-01T18:57:23.922357,2033463,649,1121,1376,-1031,-567,-319,31,231,-123
25773,6725,0,2023-03-01T18:57:23.929402,2033470,649,1121,1376,-1031,-567,-319,31,231,-123
25774,6726,0,2023-03-01T18:57:23.934724,2033475,649,1121,1376,-1031,-567,-319,31,231,-123
25775,6727,0,2023-03-01T18:57:23.939850,2033480,649,1121,1376,-1031,-567,-319,31,231,-123
25776,6728,0,2023-03-01T18:57:23.944656,2033485,648,1121,1378,-1031,-573,-324,23,237,-121
25777,6729,0,2023-03-01T18:57:23.950294,2033491,648,1121,1378,-1031,-573,-324,23,237,-121
25778,6730,0,2023-03-01T18:57:23.955903,2033497,648,1121,1378,-1031,-573,-324,23,237,-121
25779,6731,0,2023-03-01T18:57:23.961050,2033502,649,1119,1378,-1034,-569,-322,23,237,-121
25780,6732,0,2023-03-01T18:57:23.966867,2033508,649,1119,1378,-1034,-569,-322,23,237,-121
25781,6733,0,2023-03-01T18:57:23.972948,2033513,649,1119,1378,-1034,-569,-322,23,237,-121
25782,6734,0,2023-03-01T18:57:23.978138,2033519,649,1119,1378,-1034,-569,-322,23,237,-121
25783,6735,0,2023-03-01T18:57:23.982951,2033524,649,1121,1372,-1033,-576,-315,23,237,-121
25784,6736,0,2023-03-01T18:57:23.990736,2033531,649,1121,1372,-1033,-576,-315,23,237,-121
25785,6737,0,2023-03-01T18:57:23.996679,2033538,649,1121,1372,-1033,-576,-315,23,237,-121
25786,6738,0,2023-03-01T18:57:24.001870,2033543,649,1119,1375,-1035,-569,-313,23,237,-121
25787,6739,0,2023-03-01T18:57:24.008279,2033549,649,1119,1375,-1035,-569,-313,23,237,-121
25788,6740,0,2023-03-01T18:57:24.014168,2033555,649,1119,1375,-1035,-569,-313,23,237,-121
25789,6741,0,2023-03-01T18:57:24.018871,2033560,649,1119,1375,-1035,-569,-313,23,237,-121
25790,6742,0,2023-03-01T18:57:24.024218,2033564,647,1117,1373,-1034,-571,-315,23,237,-121
25791,6743,0,2023-03-01T18:57:24.029970,2033570,647,1117,1373,-1034,-571,-315,23,237,-121
25792,6744,0,2023-03-01T18:57:24.035571,2033576,647,1117,1373,-1034,-571,-315,23,237,-121
25793,6745,0,2023-03-01T18:57:24.040780,2033582,648,1121,1374,-1034,-565,-318,23,237,-121
25794,6746,0,2023-03-01T18:57:24.046689,2033588,648,1121,1374,-1034,-565,-318,23,237,-121
25795,6747,0,2023-03-01T18:57:24.052535,2033593,648,1121,1374,-1034,-565,-318,23,237,-121
25796,6748,0,2023-03-01T18:57:24.057513,2033598,648,1121,1374,-1034,-565,-318,23,237,-121
25797,6749,0,2023-03-01T18:57:24.062651,2033603,647,1117,1372,-1039,-568,-325,26,230,-124
25798,6750,0,2023-03-01T18:57:24.067704,2033608,647,1117,1372,-1039,-568,-325,26,230,-124
25799,6751,0,2023-03-01T18:57:24.073577,2033614,647,1117,1372,-1039,-568,-325,26,230,-124
25800,6752,0,2023-03-01T18:57:24.078747,2033619,647,1117,1372,-1039,-568,-325,26,230,-124
25801,6753,0,2023-03-01T18:57:24.083984,2033625,647,1117,1372,-1039,-568,-325,26,230,-124
25802,6754,0,2023-03-01T18:57:24.089284,2033631,647,1117,1372,-1039,-568,-325,26,230,-124
25803,6755,0,2023-03-01T18:57:24.095536,2033636,647,1117,1372,-1039,-568,-325,26,230,-124
25804,6756,0,2023-03-01T18:57:24.102336,2033643,649,1120,1378,-1038,-575,-326,26,230,-124
25805,6757,0,2023-03-01T18:57:24.108967,2033649,649,1120,1378,-1038,-575,-326,26,230,-124
25806,6758,0,2023-03-01T18:57:24.114809,2033655,649,1120,1378,-1038,-575,-326,26,230,-124
25807,6759,0,2023-03-01T18:57:24.119596,2033660,649,1120,1378,-1038,-575,-326,26,230,-124
25808,6760,0,2023-03-01T18:57:24.124531,2033666,649,1120,1378,-1038,-575,-326,26,230,-124
25809,6761,0,2023-03-01T18:57:24.129158,2033671,649,1120,1378,-1038,-575,-326,26,230,-124
25810,6762,0,2023-03-01T18:57:24.134661,2033676,649,1120,1378,-1038,-575,-326,26,230,-124
25811,6763,0,2023-03-01T18:57:24.139820,2033680,649,1120,1378,-1038,-575,-326,26,230,-124
25812,6764,0,2023-03-01T18:57:24.145464,2033686,648,1119,1370,-1030,-570,-319,26,230,-124
25813,6765,0,2023-03-01T18:57:24.151172,2033692,648,1119,1370,-1030,-570,-319,26,230,-124
25814,6766,0,2023-03-01T18:57:24.156497,2033697,648,1119,1370,-1030,-570,-319,26,230,-124
25815,6767,0,2023-03-01T18:57:24.161901,2033702,649,1118,1373,-1035,-571,-323,26,230,-124
25816,6768,0,2023-03-01T18:57:24.167461,2033709,649,1118,1373,-1035,-571,-323,26,230,-124
25817,6769,0,2023-03-01T18:57:24.172875,2033714,649,1118,1373,-1035,-571,-323,26,230,-124
25818,6770,0,2023-03-01T18:57:24.177920,2033719,649,1118,1373,-1035,-571,-323,26,230,-124
25819,6771,0,2023-03-01T18:57:24.183147,2033724,649,1120,1373,-1037,-570,-319,26,230,-124
25820,6772,0,2023-03-01T18:57:24.189099,2033730,649,1120,1373,-1037,-570,-319,26,230,-124
25821,6773,0,2023-03-01T18:57:24.195450,2033736,649,1120,1373,-1037,-570,-319,26,230,-124
25822,6774,0,2023-03-01T18:57:24.200304,2033741,647,1120,1376,-1038,-566,-322,27,237,-124
25823,6775,0,2023-03-01T18:57:24.206280,2033747,647,1120,1376,-1038,-566,-322,27,237,-123
25824,6776,0,2023-03-01T18:57:24.213727,2033755,647,1120,1376,-1038,-566,-322,27,237,-123
25825,6777,0,2023-03-01T18:57:24.218945,2033760,647,1120,1376,-1038,-566,-322,27,237,-123
25826,6778,0,2023-03-01T18:57:24.223913,2033765,650,1120,1374,-1030,-572,-322,27,237,-123
25827,6779,0,2023-03-01T18:57:24.230234,2033771,650,1120,1374,-1030,-572,-322,27,237,-123
25828,6780,0,2023-03-01T18:57:24.235723,2033776,650,1120,1374,-1030,-572,-322,27,237,-123
25829,6781,0,2023-03-01T18:57:24.240823,2033781,650,1120,1380,-1030,-574,-327,27,237,-123
25830,6782,0,2023-03-01T18:57:24.247048,2033787,650,1120,1380,-1030,-574,-327,27,237,-123
25831,6783,0,2023-03-01T18:57:24.252608,2033794,650,1120,1380,-1030,-574,-327,27,237,-123
25832,6784,0,2023-03-01T18:57:24.257381,2033799,650,1120,1380,-1030,-574,-327,27,237,-123
25833,6785,0,2023-03-01T18:57:24.262347,2033803,650,1117,1382,-1043,-576,-314,27,237,-123
25834,6786,0,2023-03-01T18:57:24.268343,2033809,650,1117,1382,-1043,-576,-314,27,237,-123
25835,6787,0,2023-03-01T18:57:24.274621,2033815,650,1117,1382,-1043,-576,-314,27,237,-123
25836,6788,0,2023-03-01T18:57:24.279256,2033820,650,1117,1382,-1043,-576,-314,27,237,-123
25837,6789,0,2023-03-01T18:57:24.283748,2033824,649,1120,1379,-1033,-567,-313,27,237,-123
25838,6790,0,2023-03-01T18:57:24.289482,2033830,649,1120,1379,-1033,-567,-313,27,237,-123
25839,6791,0,2023-03-01T18:57:24.295917,2033837,649,1120,1379,-1033,-567,-313,27,237,-123
25840,6792,0,2023-03-01T18:57:24.301521,2033842,648,1119,1378,-1032,-572,-325,27,237,-123
25841,6793,0,2023-03-01T18:57:24.307448,2033849,648,1119,1378,-1032,-572,-325,27,237,-123
25842,6794,0,2023-03-01T18:57:24.312685,2033854,648,1119,1378,-1032,-572,-325,27,237,-123
25843,6795,0,2023-03-01T18:57:24.317732,2033858,648,1119,1378,-1032,-572,-325,27,237,-123
25844,6796,0,2023-03-01T18:57:24.323057,2033863,649,1118,1376,-1033,-575,-316,38,236,-128
25845,6797,0,2023-03-01T18:57:24.329274,2033870,649,1118,1376,-1033,-575,-316,38,236,-128
25846,6798,0,2023-03-01T18:57:24.335161,2033875,649,1118,1376,-1033,-575,-316,38,236,-128
25847,6799,0,2023-03-01T18:57:24.339934,2033881,649,1118,1376,-1033,-575,-316,38,236,-128
25848,6800,0,2023-03-01T18:57:24.345139,2033886,651,1118,1377,-1037,-570,-320,38,236,-128
25849,6801,0,2023-03-01T18:57:24.350968,2033892,651,1118,1377,-1037,-570,-320,38,236,-128
25850,6802,0,2023-03-01T18:57:24.356460,2033897,651,1118,1377,-1037,-570,-320,38,236,-128
25851,6803,0,2023-03-01T18:57:24.361317,2033902,650,1119,1378,-1030,-572,-326,38,236,-128
25852,6804,0,2023-03-01T18:57:24.367132,2033908,650,1119,1378,-1030,-572,-326,38,236,-128
25853,6805,0,2023-03-01T18:57:24.373351,2033914,650,1119,1378,-1030,-572,-326,38,236,-128
25854,6806,0,2023-03-01T18:57:24.378227,2033918,650,1119,1378,-1030,-572,-326,38,236,-128
25855,6807,0,2023-03-01T18:57:24.383322,2033924,647,1118,1379,-1035,-567,-327,38,236,-128
25856,6808,0,2023-03-01T18:57:24.389550,2033931,647,1118,1379,-1035,-567,-327,38,236,-128
25857,6809,0,2023-03-01T18:57:24.394737,2033936,647,1118,1379,-1035,-567,-327,38,236,-128
25858,6810,0,2023-03-01T18:57:24.399810,2033941,647,1118,1379,-1035,-567,-327,38,236,-128
25859,6811,0,2023-03-01T18:57:24.405538,2033946,648,1119,1379,-1039,-574,-325,38,236,-128
25860,6812,0,2023-03-01T18:57:24.412727,2033953,648,1119,1379,-1039,-574,-325,38,236,-128
25861,6813,0,2023-03-01T18:57:24.417529,2033958,648,1119,1379,-1039,-574,-325,38,236,-128
25862,6814,0,2023-03-01T18:57:24.422822,2033964,651,1119,1379,-1036,-571,-316,38,236,-128
25863,6815,0,2023-03-01T18:57:24.429116,2033970,651,1119,1379,-1036,-571,-316,38,236,-128
25864,6816,0,2023-03-01T18:57:24.435133,2033976,651,1119,1379,-1036,-571,-316,38,236,-128
25865,6817,0,2023-03-01T18:57:24.440275,2033981,651,1119,1379,-1036,-571,-316,38,236,-128
25866,6818,0,2023-03-01T18:57:24.445799,2033987,650,1120,1376,-1042,-571,-318,38,236,-128
25867,6819,0,2023-03-01T18:57:24.451931,2033993,650,1120,1376,-1042,-571,-318,38,236,-128
25868,6820,0,2023-03-01T18:57:24.456848,2033997,650,1120,1376,-1042,-571,-318,38,236,-128
25869,6821,0,2023-03-01T18:57:24.462172,2034002,649,1123,1374,-1037,-570,-320,24,242,-124
25870,6822,0,2023-03-01T18:57:24.468648,2034010,649,1123,1374,-1037,-570,-320,24,242,-124
25871,6823,0,2023-03-01T18:57:24.474446,2034015,649,1123,1374,-1037,-570,-320,24,242,-124
25872,6824,0,2023-03-01T18:57:24.479721,2034021,649,1123,1374,-1037,-570,-320,24,242,-124
25873,6825,0,2023-03-01T18:57:24.484617,2034025,649,1119,1380,-1031,-580,-325,24,242,-124
25874,6826,0,2023-03-01T18:57:24.490108,2034031,649,1119,1380,-1031,-580,-325,24,242,-124
25875,6827,0,2023-03-01T18:57:24.496277,2034037,649,1119,1380,-1031,-580,-325,24,242,-124
25876,6828,0,2023-03-01T18:57:24.501665,2034042,650,1119,1378,-1030,-580,-320,24,242,-124
25877,6829,0,2023-03-01T18:57:24.507764,2034049,650,1119,1378,-1030,-580,-320,24,242,-124
25878,6830,0,2023-03-01T18:57:24.512933,2034054,650,1119,1378,-1030,-580,-320,24,242,-124
25879,6831,0,2023-03-01T18:57:24.517973,2034059,650,1119,1378,-1030,-580,-320,24,242,-124
25880,6832,0,2023-03-01T18:57:24.523204,2034064,646,1119,1377,-1035,-569,-319,24,242,-124
25881,6833,0,2023-03-01T18:57:24.529968,2034070,646,1119,1377,-1035,-569,-319,24,242,-124
25882,6834,0,2023-03-01T18:57:24.535722,2034076,646,1119,1377,-1035,-569,-319,24,242,-124
25883,6835,0,2023-03-01T18:57:24.540679,2034081,649,1120,1371,-1041,-563,-319,24,242,-124
25884,6836,0,2023-03-01T18:57:24.547530,2034088,649,1120,1371,-1041,-563,-319,24,242,-124
25885,6837,0,2023-03-01T18:57:24.553329,2034094,649,1120,1371,-1041,-563,-319,24,242,-124
25886,6838,0,2023-03-01T18:57:24.558419,2034099,649,1120,1371,-1041,-563,-319,24,242,-124
25887,6839,0,2023-03-01T18:57:24.563377,2034104,651,1115,1370,-1037,-566,-318,24,242,-124
25888,6840,0,2023-03-01T18:57:24.569925,2034111,651,1115,1370,-1037,-566,-318,24,242,-124
25889,6841,0,2023-03-01T18:57:24.575752,2034116,651,1115,1370,-1037,-566,-318,24,242,-124
25890,6842,0,2023-03-01T18:57:24.580879,2034121,652,1117,1379,-1035,-570,-318,24,242,-124
25891,6843,0,2023-03-01T18:57:24.586814,2034127,652,1117,1379,-1035,-570,-318,33,241,-131
25892,6844,0,2023-03-01T18:57:24.592551,2034134,652,1117,1379,-1035,-570,-318,33,241,-131
25893,6845,0,2023-03-01T18:57:24.597429,2034139,652,1117,1379,-1035,-570,-318,33,241,-131
25894,6846,0,2023-03-01T18:57:24.602359,2034143,648,1119,1373,-1030,-574,-320,33,241,-131
25895,6847,0,2023-03-01T18:57:24.607952,2034149,648,1119,1373,-1030,-574,-320,33,241,-131
25896,6848,0,2023-03-01T18:57:24.614168,2034155,648,1119,1373,-1030,-574,-320,33,241,-131
25897,6849,0,2023-03-01T18:57:24.619188,2034160,648,1119,1373,-1030,-574,-320,33,241,-131
25898,6850,0,2023-03-01T18:57:24.624815,2034165,651,1119,1378,-1035,-567,-326,33,241,-131
25899,6851,0,2023-03-01T18:57:24.631854,2034172,651,1119,1378,-1035,-567,-326,33,241,-131
25900,6852,0,2023-03-01T18:57:24.637845,2034179,651,1119,1378,-1035,-567,-326,33,241,-131
25901,6853,0,2023-03-01T18:57:24.643170,2034184,650,1120,1377,-1033,-570,-322,33,241,-131
25902,6854,0,2023-03-01T18:57:24.649598,2034191,650,1120,1377,-1033,-570,-322,33,241,-131
25903,6855,0,2023-03-01T18:57:24.655391,2034196,650,1120,1377,-1033,-570,-322,33,241,-131
25904,6856,0,2023-03-01T18:57:24.660297,2034201,650,1120,1377,-1033,-570,-322,33,241,-131
25905,6857,0,2023-03-01T18:57:24.666242,2034207,648,1117,1382,-1027,-569,-318,33,241,-131
25906,6858,0,2023-03-01T18:57:24.672797,2034213,648,1117,1382,-1027,-569,-318,33,241,-131
25907,6859,0,2023-03-01T18:57:24.677541,2034219,648,1117,1382,-1027,-569,-318,33,241,-131
25908,6860,0,2023-03-01T18:57:24.682907,2034224,649,1118,1375,-1036,-571,-317,33,241,-131
25909,6861,0,2023-03-01T18:57:24.689557,2034231,649,1118,1375,-1036,-571,-317,33,241,-131
25910,6862,0,2023-03-01T18:57:24.695191,2034236,649,1118,1375,-1036,-571,-317,33,241,-131
25911,6863,0,2023-03-01T18:57:24.699881,2034241,649,1118,1375,-1036,-571,-317,33,241,-131
25912,6864,0,2023-03-01T18:57:24.704920,2034245,648,1121,1378,-1030,-573,-320,28,238,-124
25913,6865,0,2023-03-01T18:57:24.710602,2034251,648,1121,1378,-1030,-573,-320,28,238,-124
25914,6866,0,2023-03-01T18:57:24.716301,2034256,648,1121,1378,-1030,-573,-320,28,238,-124
25915,6867,0,2023-03-01T18:57:24.721499,2034262,647,1120,1383,-1038,-577,-313,28,238,-124
25916,6868,0,2023-03-01T18:57:24.727994,2034269,647,1120,1383,-1038,-577,-313,28,238,-124
25917,6869,0,2023-03-01T18:57:24.733406,2034274,647,1120,1383,-1038,-577,-313,28,238,-124
25918,6870,0,2023-03-01T18:57:24.738740,2034279,647,1120,1383,-1038,-577,-313,28,238,-124
25919,6871,0,2023-03-01T18:57:24.744178,2034285,647,1119,1370,-1032,-574,-314,28,238,-124
25920,6872,0,2023-03-01T18:57:24.751002,2034292,647,1119,1370,-1032,-574,-314,28,238,-124
25921,6873,0,2023-03-01T18:57:24.757820,2034297,647,1119,1370,-1032,-574,-314,28,238,-124
25922,6874,0,2023-03-01T18:57:24.764290,2034305,650,1123,1379,-1033,-576,-315,28,238,-124
25923,6875,0,2023-03-01T18:57:24.770615,2034312,650,1123,1379,-1033,-576,-315,28,238,-124
25924,6876,0,2023-03-01T18:57:24.776560,2034317,650,1123,1379,-1033,-576,-315,28,238,-124
25925,6877,0,2023-03-01T18:57:24.781805,2034323,650,1120,1379,-1030,-572,-317,28,238,-124
25926,6878,0,2023-03-01T18:57:24.788104,2034329,650,1120,1379,-1030,-572,-317,28,238,-124
25927,6879,0,2023-03-01T18:57:24.793726,2034334,650,1120,1379,-1030,-572,-317,28,238,-124
25928,6880,0,2023-03-01T18:57:24.798623,2034339,650,1120,1379,-1030,-572,-317,28,238,-124
25929,6881,0,2023-03-01T18:57:24.803569,2034344,648,1119,1375,-1030,-577,-322,28,238,-124
25930,6882,0,2023-03-01T18:57:24.809676,2034351,648,1119,1375,-1030,-577,-322,28,238,-124
25931,6883,0,2023-03-01T18:57:24.814835,2034356,648,1119,1375,-1030,-577,-322,28,238,-124
25932,6884,0,2023-03-01T18:57:24.819440,2034361,648,1119,1375,-1030,-577,-322,28,238,-124
25933,6885,0,2023-03-01T18:57:24.824366,2034365,652,1119,1372,-1040,-577,-324,28,238,-124
25934,6886,0,2023-03-01T18:57:24.830598,2034371,652,1119,1372,-1040,-577,-324,28,238,-124
25935,6887,0,2023-03-01T18:57:24.836471,2034377,652,1119,1372,-1040,-577,-324,28,238,-124
25936,6888,0,2023-03-01T18:57:24.841570,2034382,647,1120,1376,-1038,-580,-322,32,242,-116
25937,6889,0,2023-03-01T18:57:24.846637,2034387,647,1120,1376,-1038,-580,-322,32,242,-116
25938,6890,0,2023-03-01T18:57:24.851716,2034393,647,1120,1376,-1038,-580,-322,32,242,-116
25939,6891,0,2023-03-01T18:57:24.856962,2034398,647,1120,1376,-1038,-580,-322,32,242,-116
25940,6892,0,2023-03-01T18:57:24.861814,2034403,651,1121,1381,-1039,-572,-320,32,242,-116
25941,6893,0,2023-03-01T18:57:24.867749,2034409,651,1121,1381,-1039,-572,-320,32,242,-116
25942,6894,0,2023-03-01T18:57:24.875329,2034416,651,1121,1381,-1039,-572,-320,32,242,-116
25943,6895,0,2023-03-01T18:57:24.880589,2034421,651,1121,1381,-1039,-572,-320,32,242,-116
25944,6896,0,2023-03-01T18:57:24.885713,2034426,649,1119,1376,-1039,-570,-313,32,242,-116
25945,6897,0,2023-03-01T18:57:24.891636,2034433,649,1119,1376,-1039,-570,-313,32,242,-116
25946,6898,0,2023-03-01T18:57:24.896629,2034438,649,1119,1376,-1039,-570,-313,32,242,-116
25947,6899,0,2023-03-01T18:57:24.901234,2034443,651,1120,1373,-1035,-570,-322,32,242,-116
25948,6900,0,2023-03-01T18:57:24.906984,2034448,651,1120,1373,-1035,-570,-322,32,242,-116
25949,6901,0,2023-03-01T18:57:24.912295,2034453,651,1120,1373,-1035,-570,-322,32,242,-116
25950,6902,0,2023-03-01T18:57:24.917562,2034458,651,1120,1373,-1035,-570,-322,32,242,-116
25951,6903,0,2023-03-01T18:57:24.922635,2034463,645,1122,1378,-1034,-570,-315,32,242,-116
25952,6904,0,2023-03-01T18:57:24.928859,2034469,645,1122,1378,-1034,-570,-315,32,242,-116
25953,6905,0,2023-03-01T18:57:24.934456,2034476,645,1122,1378,-1034,-570,-315,32,242,-116
25954,6906,0,2023-03-01T18:57:24.939729,2034481,645,1122,1378,-1034,-570,-315,32,242,-116
25955,6907,0,2023-03-01T18:57:24.945026,2034486,644,1120,1374,-1040,-576,-317,32,242,-116
25956,6908,0,2023-03-01T18:57:24.951649,2034493,644,1120,1374,-1040,-576,-317,32,242,-116
25957,6909,0,2023-03-01T18:57:24.957665,2034498,644,1120,1374,-1040,-576,-317,32,242,-116
25958,6910,0,2023-03-01T18:57:24.962557,2034503,648,1121,1379,-1041,-575,-316,24,238,-128
25959,6911,0,2023-03-01T18:57:24.968630,2034509,648,1121,1379,-1041,-575,-316,24,238,-128
25960,6912,0,2023-03-01T18:57:24.974326,2034515,648,1121,1379,-1041,-575,-316,24,238,-128
25961,6913,0,2023-03-01T18:57:24.979563,2034521,648,1121,1379,-1041,-575,-316,24,238,-128
25962,6914,0,2023-03-01T18:57:24.984832,2034526,650,1120,1377,-1041,-575,-320,24,238,-128
25963,6915,0,2023-03-01T18:57:24.991147,2034532,650,1120,1377,-1041,-575,-320,24,238,-128
25964,6916,0,2023-03-01T18:57:24.996900,2034538,650,1120,1377,-1041,-575,-320,24,238,-128
25965,6917,0,2023-03-01T18:57:25.001954,2034543,646,1117,1379,-1039,-575,-324,24,238,-128
25966,6918,0,2023-03-01T18:57:25.008349,2034549,646,1117,1379,-1039,-575,-324,24,238,-128
25967,6919,0,2023-03-01T18:57:25.014668,2034555,646,1117,1379,-1039,-575,-324,24,238,-128
25968,6920,0,2023-03-01T18:57:25.019829,2034561,646,1117,1379,-1039,-575,-324,24,238,-128
25969,6921,0,2023-03-01T18:57:25.025014,2034566,648,1120,1377,-1031,-574,-323,24,238,-128
25970,6922,0,2023-03-01T18:57:25.031766,2034573,648,1120,1377,-1031,-574,-323,24,238,-128
25971,6923,0,2023-03-01T18:57:25.037780,2034579,648,1120,1377,-1031,-574,-323,24,238,-128
25972,6924,0,2023-03-01T18:57:25.043447,2034584,651,1117,1373,-1032,-569,-324,24,238,-128
25973,6925,0,2023-03-01T18:57:25.050473,2034590,651,1117,1373,-1032,-569,-324,24,238,-128
25974,6926,0,2023-03-01T18:57:25.056311,2034597,651,1117,1373,-1032,-569,-324,24,238,-128
25975,6927,0,2023-03-01T18:57:25.061425,2034603,647,1117,1375,-1030,-572,-316,24,238,-128
25976,6928,0,2023-03-01T18:57:25.066886,2034608,647,1117,1375,-1030,-572,-316,24,238,-128
25977,6929,0,2023-03-01T18:57:25.072360,2034614,647,1117,1375,-1030,-572,-316,24,238,-128
25978,6930,0,2023-03-01T18:57:25.077251,2034618,647,1117,1375,-1030,-572,-316,24,238,-128
25979,6931,0,2023-03-01T18:57:25.082931,2034623,646,1116,1375,-1033,-569,-320,24,238,-128
25980,6932,0,2023-03-01T18:57:25.090724,2034631,646,1116,1375,-1033,-569,-320,24,238,-128
25981,6933,0,2023-03-01T18:57:25.097293,2034638,646,1116,1375,-1033,-569,-320,24,238,-128
25982,6934,0,2023-03-01T18:57:25.101800,2034642,647,1121,1380,-1043,-576,-326,27,235,-119
25983,6935,0,2023-03-01T18:57:25.107981,2034649,647,1121,1380,-1043,-576,-326,27,235,-119
25984,6936,0,2023-03-01T18:57:25.114106,2034655,647,1121,1380,-1043,-576,-326,27,235,-119
25985,6937,0,2023-03-01T18:57:25.119026,2034660,647,1121,1380,-1043,-576,-326,27,235,-119
25986,6938,0,2023-03-01T18:57:25.123652,2034665,649,1119,1376,-1043,-567,-320,27,235,-119
25987,6939,0,2023-03-01T18:57:25.129621,2034671,649,1119,1376,-1043,-567,-320,27,235,-119
25988,6940,0,2023-03-01T18:57:25.134953,2034676,649,1119,1376,-1043,-567,-320,27,235,-119
25989,6941,0,2023-03-01T18:57:25.139922,2034680,649,1119,1376,-1043,-567,-320,27,235,-119
25990,6942,0,2023-03-01T18:57:25.144934,2034685,648,1120,1376,-1034,-573,-316,27,235,-119
25991,6943,0,2023-03-01T18:57:25.151553,2034693,648,1120,1376,-1034,-573,-316,27,235,-119
25992,6944,0,2023-03-01T18:57:25.156890,2034698,648,1120,1376,-1034,-573,-316,27,235,-119
25993,6945,0,2023-03-01T18:57:25.161953,2034703,647,1122,1376,-1034,-570,-317,27,235,-119
25994,6946,0,2023-03-01T18:57:25.167821,2034708,647,1122,1376,-1034,-570,-317,27,235,-119
25995,6947,0,2023-03-01T18:57:25.173387,2034714,647,1122,1376,-1034,-570,-317,27,235,-119
25996,6948,0,2023-03-01T18:57:25.178359,2034719,647,1122,1376,-1034,-570,-317,27,235,-119
25997,6949,0,2023-03-01T18:57:25.183200,2034724,648,1121,1372,-1035,-575,-323,27,235,-119
25998,6950,0,2023-03-01T18:57:25.187925,2034728,648,1121,1372,-1035,-575,-323,27,235,-119
25999,6951,0,2023-03-01T18:57:25.193862,2034735,648,1121,1372,-1035,-575,-323,27,235,-119
26000,6952,0,2023-03-01T18:57:25.199941,2034741,648,1121,1372,-1035,-575,-323,27,235,-119
26001,6953,0,2023-03-01T18:57:25.204880,2034746,648,1118,1375,-1038,-575,-324,27,235,-119
26002,6954,0,2023-03-01T18:57:25.210915,2034752,648,1118,1375,-1038,-575,-324,27,235,-119
26003,6955,0,2023-03-01T18:57:25.216347,2034757,648,1118,1375,-1038,-575,-324,27,235,-119
26004,6956,0,2023-03-01T18:57:25.221505,2034762,645,1118,1380,-1035,-574,-328,27,235,-119
26005,6957,0,2023-03-01T18:57:25.227196,2034767,645,1118,1380,-1035,-574,-328,32,238,-118
26006,6958,0,2023-03-01T18:57:25.233033,2034774,645,1118,1380,-1035,-574,-328,32,238,-118
26007,6959,0,2023-03-01T18:57:25.238170,2034779,645,1118,1380,-1035,-574,-328,32,238,-118
26008,6960,0,2023-03-01T18:57:25.242816,2034784,650,1120,1378,-1046,-570,-316,32,238,-118
26009,6961,0,2023-03-01T18:57:25.248446,2034790,650,1120,1378,-1046,-570,-316,32,238,-118
26010,6962,0,2023-03-01T18:57:25.254239,2034795,650,1120,1378,-1046,-570,-316,32,238,-118
26011,6963,0,2023-03-01T18:57:25.259407,2034800,650,1120,1378,-1046,-570,-316,32,238,-118
26012,6964,0,2023-03-01T18:57:25.264450,2034805,647,1121,1378,-1048,-571,-321,32,238,-118
26013,6965,0,2023-03-01T18:57:25.270174,2034811,647,1121,1378,-1048,-571,-321,32,238,-118
26014,6966,0,2023-03-01T18:57:25.276309,2034818,647,1121,1378,-1048,-571,-321,32,238,-118
26015,6967,0,2023-03-01T18:57:25.281557,2034823,647,1121,1378,-1048,-571,-321,32,238,-118
26016,6968,0,2023-03-01T18:57:25.286503,2034827,647,1119,1376,-1041,-565,-319,32,238,-118
26017,6969,0,2023-03-01T18:57:25.292734,2034834,647,1119,1376,-1041,-565,-319,32,238,-118
26018,6970,0,2023-03-01T18:57:25.298186,2034839,647,1119,1376,-1041,-565,-319,32,238,-118
26019,6971,0,2023-03-01T18:57:25.303335,2034844,645,1118,1372,-1036,-569,-315,32,238,-118
26020,6972,0,2023-03-01T18:57:25.309605,2034850,645,1118,1372,-1036,-569,-315,32,238,-118
26021,6973,0,2023-03-01T18:57:25.314594,2034855,645,1118,1372,-1036,-569,-315,32,238,-118
26022,6974,0,2023-03-01T18:57:25.319158,2034861,645,1118,1372,-1036,-569,-315,32,238,-118
26023,6975,0,2023-03-01T18:57:25.323626,2034865,647,1125,1380,-1032,-571,-320,32,238,-118
26024,6976,0,2023-03-01T18:57:25.328563,2034870,647,1125,1380,-1032,-571,-320,32,238,-118
26025,6977,0,2023-03-01T18:57:25.333787,2034875,647,1125,1380,-1032,-571,-320,32,238,-118
26026,6978,0,2023-03-01T18:57:25.338680,2034879,647,1125,1380,-1032,-571,-320,32,238,-118
26027,6979,0,2023-03-01T18:57:25.343767,2034885,651,1117,1378,-1039,-576,-329,32,238,-118
26028,6980,0,2023-03-01T18:57:25.349842,2034890,651,1117,1378,-1039,-576,-329,32,238,-118
26029,6981,0,2023-03-01T18:57:25.355620,2034896,651,1117,1378,-1039,-576,-329,32,238,-118
26030,6982,0,2023-03-01T18:57:25.360437,2034902,651,1117,1378,-1039,-576,-329,32,238,-118
26031,6983,0,2023-03-01T18:57:25.365375,2034906,651,1117,1378,-1039,-576,-329,36,240,-128
26032,6984,0,2023-03-01T18:57:25.370572,2034912,651,1117,1378,-1039,-576,-329,36,240,-128
26033,6985,0,2023-03-01T18:57:25.375925,2034917,651,1117,1378,-1039,-576,-329,36,240,-128
26034,6986,0,2023-03-01T18:57:25.380712,2034922,651,1117,1378,-1039,-576,-329,36,240,-128
26035,6987,0,2023-03-01T18:57:25.386492,2034927,651,1120,1372,-1037,-573,-315,36,240,-128
26036,6988,0,2023-03-01T18:57:25.392695,2034933,651,1120,1372,-1037,-573,-315,36,240,-128
26037,6989,0,2023-03-01T18:57:25.397706,2034938,651,1120,1372,-1037,-573,-315,36,240,-128
26038,6990,0,2023-03-01T18:57:25.402760,2034944,648,1117,1375,-1042,-574,-313,36,240,-128
26039,6991,0,2023-03-01T18:57:25.408463,2034950,648,1117,1375,-1042,-574,-313,36,240,-128
26040,6992,0,2023-03-01T18:57:25.413597,2034955,648,1117,1375,-1042,-574,-313,36,240,-128
26041,6993,0,2023-03-01T18:57:25.418828,2034960,648,1117,1375,-1042,-574,-313,36,240,-128
26042,6994,0,2023-03-01T18:57:25.425360,2034966,648,1120,1374,-1037,-573,-321,36,240,-128
26043,6995,0,2023-03-01T18:57:25.431280,2034972,648,1120,1374,-1037,-573,-321,36,240,-128
26044,6996,0,2023-03-01T18:57:25.436534,2034977,648,1120,1374,-1037,-573,-321,36,240,-128
26045,6997,0,2023-03-01T18:57:25.441815,2034982,647,1120,1373,-1042,-569,-321,36,240,-128
26046,6998,0,2023-03-01T18:57:25.447136,2034988,647,1120,1373,-1042,-569,-321,36,240,-128
26047,6999,0,2023-03-01T18:57:25.452568,2034994,647,1120,1373,-1042,-569,-321,36,240,-128
26048,7000,0,2023-03-01T18:57:25.457188,2034998,647,1120,1373,-1042,-569,-321,36,240,-128
26049,7001,0,2023-03-01T18:57:25.462594,2035003,648,1118,1381,-1035,-569,-332,36,240,-128
26050,7002,0,2023-03-01T18:57:25.468279,2035009,648,1118,1381,-1035,-569,-332,36,240,-128
26051,7003,0,2023-03-01T18:57:25.473892,2035015,648,1118,1381,-1035,-569,-332,36,240,-128
26052,7004,0,2023-03-01T18:57:25.478764,2035020,648,1118,1381,-1035,-569,-332,36,240,-128
26053,7005,0,2023-03-01T18:57:25.483412,2035024,649,1122,1373,-1036,-575,-322,29,237,-119
26054,7006,0,2023-03-01T18:57:25.489656,2035031,649,1122,1373,-1036,-575,-322,29,237,-119
26055,7007,0,2023-03-01T18:57:25.495273,2035036,649,1122,1373,-1036,-575,-322,29,237,-119
26056,7008,0,2023-03-01T18:57:25.500220,2035041,649,1122,1373,-1036,-575,-322,29,237,-119
26057,7009,0,2023-03-01T18:57:25.505625,2035046,648,1118,1377,-1043,-573,-319,29,237,-119
26058,7010,0,2023-03-01T18:57:25.512454,2035053,648,1118,1377,-1043,-573,-319,29,237,-119
26059,7011,0,2023-03-01T18:57:25.518191,2035059,648,1118,1377,-1043,-573,-319,29,237,-119
26060,7012,0,2023-03-01T18:57:25.523482,2035063,651,1117,1374,-1044,-565,-319,29,237,-119
26061,7013,0,2023-03-01T18:57:25.530722,2035072,651,1117,1374,-1044,-565,-319,29,237,-119
26062,7014,0,2023-03-01T18:57:25.536653,2035078,651,1117,1374,-1044,-565,-319,29,237,-119
26063,7015,0,2023-03-01T18:57:25.541464,2035083,651,1117,1374,-1044,-565,-319,29,237,-119
26064,7016,0,2023-03-01T18:57:25.546372,2035087,651,1117,1377,-1030,-565,-316,29,237,-119
26065,7017,0,2023-03-01T18:57:25.552244,2035093,651,1117,1377,-1030,-565,-316,29,237,-119
26066,7018,0,2023-03-01T18:57:25.557407,2035098,651,1117,1377,-1030,-565,-316,29,237,-119
26067,7019,0,2023-03-01T18:57:25.562378,2035103,649,1119,1377,-1028,-567,-315,29,237,-119
26068,7020,0,2023-03-01T18:57:25.568643,2035109,649,1119,1377,-1028,-567,-315,29,237,-119
26069,7021,0,2023-03-01T18:57:25.574586,2035116,649,1119,1377,-1028,-567,-315,29,237,-119
26070,7022,0,2023-03-01T18:57:25.579894,2035121,649,1119,1377,-1028,-567,-315,29,237,-119
26071,7023,0,2023-03-01T18:57:25.585031,2035126,649,1118,1380,-1029,-573,-322,29,237,-119
26072,7024,0,2023-03-01T18:57:25.591696,2035133,649,1118,1380,-1029,-573,-322,29,237,-119
26073,7025,0,2023-03-01T18:57:25.596996,2035138,649,1118,1380,-1029,-573,-322,29,237,-119
26074,7026,0,2023-03-01T18:57:25.602307,2035143,648,1122,1378,-1033,-570,-329,31,237,-119
26075,7027,0,2023-03-01T18:57:25.609061,2035149,648,1122,1378,-1033,-570,-329,31,239,-119
26076,7028,0,2023-03-01T18:57:25.615460,2035155,648,1122,1378,-1033,-570,-329,31,239,-119
26077,7029,0,2023-03-01T18:57:25.620586,2035162,648,1122,1378,-1033,-570,-329,31,239,-119
26078,7030,0,2023-03-01T18:57:25.625283,2035167,649,1120,1382,-1043,-576,-324,31,239,-119
26079,7031,0,2023-03-01T18:57:25.631347,2035172,649,1120,1382,-1043,-576,-324,31,239,-119
26080,7032,0,2023-03-01T18:57:25.637174,2035178,649,1120,1382,-1043,-576,-324,31,239,-119
26081,7033,0,2023-03-01T18:57:25.642574,2035183,648,1121,1370,-1038,-576,-322,31,239,-119
26082,7034,0,2023-03-01T18:57:25.648705,2035189,648,1121,1370,-1038,-576,-322,31,239,-119
26083,7035,0,2023-03-01T18:57:25.654539,2035195,648,1121,1370,-1038,-576,-322,31,239,-119
26084,7036,0,2023-03-01T18:57:25.659706,2035201,648,1121,1370,-1038,-576,-322,31,239,-119
26085,7037,0,2023-03-01T18:57:25.664926,2035206,650,1118,1375,-1035,-578,-321,31,239,-119
26086,7038,0,2023-03-01T18:57:25.670841,2035212,650,1118,1375,-1035,-578,-321,31,239,-119
26087,7039,0,2023-03-01T18:57:25.675909,2035217,650,1118,1375,-1035,-578,-321,31,239,-119
26088,7040,0,2023-03-01T18:57:25.680710,2035222,650,1118,1375,-1035,-578,-321,31,239,-119
26089,7041,0,2023-03-01T18:57:25.685641,2035226,649,1122,1370,-1029,-572,-315,31,239,-119
26090,7042,0,2023-03-01T18:57:25.691621,2035232,649,1122,1370,-1029,-572,-315,31,239,-119
26091,7043,0,2023-03-01T18:57:25.697435,2035238,649,1122,1370,-1029,-572,-315,31,239,-119
26092,7044,0,2023-03-01T18:57:25.702481,2035244,649,1120,1377,-1031,-578,-312,31,239,-119
26093,7045,0,2023-03-01T18:57:25.708591,2035250,649,1120,1377,-1031,-578,-312,31,239,-119
26094,7046,0,2023-03-01T18:57:25.713531,2035255,649,1120,1377,-1031,-578,-312,31,239,-119
26095,7047,0,2023-03-01T18:57:25.718550,2035259,649,1120,1377,-1031,-578,-312,31,239,-119
26096,7048,0,2023-03-01T18:57:25.723681,2035264,650,1117,1373,-1032,-580,-314,31,239,-119
26097,7049,0,2023-03-01T18:57:25.729785,2035271,650,1117,1373,-1032,-580,-314,31,239,-119
26098,7050,0,2023-03-01T18:57:25.735258,2035276,650,1117,1373,-1032,-580,-314,31,239,-119
26099,7051,0,2023-03-01T18:57:25.740317,2035281,650,1117,1373,-1032,-580,-314,31,239,-119
26100,7052,0,2023-03-01T18:57:25.746382,2035288,645,1121,1382,-1030,-576,-327,33,231,-119
26101,7053,0,2023-03-01T18:57:25.753013,2035294,645,1121,1382,-1030,-576,-327,33,231,-119
26102,7054,0,2023-03-01T18:57:25.758102,2035299,645,1121,1382,-1030,-576,-327,33,231,-119
26103,7055,0,2023-03-01T18:57:25.763065,2035304,648,1120,1380,-1025,-573,-323,33,231,-119
26104,7056,0,2023-03-01T18:57:25.768884,2035310,648,1120,1380,-1025,-573,-323,33,231,-119
26105,7057,0,2023-03-01T18:57:25.774701,2035315,648,1120,1380,-1025,-573,-323,33,231,-119
26106,7058,0,2023-03-01T18:57:25.779782,2035320,648,1120,1380,-1025,-573,-323,33,231,-119
26107,7059,0,2023-03-01T18:57:25.784887,2035325,648,1117,1378,-1033,-572,-317,33,231,-119
26108,7060,0,2023-03-01T18:57:25.791326,2035333,648,1117,1378,-1033,-572,-317,33,231,-119
26109,7061,0,2023-03-01T18:57:25.796637,2035338,648,1117,1378,-1033,-572,-317,33,231,-119
26110,7062,0,2023-03-01T18:57:25.802183,2035343,648,1117,1378,-1033,-572,-317,33,231,-119
26111,7063,0,2023-03-01T18:57:25.808350,2035349,648,1120,1379,-1032,-577,-320,33,231,-119
26112,7064,0,2023-03-01T18:57:25.814419,2035355,648,1120,1379,-1032,-577,-320,33,231,-119
26113,7065,0,2023-03-01T18:57:25.818927,2035360,648,1120,1379,-1032,-577,-320,33,231,-119
26114,7066,0,2023-03-01T18:57:25.823641,2035364,650,1118,1381,-1039,-577,-321,33,231,-119
26115,7067,0,2023-03-01T18:57:25.829364,2035371,650,1118,1381,-1039,-577,-321,33,231,-119
26116,7068,0,2023-03-01T18:57:25.834945,2035376,650,1118,1381,-1039,-577,-321,33,231,-119
26117,7069,0,2023-03-01T18:57:25.839831,2035381,650,1118,1381,-1039,-577,-321,33,231,-119
26118,7070,0,2023-03-01T18:57:25.844746,2035386,648,1121,1369,-1042,-567,-313,33,231,-119
26119,7071,0,2023-03-01T18:57:25.850952,2035392,648,1121,1369,-1042,-567,-313,33,231,-119
26120,7072,0,2023-03-01T18:57:25.857483,2035398,648,1121,1369,-1042,-567,-313,33,231,-119
26121,7073,0,2023-03-01T18:57:25.862682,2035403,649,1119,1379,-1033,-571,-314,38,232,-124
26122,7074,0,2023-03-01T18:57:25.868513,2035409,649,1119,1379,-1033,-571,-314,38,232,-124
26123,7075,0,2023-03-01T18:57:25.873510,2035415,649,1119,1379,-1033,-571,-314,38,232,-124
26124,7076,0,2023-03-01T18:57:25.878413,2035419,649,1119,1379,-1033,-571,-314,38,232,-124
26125,7077,0,2023-03-01T18:57:25.883719,2035425,649,1119,1377,-1043,-567,-318,38,232,-124
26126,7078,0,2023-03-01T18:57:25.889828,2035431,649,1119,1377,-1043,-567,-318,38,232,-124
26127,7079,0,2023-03-01T18:57:25.895410,2035436,649,1119,1377,-1043,-567,-318,38,232,-124
26128,7080,0,2023-03-01T18:57:25.900269,2035441,649,1119,1377,-1043,-567,-318,38,232,-124
26129,7081,0,2023-03-01T18:57:25.905052,2035446,644,1121,1376,-1045,-574,-320,38,232,-124
26130,7082,0,2023-03-01T18:57:25.910979,2035451,644,1121,1376,-1045,-574,-320,38,232,-124
26131,7083,0,2023-03-01T18:57:25.917212,2035459,644,1121,1376,-1045,-574,-320,38,232,-124
26132,7084,0,2023-03-01T18:57:25.922187,2035463,649,1116,1371,-1042,-569,-323,38,232,-124
26133,7085,0,2023-03-01T18:57:25.927549,2035469,649,1116,1371,-1042,-569,-323,38,232,-124
26134,7086,0,2023-03-01T18:57:25.933454,2035474,649,1116,1371,-1042,-569,-323,38,232,-124
26135,7087,0,2023-03-01T18:57:25.938596,2035479,649,1116,1371,-1042,-569,-323,38,232,-124
26136,7088,0,2023-03-01T18:57:25.943689,2035485,650,1121,1378,-1035,-570,-323,38,232,-124
26137,7089,0,2023-03-01T18:57:25.949752,2035490,650,1121,1378,-1035,-570,-323,38,232,-124
26138,7090,0,2023-03-01T18:57:25.954917,2035495,650,1121,1378,-1035,-570,-323,38,232,-124
26139,7091,0,2023-03-01T18:57:25.959895,2035501,650,1121,1378,-1035,-570,-323,38,232,-124
26140,7092,0,2023-03-01T18:57:25.965312,2035506,649,1119,1373,-1028,-568,-322,38,232,-124
26141,7093,0,2023-03-01T18:57:25.972083,2035513,649,1119,1373,-1028,-568,-322,38,232,-124
26142,7094,0,2023-03-01T18:57:25.977597,2035519,649,1119,1373,-1028,-568,-322,38,232,-124
26143,7095,0,2023-03-01T18:57:25.982559,2035523,646,1121,1379,-1037,-570,-321,38,232,-124
26144,7096,0,2023-03-01T18:57:25.988356,2035529,646,1121,1379,-1037,-570,-321,38,232,-124
26145,7097,0,2023-03-01T18:57:25.993997,2035535,646,1121,1379,-1037,-570,-321,38,232,-124
26146,7098,0,2023-03-01T18:57:25.998884,2035539,646,1121,1379,-1037,-570,-321,38,232,-124
26147,7099,0,2023-03-01T18:57:26.003955,2035545,650,1118,1384,-1038,-565,-315,25,233,-123
26148,7100,0,2023-03-01T18:57:26.010057,2035551,650,1118,1384,-1038,-565,-315,25,233,-123
26149,7101,0,2023-03-01T18:57:26.015754,2035557,650,1118,1384,-1038,-565,-315,25,233,-123
26150,7102,0,2023-03-01T18:57:26.021023,2035562,650,1118,1384,-1038,-565,-315,25,233,-123
26151,7103,0,2023-03-01T18:57:26.026684,2035567,650,1118,1381,-1031,-571,-312,25,233,-123
26152,7104,0,2023-03-01T18:57:26.033106,2035574,650,1118,1381,-1031,-571,-312,25,233,-123
26153,7105,0,2023-03-01T18:57:26.038068,2035579,650,1118,1381,-1031,-571,-312,25,233,-123
26154,7106,0,2023-03-01T18:57:26.043522,2035584,647,1118,1378,-1037,-573,-321,25,233,-123
26155,7107,0,2023-03-01T18:57:26.049910,2035591,647,1118,1378,-1037,-573,-321,25,233,-123
26156,7108,0,2023-03-01T18:57:26.055760,2035597,647,1118,1378,-1037,-573,-321,25,233,-123
26157,7109,0,2023-03-01T18:57:26.060786,2035602,647,1118,1378,-1037,-573,-321,25,233,-123
26158,7110,0,2023-03-01T18:57:26.065776,2035607,650,1120,1377,-1041,-575,-322,25,233,-123
26159,7111,0,2023-03-01T18:57:26.073220,2035614,650,1120,1377,-1041,-575,-322,25,233,-123
26160,7112,0,2023-03-01T18:57:26.078926,2035619,650,1120,1377,-1041,-575,-322,25,233,-123
26161,7113,0,2023-03-01T18:57:26.084190,2035625,649,1118,1378,-1038,-571,-322,25,233,-123
26162,7114,0,2023-03-01T18:57:26.090798,2035632,649,1118,1378,-1038,-571,-322,25,233,-123
26163,7115,0,2023-03-01T18:57:26.096390,2035638,649,1118,1378,-1038,-571,-322,25,233,-123
26164,7116,0,2023-03-01T18:57:26.101569,2035642,649,1118,1378,-1038,-571,-322,25,233,-123
26165,7117,0,2023-03-01T18:57:26.106937,2035648,647,1119,1374,-1032,-566,-323,25,233,-123
26166,7118,0,2023-03-01T18:57:26.112570,2035653,647,1119,1374,-1032,-566,-323,25,233,-123
26167,7119,0,2023-03-01T18:57:26.118060,2035658,647,1119,1374,-1032,-566,-323,25,233,-123
26168,7120,0,2023-03-01T18:57:26.123100,2035664,651,1120,1381,-1031,-576,-327,30,236,-120
26169,7121,0,2023-03-01T18:57:26.129344,2035671,651,1120,1381,-1031,-576,-327,30,236,-120
26170,7122,0,2023-03-01T18:57:26.134173,2035675,651,1120,1381,-1031,-576,-327,30,236,-120
26171,7123,0,2023-03-01T18:57:26.139580,2035680,651,1120,1381,-1031,-576,-327,30,236,-120
26172,7124,0,2023-03-01T18:57:26.144928,2035686,651,1120,1374,-1029,-577,-320,30,236,-120
26173,7125,0,2023-03-01T18:57:26.150751,2035691,651,1120,1374,-1029,-577,-320,30,236,-120
26174,7126,0,2023-03-01T18:57:26.156535,2035697,651,1120,1374,-1029,-577,-320,30,236,-120
26175,7127,0,2023-03-01T18:57:26.161691,2035702,651,1120,1374,-1029,-577,-320,30,236,-120
26176,7128,0,2023-03-01T18:57:26.168226,2035708,649,1118,1377,-1025,-566,-314,30,236,-120
26177,7129,0,2023-03-01T18:57:26.174930,2035716,649,1118,1377,-1025,-566,-314,30,236,-120
26178,7130,0,2023-03-01T18:57:26.180049,2035721,649,1118,1377,-1025,-566,-314,30,236,-120
26179,7131,0,2023-03-01T18:57:26.184790,2035726,650,1116,1381,-1033,-570,-314,30,236,-120
26180,7132,0,2023-03-01T18:57:26.191437,2035732,650,1116,1381,-1033,-570,-314,30,236,-120
26181,7133,0,2023-03-01T18:57:26.197126,2035738,650,1116,1381,-1033,-570,-314,30,236,-120
26182,7134,0,2023-03-01T18:57:26.202073,2035743,650,1116,1381,-1033,-570,-314,30,236,-120
26183,7135,0,2023-03-01T18:57:26.206789,2035748,648,1117,1371,-1038,-574,-319,30,236,-120
26184,7136,0,2023-03-01T18:57:26.212810,2035753,648,1117,1371,-1038,-574,-319,30,236,-120
26185,7137,0,2023-03-01T18:57:26.217923,2035759,648,1117,1371,-1038,-574,-319,30,236,-120
26186,7138,0,2023-03-01T18:57:26.223112,2035764,651,1118,1376,-1026,-569,-322,30,236,-120
26187,7139,0,2023-03-01T18:57:26.229251,2035770,651,1118,1376,-1026,-569,-322,30,236,-120
26188,7140,0,2023-03-01T18:57:26.234684,2035776,651,1118,1376,-1026,-569,-322,30,236,-120
26189,7141,0,2023-03-01T18:57:26.239579,2035781,651,1118,1376,-1026,-569,-322,30,236,-120
26190,7142,0,2023-03-01T18:57:26.244596,2035785,646,1118,1380,-1030,-577,-313,30,236,-120
26191,7143,0,2023-03-01T18:57:26.251191,2035792,646,1118,1380,-1030,-577,-313,30,236,-120
26192,7144,0,2023-03-01T18:57:26.256771,2035798,646,1118,1380,-1030,-577,-313,30,236,-120
26193,7145,0,2023-03-01T18:57:26.261683,2035803,646,1118,1380,-1030,-577,-313,30,236,-120
26194,7146,0,2023-03-01T18:57:26.266677,2035808,652,1116,1382,-1027,-574,-316,27,227,-123
26195,7147,0,2023-03-01T18:57:26.273370,2035814,652,1116,1382,-1027,-574,-316,27,227,-123
26196,7148,0,2023-03-01T18:57:26.278350,2035819,652,1116,1382,-1027,-574,-316,27,227,-123
26197,7149,0,2023-03-01T18:57:26.283583,2035824,651,1117,1374,-1034,-574,-322,27,227,-123
26198,7150,0,2023-03-01T18:57:26.289567,2035830,651,1117,1374,-1034,-574,-322,27,227,-123
26199,7151,0,2023-03-01T18:57:26.295869,2035836,651,1117,1374,-1034,-574,-322,27,227,-123
26200,7152,0,2023-03-01T18:57:26.301069,2035842,651,1117,1374,-1034,-574,-322,27,227,-123
26201,7153,0,2023-03-01T18:57:26.306432,2035847,647,1117,1367,-1032,-581,-315,27,227,-123
26202,7154,0,2023-03-01T18:57:26.312950,2035854,647,1117,1367,-1032,-581,-315,27,227,-123
26203,7155,0,2023-03-01T18:57:26.318015,2035859,647,1117,1367,-1032,-581,-315,27,227,-123
26204,7156,0,2023-03-01T18:57:26.322670,2035864,648,1116,1375,-1029,-574,-319,27,227,-123
26205,7157,0,2023-03-01T18:57:26.328341,2035869,648,1116,1375,-1029,-574,-319,27,227,-123
26206,7158,0,2023-03-01T18:57:26.333726,2035874,648,1116,1375,-1029,-574,-319,27,227,-123
26207,7159,0,2023-03-01T18:57:26.338826,2035879,648,1116,1375,-1029,-574,-319,27,227,-123
26208,7160,0,2023-03-01T18:57:26.343913,2035885,648,1120,1382,-1033,-570,-323,27,227,-123
26209,7161,0,2023-03-01T18:57:26.349769,2035891,648,1120,1382,-1033,-570,-323,27,227,-123
26210,7162,0,2023-03-01T18:57:26.355414,2035896,648,1120,1382,-1033,-570,-323,27,227,-123
26211,7163,0,2023-03-01T18:57:26.360469,2035901,648,1120,1382,-1033,-570,-323,27,227,-123
26212,7164,0,2023-03-01T18:57:26.365733,2035906,648,1120,1373,-1035,-574,-322,27,227,-123
26213,7165,0,2023-03-01T18:57:26.372013,2035913,648,1120,1373,-1035,-574,-322,27,227,-123
26214,7166,0,2023-03-01T18:57:26.377720,2035918,648,1120,1373,-1035,-574,-322,27,227,-123
26215,7167,0,2023-03-01T18:57:26.382693,2035923,652,1117,1379,-1037,-566,-313,27,227,-123
26216,7168,0,2023-03-01T18:57:26.387954,2035929,652,1117,1379,-1037,-566,-313,29,239,-125
26217,7169,0,2023-03-01T18:57:26.392826,2035934,652,1117,1379,-1037,-566,-313,29,239,-125
26218,7170,0,2023-03-01T18:57:26.398468,2035939,652,1117,1379,-1037,-566,-313,29,239,-125
26219,7171,0,2023-03-01T18:57:26.403644,2035944,652,1120,1376,-1037,-569,-315,29,239,-125
26220,7172,0,2023-03-01T18:57:26.409561,2035950,652,1120,1376,-1037,-569,-315,29,239,-125
26221,7173,0,2023-03-01T18:57:26.415297,2035956,652,1120,1376,-1037,-569,-315,29,239,-125
26222,7174,0,2023-03-01T18:57:26.420178,2035961,652,1120,1376,-1037,-569,-315,29,239,-125
26223,7175,0,2023-03-01T18:57:26.424855,2035965,651,1118,1378,-1035,-567,-316,29,239,-125
26224,7176,0,2023-03-01T18:57:26.430814,2035972,651,1118,1378,-1035,-567,-316,29,239,-125
26225,7177,0,2023-03-01T18:57:26.436178,2035977,651,1118,1378,-1035,-567,-316,29,239,-125
26226,7178,0,2023-03-01T18:57:26.440723,2035982,651,1118,1378,-1035,-567,-316,29,239,-125
26227,7179,0,2023-03-01T18:57:26.445825,2035987,647,1121,1379,-1031,-570,-319,29,239,-125
26228,7180,0,2023-03-01T18:57:26.452254,2035993,647,1121,1379,-1031,-570,-319,29,239,-125
26229,7181,0,2023-03-01T18:57:26.457640,2035998,647,1121,1379,-1031,-570,-319,29,239,-125
26230,7182,0,2023-03-01T18:57:26.462394,2036003,647,1121,1379,-1031,-570,-319,29,239,-125
26231,7183,0,2023-03-01T18:57:26.467679,2036008,645,1120,1380,-1037,-564,-322,29,239,-125
26232,7184,0,2023-03-01T18:57:26.474227,2036015,645,1120,1380,-1037,-564,-322,29,239,-125
26233,7185,0,2023-03-01T18:57:26.478788,2036020,645,1120,1380,-1037,-564,-322,29,239,-125
26234,7186,0,2023-03-01T18:57:26.483551,2036025,649,1119,1377,-1037,-566,-313,29,239,-125
26235,7187,0,2023-03-01T18:57:26.489649,2036031,649,1119,1377,-1037,-566,-313,29,239,-125
26236,7188,0,2023-03-01T18:57:26.495120,2036036,649,1119,1377,-1037,-566,-313,29,239,-125
26237,7189,0,2023-03-01T18:57:26.500268,2036041,649,1119,1377,-1037,-566,-313,29,239,-125
26238,7190,0,2023-03-01T18:57:26.505303,2036046,648,1121,1380,-1030,-562,-311,31,237,-123
26239,7191,0,2023-03-01T18:57:26.512288,2036052,648,1121,1380,-1030,-562,-311,31,237,-123
26240,7192,0,2023-03-01T18:57:26.518287,2036060,648,1121,1380,-1030,-562,-311,31,237,-123
26241,7193,0,2023-03-01T18:57:26.522958,2036064,646,1123,1379,-1040,-570,-318,31,237,-123
26242,7194,0,2023-03-01T18:57:26.528937,2036070,646,1123,1379,-1040,-570,-318,31,237,-123
26243,7195,0,2023-03-01T18:57:26.534838,2036075,646,1123,1379,-1040,-570,-318,31,237,-123
26244,7196,0,2023-03-01T18:57:26.540157,2036081,646,1123,1379,-1040,-570,-318,31,237,-123
26245,7197,0,2023-03-01T18:57:26.545298,2036086,650,1118,1374,-1034,-573,-317,31,237,-123
26246,7198,0,2023-03-01T18:57:26.551313,2036092,650,1118,1374,-1034,-573,-317,31,237,-123
26247,7199,0,2023-03-01T18:57:26.557302,2036098,650,1118,1374,-1034,-573,-317,31,237,-123
26248,7200,0,2023-03-01T18:57:26.562450,2036104,650,1118,1374,-1034,-573,-317,31,237,-123
26249,7201,0,2023-03-01T18:57:26.568559,2036110,647,1117,1370,-1045,-577,-321,31,237,-123
26250,7202,0,2023-03-01T18:57:26.574814,2036116,647,1117,1370,-1045,-577,-321,31,237,-123
26251,7203,0,2023-03-01T18:57:26.579733,2036121,647,1117,1370,-1045,-577,-321,31,237,-123
26252,7204,0,2023-03-01T18:57:26.584838,2036126,648,1119,1379,-1051,-582,-324,31,237,-123
26253,7205,0,2023-03-01T18:57:26.591360,2036132,648,1119,1379,-1051,-582,-324,31,237,-123
26254,7206,0,2023-03-01T18:57:26.597794,2036139,648,1119,1379,-1051,-582,-324,31,237,-123
26255,7207,0,2023-03-01T18:57:26.603013,2036144,649,1118,1377,-1044,-576,-321,31,237,-123
26256,7208,0,2023-03-01T18:57:26.609416,2036150,649,1118,1377,-1044,-576,-321,31,237,-123
26257,7209,0,2023-03-01T18:57:26.615228,2036156,649,1118,1377,-1044,-576,-321,31,237,-123
26258,7210,0,2023-03-01T18:57:26.620469,2036161,649,1118,1377,-1044,-576,-321,31,237,-123
26259,7211,0,2023-03-01T18:57:26.626153,2036167,647,1117,1371,-1038,-579,-324,31,237,-123
26260,7212,0,2023-03-01T18:57:26.632996,2036174,647,1117,1371,-1038,-579,-324,31,237,-123
26261,7213,0,2023-03-01T18:57:26.638219,2036178,647,1117,1371,-1038,-579,-324,31,237,-123
26262,7214,0,2023-03-01T18:57:26.643136,2036184,647,1117,1371,-1038,-579,-324,31,237,-123
26263,7215,0,2023-03-01T18:57:26.648378,2036189,646,1118,1377,-1037,-574,-323,28,246,-132
26264,7216,0,2023-03-01T18:57:26.655067,2036196,646,1118,1377,-1037,-574,-323,28,246,-132
26265,7217,0,2023-03-01T18:57:26.659865,2036201,646,1118,1377,-1037,-574,-323,28,246,-132
26266,7218,0,2023-03-01T18:57:26.664280,2036205,649,1118,1378,-1039,-581,-324,28,246,-132
26267,7219,0,2023-03-01T18:57:26.670659,2036211,649,1118,1378,-1039,-581,-324,28,246,-132
26268,7220,0,2023-03-01T18:57:26.676459,2036217,649,1118,1378,-1039,-581,-324,28,246,-132
26269,7221,0,2023-03-01T18:57:26.681866,2036222,649,1118,1378,-1039,-581,-324,28,246,-132
26270,7222,0,2023-03-01T18:57:26.687417,2036229,651,1119,1373,-1032,-574,-315,28,246,-132
26271,7223,0,2023-03-01T18:57:26.693806,2036235,651,1119,1373,-1032,-574,-315,28,246,-132
26272,7224,0,2023-03-01T18:57:26.698973,2036240,651,1119,1373,-1032,-574,-315,28,246,-132
26273,7225,0,2023-03-01T18:57:26.704630,2036245,649,1117,1374,-1029,-564,-312,28,246,-132
26274,7226,0,2023-03-01T18:57:26.711719,2036252,649,1117,1374,-1029,-564,-312,28,246,-132
26275,7227,0,2023-03-01T18:57:26.717370,2036258,649,1117,1374,-1029,-564,-312,28,246,-132
26276,7228,0,2023-03-01T18:57:26.722273,2036263,649,1117,1374,-1029,-564,-312,28,246,-132
26277,7229,0,2023-03-01T18:57:26.727003,2036269,650,1119,1378,-1036,-562,-317,28,246,-132
26278,7230,0,2023-03-01T18:57:26.733011,2036274,650,1119,1378,-1036,-562,-317,28,246,-132
26279,7231,0,2023-03-01T18:57:26.738203,2036279,650,1119,1378,-1036,-562,-317,28,246,-132
26280,7232,0,2023-03-01T18:57:26.743673,2036284,651,1124,1373,-1034,-571,-315,28,246,-132
26281,7233,0,2023-03-01T18:57:26.749666,2036291,651,1124,1373,-1034,-571,-315,28,246,-132
26282,7234,0,2023-03-01T18:57:26.755127,2036296,651,1124,1373,-1034,-571,-315,28,246,-132
26283,7235,0,2023-03-01T18:57:26.759832,2036301,651,1124,1373,-1034,-571,-315,28,246,-132
26284,7236,0,2023-03-01T18:57:26.764719,2036305,645,1122,1377,-1046,-575,-319,25,237,-127
26285,7237,0,2023-03-01T18:57:26.771097,2036312,645,1122,1377,-1046,-575,-319,25,237,-127
26286,7238,0,2023-03-01T18:57:26.776792,2036318,645,1122,1377,-1046,-575,-319,25,237,-127
26287,7239,0,2023-03-01T18:57:26.781881,2036323,645,1122,1377,-1046,-575,-319,25,237,-127
26288,7240,0,2023-03-01T18:57:26.787032,2036328,651,1122,1380,-1039,-577,-311,25,237,-127
26289,7241,0,2023-03-01T18:57:26.793834,2036334,651,1122,1380,-1039,-577,-311,25,237,-127
26290,7242,0,2023-03-01T18:57:26.798843,2036340,651,1122,1380,-1039,-577,-311,25,237,-127
26291,7243,0,2023-03-01T18:57:26.803455,2036344,649,1120,1373,-1035,-571,-324,25,237,-127
26292,7244,0,2023-03-01T18:57:26.809566,2036350,649,1120,1373,-1035,-571,-324,25,237,-127
26293,7245,0,2023-03-01T18:57:26.815364,2036356,649,1120,1373,-1035,-571,-324,25,237,-127
26294,7246,0,2023-03-01T18:57:26.820499,2036362,649,1120,1373,-1035,-571,-324,25,237,-127
26295,7247,0,2023-03-01T18:57:26.825560,2036367,648,1119,1370,-1040,-575,-321,25,237,-127
26296,7248,0,2023-03-01T18:57:26.831126,2036372,648,1119,1370,-1040,-575,-321,25,237,-127
26297,7249,0,2023-03-01T18:57:26.836494,2036378,648,1119,1370,-1040,-575,-321,25,237,-127
26298,7250,0,2023-03-01T18:57:26.842091,2036382,648,1119,1370,-1040,-575,-321,25,237,-127
26299,7251,0,2023-03-01T18:57:26.847921,2036388,651,1120,1373,-1043,-572,-319,25,237,-127
26300,7252,0,2023-03-01T18:57:26.854563,2036396,651,1120,1373,-1043,-572,-319,25,237,-127
26301,7253,0,2023-03-01T18:57:26.859373,2036401,651,1120,1373,-1043,-572,-319,25,237,-127
26302,7254,0,2023-03-01T18:57:26.864147,2036405,650,1120,1377,-1041,-573,-325,25,237,-127
26303,7255,0,2023-03-01T18:57:26.868808,2036410,650,1120,1377,-1041,-573,-325,25,237,-127
26304,7256,0,2023-03-01T18:57:26.873913,2036415,650,1120,1377,-1041,-573,-325,25,237,-127
26305,7257,0,2023-03-01T18:57:26.879017,2036420,650,1120,1377,-1041,-573,-325,25,237,-127
26306,7258,0,2023-03-01T18:57:26.883835,2036425,649,1120,1375,-1037,-575,-325,25,237,-127
26307,7259,0,2023-03-01T18:57:26.889789,2036430,649,1120,1375,-1037,-575,-325,25,237,-127
26308,7260,0,2023-03-01T18:57:26.895245,2036436,649,1120,1375,-1037,-575,-325,25,237,-127
26309,7261,0,2023-03-01T18:57:26.900591,2036442,649,1120,1375,-1037,-575,-325,25,237,-127
26310,7262,0,2023-03-01T18:57:26.905587,2036447,648,1120,1381,-1034,-578,-327,31,237,-121
26311,7263,0,2023-03-01T18:57:26.911426,2036453,648,1120,1381,-1034,-578,-327,31,237,-121
26312,7264,0,2023-03-01T18:57:26.916900,2036458,648,1120,1381,-1034,-578,-327,31,237,-121
26313,7265,0,2023-03-01T18:57:26.922691,2036463,648,1120,1381,-1034,-578,-327,31,237,-121
26314,7266,0,2023-03-01T18:57:26.927651,2036468,652,1120,1376,-1037,-570,-320,31,237,-121
26315,7267,0,2023-03-01T18:57:26.934197,2036474,652,1120,1376,-1037,-570,-320,31,237,-121
26316,7268,0,2023-03-01T18:57:26.939500,2036481,652,1120,1376,-1037,-570,-320,31,237,-121
26317,7269,0,2023-03-01T18:57:26.944113,2036486,653,1119,1377,-1038,-570,-317,31,237,-121
26318,7270,0,2023-03-01T18:57:26.949956,2036491,653,1119,1377,-1038,-570,-317,31,237,-121
26319,7271,0,2023-03-01T18:57:26.957250,2036498,653,1119,1377,-1038,-570,-317,31,237,-121
26320,7272,0,2023-03-01T18:57:26.962876,2036503,653,1119,1377,-1038,-570,-317,31,237,-121
26321,7273,0,2023-03-01T18:57:26.969182,2036509,653,1120,1369,-1033,-577,-318,31,237,-121
26322,7274,0,2023-03-01T18:57:26.975318,2036516,653,1120,1369,-1033,-577,-318,31,237,-121
26323,7275,0,2023-03-01T18:57:26.980619,2036521,653,1120,1369,-1033,-577,-318,31,237,-121
26324,7276,0,2023-03-01T18:57:26.985861,2036527,651,1120,1376,-1037,-573,-312,31,237,-121
26325,7277,0,2023-03-01T18:57:26.993740,2036535,651,1120,1376,-1037,-573,-312,31,237,-121
26326,7278,0,2023-03-01T18:57:26.999278,2036540,651,1120,1376,-1037,-573,-312,31,237,-121
26327,7279,0,2023-03-01T18:57:27.004327,2036545,647,1120,1374,-1035,-569,-318,31,237,-121
26328,7280,0,2023-03-01T18:57:27.011002,2036551,647,1120,1374,-1035,-569,-318,31,237,-121
26329,7281,0,2023-03-01T18:57:27.016711,2036557,647,1120,1374,-1035,-569,-318,31,237,-121
26330,7282,0,2023-03-01T18:57:27.022385,2036563,647,1120,1374,-1035,-569,-318,31,237,-121
26331,7283,0,2023-03-01T18:57:27.027526,2036569,647,1119,1378,-1032,-573,-312,33,233,-125
26332,7284,0,2023-03-01T18:57:27.034927,2036576,647,1119,1378,-1032,-573,-312,33,233,-125
26333,7285,0,2023-03-01T18:57:27.040552,2036581,647,1119,1378,-1032,-573,-312,33,233,-125
26334,7286,0,2023-03-01T18:57:27.045682,2036586,649,1120,1376,-1038,-573,-322,33,233,-125
26335,7287,0,2023-03-01T18:57:27.051845,2036593,649,1120,1376,-1038,-573,-322,33,233,-125
26336,7288,0,2023-03-01T18:57:27.057837,2036598,649,1120,1376,-1038,-573,-322,33,233,-125
26337,7289,0,2023-03-01T18:57:27.064225,2036604,649,1120,1376,-1038,-573,-322,33,233,-125
26338,7290,0,2023-03-01T18:57:27.070719,2036611,651,1117,1379,-1030,-566,-323,33,233,-125
26339,7291,0,2023-03-01T18:57:27.078128,2036619,651,1117,1379,-1030,-566,-323,33,233,-125
26340,7292,0,2023-03-01T18:57:27.083117,2036624,651,1117,1379,-1030,-566,-323,33,233,-125
26341,7293,0,2023-03-01T18:57:27.088514,2036629,652,1117,1380,-1025,-573,-319,33,233,-125
26342,7294,0,2023-03-01T18:57:27.095629,2036636,652,1117,1380,-1025,-573,-319,33,233,-125
26343,7295,0,2023-03-01T18:57:27.101047,2036641,652,1117,1380,-1025,-573,-319,33,233,-125
26344,7296,0,2023-03-01T18:57:27.106132,2036647,650,1119,1377,-1034,-570,-317,33,233,-125
26345,7297,0,2023-03-01T18:57:27.113166,2036654,650,1119,1377,-1034,-570,-317,33,233,-125
26346,7298,0,2023-03-01T18:57:27.118326,2036659,650,1119,1377,-1034,-570,-317,33,233,-125
26347,7299,0,2023-03-01T18:57:27.123502,2036665,650,1119,1377,-1034,-570,-317,33,233,-125
26348,7300,0,2023-03-01T18:57:27.129670,2036670,646,1121,1377,-1036,-570,-314,33,233,-125
26349,7301,0,2023-03-01T18:57:27.136992,2036678,646,1121,1377,-1036,-570,-314,33,233,-125
26350,7302,0,2023-03-01T18:57:27.141991,2036683,646,1121,1377,-1036,-570,-314,33,233,-125
26351,7303,0,2023-03-01T18:57:27.146883,2036687,651,1120,1368,-1036,-570,-315,28,244,-122
26352,7304,0,2023-03-01T18:57:27.153576,2036695,651,1120,1368,-1036,-570,-315,28,244,-122
26353,7305,0,2023-03-01T18:57:27.159503,2036701,651,1120,1368,-1036,-570,-315,28,244,-122
26354,7306,0,2023-03-01T18:57:27.164792,2036706,649,1121,1379,-1040,-575,-317,28,244,-122
26355,7307,0,2023-03-01T18:57:27.172520,2036712,649,1121,1379,-1040,-575,-317,28,244,-122
26356,7308,0,2023-03-01T18:57:27.178454,2036719,649,1121,1379,-1040,-575,-317,28,244,-122
