,Unnamed: 0,imu,server_time,arduino_time,ax,ay,az,gx,gy,gz,mx,my,mz
28634,9586,0,2023-03-01T18:57:39.800332,2049342,864,1492,1038,79,-1052,44,-36,214,-180
28635,9587,0,2023-03-01T18:57:39.805852,2049347,864,1492,1038,79,-1052,44,-36,214,-180
28636,9588,0,2023-03-01T18:57:39.811576,2049353,864,1492,1038,79,-1052,44,-36,214,-180
28637,9589,0,2023-03-01T18:57:39.817205,2049359,864,1492,1038,79,-1052,44,-36,214,-180
28638,9590,0,2023-03-01T18:57:39.822236,2049364,863,1495,1027,99,-1062,52,-36,214,-180
28639,9591,0,2023-03-01T18:57:39.827595,2049370,863,1495,1027,99,-1062,52,-36,214,-180
28640,9592,0,2023-03-01T18:57:39.832267,2049374,863,1495,1027,99,-1062,52,-36,214,-180
28641,9593,0,2023-03-01T18:57:39.839747,2049381,863,1495,1027,99,-1062,52,-36,214,-180
28642,9594,0,2023-03-01T18:57:39.845574,2049387,872,1510,1022,91,-1060,45,-36,214,-180
28643,9595,0,2023-03-01T18:57:39.850810,2049393,872,1510,1022,91,-1060,45,-36,214,-180
28644,9596,0,2023-03-01T18:57:39.855989,2049398,872,1510,1022,91,-1060,45,-36,214,-180
28645,9597,0,2023-03-01T18:57:39.861287,2049403,873,1504,1014,100,-1071,50,-36,214,-180
28646,9598,0,2023-03-01T18:57:39.867158,2049409,873,1504,1014,100,-1071,50,-36,214,-180
28647,9599,0,2023-03-01T18:57:39.872188,2049414,873,1504,1014,100,-1071,50,-36,214,-180
28648,9600,0,2023-03-01T18:57:39.877900,2049420,873,1504,1014,100,-1071,50,-36,214,-180
28649,9601,0,2023-03-01T18:57:39.882815,2049425,876,1511,1008,106,-1054,53,-32,210,-178
28650,9602,0,2023-03-01T18:57:39.888399,2049430,876,1511,1008,106,-1054,53,-32,210,-178
28651,9603,0,2023-03-01T18:57:39.893456,2049435,876,1511,1008,106,-1054,53,-32,210,-178
28652,9604,0,2023-03-01T18:57:39.900144,2049441,874,1510,1007,123,-1071,60,-32,210,-178
28653,9605,0,2023-03-01T18:57:39.906002,2049447,874,1510,1007,123,-1071,60,-32,210,-178
28654,9606,0,2023-03-01T18:57:39.910966,2049453,874,1510,1007,123,-1071,60,-32,210,-178
28655,9607,0,2023-03-01T18:57:39.916672,2049459,874,1510,1007,123,-1071,60,-32,210,-178
28656,9608,0,2023-03-01T18:57:39.921567,2049463,884,1522,1005,116,-1070,49,-32,210,-178
28657,9609,0,2023-03-01T18:57:39.927175,2049469,884,1522,1005,116,-1070,49,-32,210,-178
28658,9610,0,2023-03-01T18:57:39.932445,2049474,884,1522,1005,116,-1070,49,-32,210,-178
28659,9611,0,2023-03-01T18:57:39.937641,2049479,884,1522,1005,116,-1070,49,-32,210,-178
28660,9612,0,2023-03-01T18:57:39.943169,2049485,877,1510,1004,129,-1072,52,-32,210,-178
28661,9613,0,2023-03-01T18:57:39.949124,2049490,877,1510,1004,129,-1072,52,-32,210,-178
28662,9614,0,2023-03-01T18:57:39.954662,2049496,877,1510,1004,129,-1072,52,-32,210,-178
28663,9615,0,2023-03-01T18:57:39.961732,2049503,880,1514,1006,100,-1105,13,-32,210,-178
28664,9616,0,2023-03-01T18:57:39.966904,2049509,880,1514,1006,100,-1105,13,-32,210,-178
28665,9617,0,2023-03-01T18:57:39.971714,2049514,880,1514,1006,100,-1105,13,-32,210,-178
28666,9618,0,2023-03-01T18:57:39.977406,2049519,880,1514,1006,100,-1105,13,-32,210,-178
28667,9619,0,2023-03-01T18:57:39.983596,2049525,893,1528,992,64,-1198,-60,-32,210,-178
28668,9620,0,2023-03-01T18:57:39.989186,2049531,893,1528,992,64,-1198,-60,-32,210,-178
28669,9621,0,2023-03-01T18:57:39.993910,2049536,893,1528,992,64,-1198,-60,-32,210,-178
28670,9622,0,2023-03-01T18:57:39.999793,2049542,899,1534,972,34,-1250,-107,-32,210,-178
28671,9623,0,2023-03-01T18:57:40.004373,2049547,899,1534,972,34,-1250,-107,-32,210,-178
28672,9624,0,2023-03-01T18:57:40.009539,2049551,899,1534,972,34,-1250,-107,-32,210,-178
28673,9625,0,2023-03-01T18:57:40.014199,2049556,899,1534,972,34,-1250,-107,-32,210,-178
28674,9626,0,2023-03-01T18:57:40.020447,2049562,900,1538,973,7,-1251,-144,-34,212,-190
28675,9627,0,2023-03-01T18:57:40.025780,2049567,900,1538,973,7,-1251,-144,-34,212,-190
28676,9628,0,2023-03-01T18:57:40.031028,2049572,900,1538,973,7,-1251,-144,-34,212,-190
28677,9629,0,2023-03-01T18:57:40.036714,2049579,900,1538,973,7,-1251,-144,-34,212,-190
28678,9630,0,2023-03-01T18:57:40.042839,2049585,894,1531,979,-15,-1256,-147,-34,212,-190
28679,9631,0,2023-03-01T18:57:40.049068,2049591,894,1531,979,-15,-1256,-147,-34,212,-190
28680,9632,0,2023-03-01T18:57:40.053770,2049596,894,1531,979,-15,-1256,-147,-34,212,-190
28681,9633,0,2023-03-01T18:57:40.061157,2049603,897,1535,975,-53,-1232,-149,-34,212,-190
28682,9634,0,2023-03-01T18:57:40.066989,2049608,897,1535,975,-53,-1232,-149,-34,212,-190
28683,9635,0,2023-03-01T18:57:40.072311,2049614,897,1535,975,-53,-1232,-149,-34,212,-190
28684,9636,0,2023-03-01T18:57:40.077902,2049619,897,1535,975,-53,-1232,-149,-34,212,-190
28685,9637,0,2023-03-01T18:57:40.083579,2049626,904,1531,974,-123,-1177,-155,-34,212,-190
28686,9638,0,2023-03-01T18:57:40.089104,2049631,904,1531,974,-123,-1177,-155,-34,212,-190
28687,9639,0,2023-03-01T18:57:40.094131,2049636,904,1531,974,-123,-1177,-155,-34,212,-190
28688,9640,0,2023-03-01T18:57:40.100453,2049642,903,1530,960,-231,-1113,-169,-34,212,-190
28689,9641,0,2023-03-01T18:57:40.105432,2049647,903,1530,960,-231,-1113,-169,-34,212,-190
28690,9642,0,2023-03-01T18:57:40.110610,2049652,903,1530,960,-231,-1113,-169,-34,212,-190
28691,9643,0,2023-03-01T18:57:40.115773,2049657,903,1530,960,-231,-1113,-169,-34,212,-190
28692,9644,0,2023-03-01T18:57:40.120679,2049662,915,1538,952,-335,-1035,-194,-34,212,-190
28693,9645,0,2023-03-01T18:57:40.125554,2049668,915,1538,952,-335,-1035,-194,-34,212,-190
28694,9646,0,2023-03-01T18:57:40.130936,2049673,915,1538,952,-335,-1035,-194,-34,212,-190
28695,9647,0,2023-03-01T18:57:40.136629,2049678,915,1538,952,-335,-1035,-194,-34,212,-190
28696,9648,0,2023-03-01T18:57:40.142617,2049684,923,1548,947,-453,-965,-222,-36,202,-186
28697,9649,0,2023-03-01T18:57:40.148488,2049690,923,1548,947,-453,-965,-222,-36,202,-186
28698,9650,0,2023-03-01T18:57:40.153881,2049695,923,1548,947,-453,-965,-222,-36,202,-186
28699,9651,0,2023-03-01T18:57:40.159984,2049702,913,1546,947,-566,-887,-235,-36,202,-186
28700,9652,0,2023-03-01T18:57:40.164857,2049707,913,1546,947,-566,-887,-235,-36,202,-186
28701,9653,0,2023-03-01T18:57:40.172690,2049715,913,1546,947,-566,-887,-235,-36,202,-186
28702,9654,0,2023-03-01T18:57:40.178769,2049720,913,1546,947,-566,-887,-235,-36,202,-186
28703,9655,0,2023-03-01T18:57:40.185458,2049727,911,1548,955,-691,-804,-262,-36,202,-186
28704,9656,0,2023-03-01T18:57:40.190776,2049733,911,1548,955,-691,-804,-262,-36,202,-186
28705,9657,0,2023-03-01T18:57:40.196761,2049737,911,1548,955,-691,-804,-262,-36,202,-186
28706,9658,0,2023-03-01T18:57:40.202515,2049744,909,1544,959,-783,-745,-271,-36,202,-186
28707,9659,0,2023-03-01T18:57:40.208308,2049750,909,1544,959,-783,-745,-271,-36,202,-186
28708,9660,0,2023-03-01T18:57:40.213581,2049755,909,1544,959,-783,-745,-271,-36,202,-186
28709,9661,0,2023-03-01T18:57:40.219989,2049762,909,1544,959,-783,-745,-271,-36,202,-186
28710,9662,0,2023-03-01T18:57:40.224692,2049766,909,1536,953,-871,-692,-289,-36,202,-186
28711,9663,0,2023-03-01T18:57:40.230677,2049772,909,1536,953,-871,-692,-289,-36,202,-186
28712,9664,0,2023-03-01T18:57:40.236634,2049778,909,1536,953,-871,-692,-289,-36,202,-186
28713,9665,0,2023-03-01T18:57:40.242300,2049784,922,1545,948,-962,-625,-313,-36,202,-186
28714,9666,0,2023-03-01T18:57:40.247738,2049789,922,1545,948,-962,-625,-313,-36,202,-186
28715,9667,0,2023-03-01T18:57:40.252893,2049795,922,1545,948,-962,-625,-313,-36,202,-186
28716,9668,0,2023-03-01T18:57:40.258744,2049800,922,1545,948,-962,-625,-313,-36,202,-186
28717,9669,0,2023-03-01T18:57:40.263714,2049805,920,1548,939,-1016,-584,-325,-42,206,-188
28718,9670,0,2023-03-01T18:57:40.269134,2049811,920,1548,939,-1016,-584,-325,-42,206,-188
28719,9671,0,2023-03-01T18:57:40.274855,2049816,920,1548,939,-1016,-584,-325,-42,206,-188
28720,9672,0,2023-03-01T18:57:40.282116,2049823,924,1553,941,-1036,-578,-324,-42,206,-188
28721,9673,0,2023-03-01T18:57:40.287693,2049829,924,1553,941,-1036,-578,-324,-42,206,-188
28722,9674,0,2023-03-01T18:57:40.292696,2049835,924,1553,941,-1036,-578,-324,-42,206,-188
28723,9675,0,2023-03-01T18:57:40.298517,2049841,924,1553,941,-1036,-578,-324,-42,206,-188
28724,9676,0,2023-03-01T18:57:40.304022,2049846,917,1555,947,-1044,-565,-333,-42,206,-188
28725,9677,0,2023-03-01T18:57:40.309733,2049851,917,1555,947,-1044,-565,-333,-42,206,-188
28726,9678,0,2023-03-01T18:57:40.315053,2049856,917,1555,947,-1044,-565,-333,-42,206,-188
28727,9679,0,2023-03-01T18:57:40.321271,2049863,912,1548,946,-1042,-570,-327,-42,206,-188
28728,9680,0,2023-03-01T18:57:40.326730,2049868,912,1548,946,-1042,-570,-327,-42,206,-188
28729,9681,0,2023-03-01T18:57:40.331408,2049873,912,1548,946,-1042,-570,-327,-42,206,-188
28730,9682,0,2023-03-01T18:57:40.337972,2049880,912,1548,946,-1042,-570,-327,-42,206,-188
28731,9683,0,2023-03-01T18:57:40.343066,2049885,914,1548,953,-1043,-581,-323,-42,206,-188
28732,9684,0,2023-03-01T18:57:40.349033,2049891,914,1548,953,-1043,-581,-323,-42,206,-188
28733,9685,0,2023-03-01T18:57:40.354062,2049896,914,1548,953,-1043,-581,-323,-42,206,-188
28734,9686,0,2023-03-01T18:57:40.359595,2049901,914,1548,953,-1043,-581,-323,-42,206,-188
28735,9687,0,2023-03-01T18:57:40.364571,2049906,915,1543,948,-1030,-580,-317,-42,206,-188
28736,9688,0,2023-03-01T18:57:40.370666,2049912,915,1543,948,-1030,-580,-317,-42,206,-188
28737,9689,0,2023-03-01T18:57:40.376420,2049918,915,1543,948,-1030,-580,-317,-42,206,-188
28738,9690,0,2023-03-01T18:57:40.381441,2049924,920,1545,940,-1028,-582,-307,-42,206,-188
28739,9691,0,2023-03-01T18:57:40.386912,2049929,920,1545,940,-1028,-582,-307,-42,206,-188
28740,9692,0,2023-03-01T18:57:40.392134,2049934,920,1545,940,-1028,-582,-307,-42,206,-188
28741,9693,0,2023-03-01T18:57:40.397922,2049939,920,1545,940,-1028,-582,-307,-42,206,-188
28742,9694,0,2023-03-01T18:57:40.403256,2049944,922,1548,941,-1031,-580,-325,-36,204,-186
28743,9695,0,2023-03-01T18:57:40.409114,2049951,922,1548,941,-1031,-580,-325,-36,204,-186
28744,9696,0,2023-03-01T18:57:40.414256,2049956,922,1548,941,-1031,-580,-325,-36,204,-186
28745,9697,0,2023-03-01T18:57:40.420175,2049961,922,1548,941,-1031,-580,-325,-36,204,-186
28746,9698,0,2023-03-01T18:57:40.424903,2049967,921,1550,945,-1040,-561,-325,-36,204,-186
28747,9699,0,2023-03-01T18:57:40.431175,2049973,921,1550,945,-1040,-561,-325,-36,204,-186
28748,9700,0,2023-03-01T18:57:40.436643,2049979,921,1550,945,-1040,-561,-325,-36,204,-186
28749,9701,0,2023-03-01T18:57:40.442320,2049984,918,1550,948,-1047,-558,-335,-36,204,-186
28750,9702,0,2023-03-01T18:57:40.448575,2049990,918,1550,948,-1047,-558,-335,-36,204,-186
28751,9703,0,2023-03-01T18:57:40.454915,2049996,918,1550,948,-1047,-558,-335,-36,204,-186
28752,9704,0,2023-03-01T18:57:40.459975,2050001,918,1550,948,-1047,-558,-335,-36,204,-186
28753,9705,0,2023-03-01T18:57:40.464672,2050007,912,1549,948,-1051,-573,-331,-36,204,-186
28754,9706,0,2023-03-01T18:57:40.469932,2050012,912,1549,948,-1051,-573,-331,-36,204,-186
28755,9707,0,2023-03-01T18:57:40.475483,2050017,912,1549,948,-1051,-573,-331,-36,204,-186
28756,9708,0,2023-03-01T18:57:40.480538,2050022,913,1543,947,-1045,-578,-320,-36,204,-186
28757,9709,0,2023-03-01T18:57:40.486472,2050028,913,1543,947,-1045,-578,-320,-36,204,-186
28758,9710,0,2023-03-01T18:57:40.491356,2050033,913,1543,947,-1045,-578,-320,-36,204,-186
28759,9711,0,2023-03-01T18:57:40.497901,2050038,913,1543,947,-1045,-578,-320,-36,204,-186
28760,9712,0,2023-03-01T18:57:40.503389,2050045,913,1543,947,-1045,-578,-320,-36,204,-186
28761,9713,0,2023-03-01T18:57:40.508396,2050050,913,1543,947,-1045,-578,-320,-36,204,-186
28762,9714,0,2023-03-01T18:57:40.513262,2050055,913,1543,947,-1045,-578,-320,-36,204,-186
28763,9715,0,2023-03-01T18:57:40.519099,2050061,913,1543,947,-1045,-578,-320,-36,204,-186
28764,9716,0,2023-03-01T18:57:40.523999,2050066,921,1551,948,-1028,-580,-314,-30,206,-184
28765,9717,0,2023-03-01T18:57:40.529596,2050071,921,1551,948,-1028,-580,-314,-30,206,-184
28766,9718,0,2023-03-01T18:57:40.534385,2050076,921,1551,948,-1028,-580,-314,-30,206,-184
28767,9719,0,2023-03-01T18:57:40.540595,2050082,922,1551,944,-1033,-575,-323,-30,206,-184
28768,9720,0,2023-03-01T18:57:40.546388,2050088,922,1551,944,-1033,-575,-323,-30,206,-184
28769,9721,0,2023-03-01T18:57:40.551206,2050093,922,1551,944,-1033,-575,-323,-30,206,-184
28770,9722,0,2023-03-01T18:57:40.556601,2050099,922,1551,944,-1033,-575,-323,-30,206,-184
28771,9723,0,2023-03-01T18:57:40.562166,2050104,919,1547,943,-1039,-562,-327,-30,206,-184
28772,9724,0,2023-03-01T18:57:40.567482,2050109,919,1547,943,-1039,-562,-327,-30,206,-184
28773,9725,0,2023-03-01T18:57:40.572345,2050114,919,1547,943,-1039,-562,-327,-30,206,-184
28774,9726,0,2023-03-01T18:57:40.578264,2050120,919,1547,943,-1039,-562,-327,-30,206,-184
28775,9727,0,2023-03-01T18:57:40.583113,2050125,915,1552,949,-1043,-566,-325,-30,206,-184
28776,9728,0,2023-03-01T18:57:40.588745,2050130,915,1552,949,-1043,-566,-325,-30,206,-184
28777,9729,0,2023-03-01T18:57:40.593945,2050136,915,1552,949,-1043,-566,-325,-30,206,-184
28778,9730,0,2023-03-01T18:57:40.600214,2050142,915,1552,949,-1043,-566,-325,-30,206,-184
28779,9731,0,2023-03-01T18:57:40.605538,2050147,916,1548,944,-1050,-574,-319,-30,206,-184
28780,9732,0,2023-03-01T18:57:40.611460,2050153,916,1548,944,-1050,-574,-319,-30,206,-184
28781,9733,0,2023-03-01T18:57:40.617229,2050159,916,1548,944,-1050,-574,-319,-30,206,-184
28782,9734,0,2023-03-01T18:57:40.622420,2050164,916,1548,949,-1036,-580,-316,-30,206,-184
28783,9735,0,2023-03-01T18:57:40.628185,2050169,916,1548,949,-1036,-580,-316,-30,206,-184
28784,9736,0,2023-03-01T18:57:40.633188,2050174,916,1548,949,-1036,-580,-316,-30,206,-184
28785,9737,0,2023-03-01T18:57:40.638858,2050181,916,1548,949,-1036,-580,-316,-30,206,-184
28786,9738,0,2023-03-01T18:57:40.643574,2050185,918,1545,944,-1035,-577,-309,-30,206,-184
28787,9739,0,2023-03-01T18:57:40.648528,2050190,918,1545,944,-1035,-577,-309,-30,206,-184
28788,9740,0,2023-03-01T18:57:40.653956,2050196,918,1545,944,-1035,-577,-309,-30,206,-184
28789,9741,0,2023-03-01T18:57:40.660500,2050202,918,1545,944,-1035,-577,-309,-30,206,-184
28790,9742,0,2023-03-01T18:57:40.665611,2050207,926,1550,947,-1029,-576,-313,-35,199,-181
28791,9743,0,2023-03-01T18:57:40.671254,2050213,926,1550,947,-1029,-576,-313,-35,199,-181
28792,9744,0,2023-03-01T18:57:40.677071,2050219,926,1550,947,-1029,-576,-313,-35,199,-181
28793,9745,0,2023-03-01T18:57:40.683214,2050225,920,1551,944,-1037,-574,-320,-35,199,-181
28794,9746,0,2023-03-01T18:57:40.689169,2050231,920,1551,944,-1037,-574,-320,-35,199,-181
28795,9747,0,2023-03-01T18:57:40.694103,2050236,920,1551,944,-1037,-574,-320,-35,199,-181
28796,9748,0,2023-03-01T18:57:40.700216,2050242,920,1551,944,-1037,-574,-320,-35,199,-181
28797,9749,0,2023-03-01T18:57:40.706175,2050247,915,1549,945,-1045,-572,-333,-35,199,-181
28798,9750,0,2023-03-01T18:57:40.711928,2050253,915,1549,945,-1045,-572,-333,-35,199,-181
28799,9751,0,2023-03-01T18:57:40.719829,2050262,915,1549,945,-1045,-572,-333,-35,199,-181
28800,9752,0,2023-03-01T18:57:40.724668,2050267,916,1550,947,-1045,-568,-326,-35,199,-181
28801,9753,0,2023-03-01T18:57:40.730619,2050272,916,1550,947,-1045,-568,-326,-35,199,-181
28802,9754,0,2023-03-01T18:57:40.736629,2050278,916,1550,947,-1045,-568,-326,-35,199,-181
28803,9755,0,2023-03-01T18:57:40.742650,2050284,913,1550,949,-1034,-575,-316,-35,199,-181
28804,9756,0,2023-03-01T18:57:40.748511,2050290,913,1550,949,-1034,-575,-316,-35,199,-181
28805,9757,0,2023-03-01T18:57:40.753661,2050295,913,1550,949,-1034,-575,-316,-35,199,-181
28806,9758,0,2023-03-01T18:57:40.759590,2050301,913,1550,949,-1034,-575,-316,-35,199,-181
28807,9759,0,2023-03-01T18:57:40.765620,2050308,919,1544,946,-1033,-578,-312,-35,199,-181
28808,9760,0,2023-03-01T18:57:40.771222,2050313,919,1544,946,-1033,-578,-312,-35,199,-181
28809,9761,0,2023-03-01T18:57:40.776572,2050319,919,1544,946,-1033,-578,-312,-35,199,-181
28810,9762,0,2023-03-01T18:57:40.781367,2050323,920,1551,947,-1028,-579,-309,-43,207,-189
28811,9763,0,2023-03-01T18:57:40.786919,2050328,920,1551,947,-1028,-579,-309,-43,207,-189
28812,9764,0,2023-03-01T18:57:40.792377,2050333,920,1551,947,-1028,-579,-309,-43,207,-189
28813,9765,0,2023-03-01T18:57:40.798614,2050340,920,1551,947,-1028,-579,-309,-43,207,-189
28814,9766,0,2023-03-01T18:57:40.804046,2050345,918,1549,949,-1040,-577,-320,-43,207,-189
28815,9767,0,2023-03-01T18:57:40.809376,2050352,918,1549,949,-1040,-577,-320,-43,207,-189
28816,9768,0,2023-03-01T18:57:40.814514,2050356,918,1549,949,-1040,-577,-320,-43,207,-189
28817,9769,0,2023-03-01T18:57:40.821028,2050362,918,1549,949,-1040,-577,-320,-43,207,-189
28818,9770,0,2023-03-01T18:57:40.826069,2050368,918,1549,949,-1040,-577,-320,-43,207,-189
28819,9771,0,2023-03-01T18:57:40.831616,2050373,918,1549,949,-1040,-577,-320,-43,207,-189
28820,9772,0,2023-03-01T18:57:40.836879,2050378,918,1549,949,-1040,-577,-320,-43,207,-189
28821,9773,0,2023-03-01T18:57:40.842741,2050384,915,1548,948,-1038,-566,-336,-43,207,-189
28822,9774,0,2023-03-01T18:57:40.848450,2050391,915,1548,948,-1038,-566,-336,-43,207,-189
28823,9775,0,2023-03-01T18:57:40.853571,2050396,915,1548,948,-1038,-566,-336,-43,207,-189
28824,9776,0,2023-03-01T18:57:40.859051,2050401,915,1548,948,-1038,-566,-336,-43,207,-189
28825,9777,0,2023-03-01T18:57:40.864294,2050406,911,1549,949,-1038,-576,-321,-43,207,-189
28826,9778,0,2023-03-01T18:57:40.869957,2050411,911,1549,949,-1038,-576,-321,-43,207,-189
28827,9779,0,2023-03-01T18:57:40.874898,2050417,911,1549,949,-1038,-576,-321,-43,207,-189
28828,9780,0,2023-03-01T18:57:40.880909,2050423,915,1549,952,-1028,-574,-312,-43,207,-189
28829,9781,0,2023-03-01T18:57:40.886371,2050428,915,1549,952,-1028,-574,-312,-43,207,-189
28830,9782,0,2023-03-01T18:57:40.891192,2050433,915,1549,952,-1028,-574,-312,-43,207,-189
28831,9783,0,2023-03-01T18:57:40.896638,2050439,915,1549,952,-1028,-574,-312,-43,207,-189
28832,9784,0,2023-03-01T18:57:40.902240,2050444,916,1546,947,-1042,-585,-314,-43,207,-189
28833,9785,0,2023-03-01T18:57:40.908069,2050450,916,1546,947,-1042,-585,-314,-43,207,-189
28834,9786,0,2023-03-01T18:57:40.912699,2050455,916,1546,947,-1042,-585,-314,-43,207,-189
28835,9787,0,2023-03-01T18:57:40.918073,2050460,916,1546,947,-1042,-585,-314,-43,207,-189
28836,9788,0,2023-03-01T18:57:40.922827,2050464,922,1547,951,-1042,-574,-319,-39,213,-179
28837,9789,0,2023-03-01T18:57:40.928353,2050470,922,1547,951,-1042,-574,-319,-39,213,-179
28838,9790,0,2023-03-01T18:57:40.933072,2050475,922,1547,951,-1042,-574,-319,-39,213,-179
28839,9791,0,2023-03-01T18:57:40.939041,2050481,922,1547,951,-1042,-574,-319,-39,213,-179
28840,9792,0,2023-03-01T18:57:40.945057,2050487,923,1548,943,-1033,-575,-329,-39,213,-179
28841,9793,0,2023-03-01T18:57:40.950320,2050492,923,1548,943,-1033,-575,-329,-39,213,-179
28842,9794,0,2023-03-01T18:57:40.956283,2050497,923,1548,943,-1033,-575,-329,-39,213,-179
28843,9795,0,2023-03-01T18:57:40.961931,2050503,916,1549,952,-1032,-566,-323,-39,213,-179
28844,9796,0,2023-03-01T18:57:40.967778,2050509,916,1549,952,-1032,-566,-323,-39,213,-179
28845,9797,0,2023-03-01T18:57:40.973032,2050514,916,1549,952,-1032,-566,-323,-39,213,-179
28846,9798,0,2023-03-01T18:57:40.978890,2050521,916,1549,952,-1032,-566,-323,-39,213,-179
28847,9799,0,2023-03-01T18:57:40.984156,2050526,914,1550,951,-1036,-562,-320,-39,213,-179
28848,9800,0,2023-03-01T18:57:40.989312,2050531,914,1550,951,-1036,-562,-320,-39,213,-179
28849,9801,0,2023-03-01T18:57:40.994410,2050536,914,1550,951,-1036,-562,-320,-39,213,-179
28850,9802,0,2023-03-01T18:57:41.000177,2050542,914,1550,951,-1036,-562,-320,-39,213,-179
28851,9803,0,2023-03-01T18:57:41.005052,2050547,914,1549,946,-1036,-570,-316,-39,213,-179
28852,9804,0,2023-03-01T18:57:41.010826,2050552,914,1549,946,-1036,-570,-316,-39,213,-179
28853,9805,0,2023-03-01T18:57:41.016689,2050558,914,1549,946,-1036,-570,-316,-39,213,-179
28854,9806,0,2023-03-01T18:57:41.022657,2050565,918,1548,946,-1042,-582,-315,-39,213,-179
28855,9807,0,2023-03-01T18:57:41.028333,2050570,918,1548,946,-1042,-582,-315,-39,213,-179
28856,9808,0,2023-03-01T18:57:41.033771,2050575,918,1548,946,-1042,-582,-315,-39,213,-179
28857,9809,0,2023-03-01T18:57:41.039541,2050581,918,1548,946,-1042,-582,-315,-39,213,-179
28858,9810,0,2023-03-01T18:57:41.045311,2050587,920,1544,947,-1038,-582,-312,-33,207,-181
28859,9811,0,2023-03-01T18:57:41.051067,2050593,920,1544,947,-1038,-582,-312,-33,207,-181
28860,9812,0,2023-03-01T18:57:41.056825,2050598,920,1544,947,-1038,-582,-312,-33,207,-181
28861,9813,0,2023-03-01T18:57:41.062264,2050604,921,1549,956,-1028,-574,-315,-33,207,-181
28862,9814,0,2023-03-01T18:57:41.067799,2050610,921,1549,956,-1028,-574,-315,-33,207,-181
28863,9815,0,2023-03-01T18:57:41.072814,2050615,921,1549,956,-1028,-574,-315,-33,207,-181
28864,9816,0,2023-03-01T18:57:41.078462,2050620,921,1549,956,-1028,-574,-315,-33,207,-181
28865,9817,0,2023-03-01T18:57:41.085360,2050627,922,1549,951,-1031,-575,-328,-33,207,-181
28866,9818,0,2023-03-01T18:57:41.090988,2050632,922,1549,951,-1031,-575,-328,-33,207,-181
28867,9819,0,2023-03-01T18:57:41.096582,2050638,922,1549,951,-1031,-575,-328,-33,207,-181
28868,9820,0,2023-03-01T18:57:41.101143,2050643,917,1549,946,-1033,-568,-323,-33,207,-181
28869,9821,0,2023-03-01T18:57:41.106446,2050649,917,1549,946,-1033,-568,-323,-33,207,-181
28870,9822,0,2023-03-01T18:57:41.111260,2050653,917,1549,946,-1033,-568,-323,-33,207,-181
28871,9823,0,2023-03-01T18:57:41.116542,2050659,917,1549,946,-1033,-568,-323,-33,207,-181
28872,9824,0,2023-03-01T18:57:41.121549,2050663,915,1548,943,-1036,-571,-324,-33,207,-181
28873,9825,0,2023-03-01T18:57:41.127755,2050669,915,1548,943,-1036,-571,-324,-33,207,-181
28874,9826,0,2023-03-01T18:57:41.132801,2050674,915,1548,943,-1036,-571,-324,-33,207,-181
28875,9827,0,2023-03-01T18:57:41.138471,2050680,915,1548,943,-1036,-571,-324,-33,207,-181
28876,9828,0,2023-03-01T18:57:41.144021,2050685,916,1549,948,-1041,-571,-319,-33,207,-181
28877,9829,0,2023-03-01T18:57:41.149544,2050692,916,1549,948,-1041,-571,-319,-33,207,-181
28878,9830,0,2023-03-01T18:57:41.154826,2050697,916,1549,948,-1041,-571,-319,-33,207,-181
28879,9831,0,2023-03-01T18:57:41.161329,2050703,915,1547,947,-1040,-571,-317,-33,207,-181
28880,9832,0,2023-03-01T18:57:41.166659,2050709,915,1547,947,-1040,-571,-317,-42,210,-180
28881,9833,0,2023-03-01T18:57:41.171433,2050713,915,1547,947,-1040,-571,-317,-42,210,-180
28882,9834,0,2023-03-01T18:57:41.177129,2050719,915,1547,947,-1040,-571,-317,-42,210,-180
28883,9835,0,2023-03-01T18:57:41.183503,2050724,919,1547,950,-1033,-576,-318,-42,210,-180
28884,9836,0,2023-03-01T18:57:41.189919,2050732,919,1547,950,-1033,-576,-318,-42,210,-180
28885,9837,0,2023-03-01T18:57:41.194721,2050737,919,1547,950,-1033,-576,-318,-42,210,-180
28886,9838,0,2023-03-01T18:57:41.199736,2050742,919,1547,950,-1033,-576,-318,-42,210,-180
28887,9839,0,2023-03-01T18:57:41.205250,2050747,921,1547,953,-1030,-562,-323,-42,210,-180
28888,9840,0,2023-03-01T18:57:41.211283,2050753,921,1547,953,-1030,-562,-323,-42,210,-180
28889,9841,0,2023-03-01T18:57:41.217295,2050759,921,1547,953,-1030,-562,-323,-42,210,-180
28890,9842,0,2023-03-01T18:57:41.222182,2050764,918,1550,945,-1034,-564,-320,-42,210,-180
28891,9843,0,2023-03-01T18:57:41.228030,2050769,918,1550,945,-1034,-564,-320,-42,210,-180
28892,9844,0,2023-03-01T18:57:41.232732,2050775,918,1550,945,-1034,-564,-320,-42,210,-180
28893,9845,0,2023-03-01T18:57:41.238976,2050781,918,1550,945,-1034,-564,-320,-42,210,-180
28894,9846,0,2023-03-01T18:57:41.245331,2050787,914,1548,948,-1030,-565,-329,-42,210,-180
28895,9847,0,2023-03-01T18:57:41.251343,2050793,914,1548,948,-1030,-565,-329,-42,210,-180
28896,9848,0,2023-03-01T18:57:41.256465,2050798,914,1548,948,-1030,-565,-329,-42,210,-180
28897,9849,0,2023-03-01T18:57:41.262626,2050803,916,1550,949,-1037,-566,-323,-42,210,-180
28898,9850,0,2023-03-01T18:57:41.268972,2050810,916,1550,949,-1037,-566,-323,-42,210,-180
28899,9851,0,2023-03-01T18:57:41.273828,2050816,916,1550,949,-1037,-566,-323,-42,210,-180
28900,9852,0,2023-03-01T18:57:41.279519,2050822,916,1550,949,-1037,-566,-323,-42,210,-180
28901,9853,0,2023-03-01T18:57:41.284561,2050826,917,1546,948,-1035,-576,-318,-42,210,-180
28902,9854,0,2023-03-01T18:57:41.290217,2050832,917,1546,948,-1035,-576,-318,-42,210,-180
28903,9855,0,2023-03-01T18:57:41.295089,2050837,917,1546,948,-1035,-576,-318,-42,210,-180
28904,9856,0,2023-03-01T18:57:41.301573,2050843,916,1551,949,-1029,-575,-316,-42,210,-180
28905,9857,0,2023-03-01T18:57:41.307378,2050849,916,1551,949,-1029,-575,-316,-28,212,-184
28906,9858,0,2023-03-01T18:57:41.312399,2050854,916,1551,949,-1029,-575,-316,-28,212,-184
28907,9859,0,2023-03-01T18:57:41.317904,2050860,916,1551,949,-1029,-575,-316,-28,212,-184
28908,9860,0,2023-03-01T18:57:41.323183,2050865,920,1549,947,-1032,-577,-322,-28,212,-184
28909,9861,0,2023-03-01T18:57:41.328626,2050871,920,1549,947,-1032,-577,-322,-28,212,-184
28910,9862,0,2023-03-01T18:57:41.333470,2050875,920,1549,947,-1032,-577,-322,-28,212,-184
28911,9863,0,2023-03-01T18:57:41.338851,2050881,920,1549,947,-1032,-577,-322,-28,212,-184
28912,9864,0,2023-03-01T18:57:41.344409,2050886,920,1549,944,-1035,-568,-327,-28,212,-184
28913,9865,0,2023-03-01T18:57:41.350574,2050892,920,1549,944,-1035,-568,-327,-28,212,-184
28914,9866,0,2023-03-01T18:57:41.356367,2050897,920,1549,944,-1035,-568,-327,-28,212,-184
28915,9867,0,2023-03-01T18:57:41.362743,2050905,923,1548,949,-1041,-575,-323,-28,212,-184
28916,9868,0,2023-03-01T18:57:41.368463,2050911,923,1548,949,-1041,-575,-323,-28,212,-184
28917,9869,0,2023-03-01T18:57:41.373663,2050915,923,1548,949,-1041,-575,-323,-28,212,-184
28918,9870,0,2023-03-01T18:57:41.379546,2050921,923,1548,949,-1041,-575,-323,-28,212,-184
28919,9871,0,2023-03-01T18:57:41.385225,2050927,919,1551,952,-1040,-573,-325,-28,212,-184
28920,9872,0,2023-03-01T18:57:41.391082,2050932,919,1551,952,-1040,-573,-325,-28,212,-184
28921,9873,0,2023-03-01T18:57:41.396826,2050938,919,1551,952,-1040,-573,-325,-28,212,-184
28922,9874,0,2023-03-01T18:57:41.402557,2050945,919,1550,948,-1045,-570,-324,-28,212,-184
28923,9875,0,2023-03-01T18:57:41.407841,2050950,919,1550,948,-1045,-570,-324,-28,212,-184
28924,9876,0,2023-03-01T18:57:41.412728,2050955,919,1550,948,-1045,-570,-324,-28,212,-184
28925,9877,0,2023-03-01T18:57:41.417711,2050960,919,1550,948,-1045,-570,-324,-28,212,-184
28926,9878,0,2023-03-01T18:57:41.422387,2050964,918,1547,946,-1043,-575,-313,-40,212,-182
28927,9879,0,2023-03-01T18:57:41.428157,2050970,918,1547,946,-1043,-575,-313,-40,212,-182
28928,9880,0,2023-03-01T18:57:41.433547,2050975,918,1547,946,-1043,-575,-313,-40,212,-182
28929,9881,0,2023-03-01T18:57:41.439248,2050981,918,1547,946,-1043,-575,-313,-40,212,-182
28930,9882,0,2023-03-01T18:57:41.445042,2050987,922,1549,951,-1038,-575,-313,-40,212,-182
28931,9883,0,2023-03-01T18:57:41.450897,2050993,922,1549,951,-1038,-575,-313,-40,212,-182
28932,9884,0,2023-03-01T18:57:41.457820,2051000,922,1549,951,-1038,-575,-313,-40,212,-182
28933,9885,0,2023-03-01T18:57:41.463444,2051005,918,1546,951,-1038,-573,-318,-40,212,-182
28934,9886,0,2023-03-01T18:57:41.468932,2051011,918,1546,951,-1038,-573,-318,-40,212,-182
28935,9887,0,2023-03-01T18:57:41.473817,2051015,918,1546,951,-1038,-573,-318,-40,212,-182
28936,9888,0,2023-03-01T18:57:41.480323,2051021,918,1546,951,-1038,-573,-318,-40,212,-182
28937,9889,0,2023-03-01T18:57:41.487396,2051028,918,1549,944,-1033,-572,-327,-40,212,-182
28938,9890,0,2023-03-01T18:57:41.494162,2051036,918,1549,944,-1033,-572,-327,-40,212,-182
28939,9891,0,2023-03-01T18:57:41.500386,2051043,918,1549,944,-1033,-572,-327,-40,212,-182
28940,9892,0,2023-03-01T18:57:41.505686,2051048,919,1550,949,-1032,-571,-319,-40,212,-182
28941,9893,0,2023-03-01T18:57:41.511260,2051053,919,1550,949,-1032,-571,-319,-40,212,-182
28942,9894,0,2023-03-01T18:57:41.516668,2051058,919,1550,949,-1032,-571,-319,-40,212,-182
28943,9895,0,2023-03-01T18:57:41.521479,2051063,919,1550,949,-1032,-571,-319,-40,212,-182
28944,9896,0,2023-03-01T18:57:41.526489,2051068,917,1547,952,-1036,-573,-316,-40,212,-182
28945,9897,0,2023-03-01T18:57:41.532132,2051074,917,1547,952,-1036,-573,-316,-40,212,-182
28946,9898,0,2023-03-01T18:57:41.537736,2051080,917,1547,952,-1036,-573,-316,-40,212,-182
28947,9899,0,2023-03-01T18:57:41.542468,2051085,919,1549,941,-1035,-577,-321,-40,212,-182
28948,9900,0,2023-03-01T18:57:41.548072,2051090,919,1549,941,-1035,-577,-321,-40,212,-182
28949,9901,0,2023-03-01T18:57:41.552908,2051095,919,1549,941,-1035,-577,-321,-40,212,-182
28950,9902,0,2023-03-01T18:57:41.558883,2051100,919,1549,941,-1035,-577,-321,-40,212,-182
28951,9903,0,2023-03-01T18:57:41.564751,2051106,917,1551,946,-1035,-581,-326,-40,206,-182
28952,9904,0,2023-03-01T18:57:41.570154,2051112,917,1551,946,-1035,-581,-326,-40,206,-182
28953,9905,0,2023-03-01T18:57:41.574859,2051117,917,1551,946,-1035,-581,-326,-40,206,-182
28954,9906,0,2023-03-01T18:57:41.580570,2051123,917,1551,946,-1035,-581,-326,-40,206,-182
28955,9907,0,2023-03-01T18:57:41.585673,2051127,918,1547,948,-1036,-574,-314,-40,206,-182
28956,9908,0,2023-03-01T18:57:41.593655,2051135,918,1547,948,-1036,-574,-314,-40,206,-182
28957,9909,0,2023-03-01T18:57:41.599234,2051141,918,1547,948,-1036,-574,-314,-40,206,-182
28958,9910,0,2023-03-01T18:57:41.603907,2051146,919,1550,946,-1031,-570,-321,-40,206,-182
28959,9911,0,2023-03-01T18:57:41.609303,2051151,919,1550,946,-1031,-570,-321,-40,206,-182
28960,9912,0,2023-03-01T18:57:41.614090,2051155,919,1550,946,-1031,-570,-321,-40,206,-182
28961,9913,0,2023-03-01T18:57:41.619317,2051162,919,1550,946,-1031,-570,-321,-40,206,-182
28962,9914,0,2023-03-01T18:57:41.624227,2051166,920,1548,944,-1041,-573,-322,-40,206,-182
28963,9915,0,2023-03-01T18:57:41.629734,2051172,920,1548,944,-1041,-573,-322,-40,206,-182
28964,9916,0,2023-03-01T18:57:41.634616,2051177,920,1548,944,-1041,-573,-322,-40,206,-182
28965,9917,0,2023-03-01T18:57:41.640354,2051182,920,1548,944,-1041,-573,-322,-40,206,-182
28966,9918,0,2023-03-01T18:57:41.644948,2051187,918,1547,941,-1039,-576,-321,-40,206,-182
28967,9919,0,2023-03-01T18:57:41.650782,2051192,918,1547,941,-1039,-576,-321,-40,206,-182
28968,9920,0,2023-03-01T18:57:41.655966,2051197,918,1547,941,-1039,-576,-321,-40,206,-182
28969,9921,0,2023-03-01T18:57:41.662146,2051204,914,1550,951,-1037,-570,-321,-40,206,-182
28970,9922,0,2023-03-01T18:57:41.666887,2051209,914,1550,951,-1037,-570,-321,-40,206,-182
28971,9923,0,2023-03-01T18:57:41.672036,2051214,914,1550,951,-1037,-570,-321,-40,206,-182
28972,9924,0,2023-03-01T18:57:41.677895,2051220,914,1550,951,-1037,-570,-321,-40,206,-182
28973,9925,0,2023-03-01T18:57:41.682962,2051225,917,1547,951,-1042,-580,-317,-29,207,-185
28974,9926,0,2023-03-01T18:57:41.688566,2051230,917,1547,951,-1042,-580,-317,-29,207,-185
28975,9927,0,2023-03-01T18:57:41.693532,2051235,917,1547,951,-1042,-580,-317,-29,207,-185
28976,9928,0,2023-03-01T18:57:41.699947,2051241,917,1547,951,-1042,-580,-317,-29,207,-185
28977,9929,0,2023-03-01T18:57:41.705787,2051248,916,1547,949,-1038,-576,-322,-29,207,-185
28978,9930,0,2023-03-01T18:57:41.711426,2051254,916,1547,949,-1038,-576,-322,-29,207,-185
28979,9931,0,2023-03-01T18:57:41.716933,2051259,916,1547,949,-1038,-576,-322,-29,207,-185
28980,9932,0,2023-03-01T18:57:41.722357,2051264,916,1548,946,-1037,-575,-321,-29,207,-185
28981,9933,0,2023-03-01T18:57:41.727495,2051269,916,1548,946,-1037,-575,-321,-29,207,-185
28982,9934,0,2023-03-01T18:57:41.732654,2051274,916,1548,946,-1037,-575,-321,-29,207,-185
28983,9935,0,2023-03-01T18:57:41.738690,2051280,916,1548,946,-1037,-575,-321,-29,207,-185
28984,9936,0,2023-03-01T18:57:41.744573,2051287,920,1552,951,-1038,-572,-325,-29,207,-185
28985,9937,0,2023-03-01T18:57:41.750086,2051292,920,1552,951,-1038,-572,-325,-29,207,-185
28986,9938,0,2023-03-01T18:57:41.755035,2051297,920,1552,951,-1038,-572,-325,-29,207,-185
28987,9939,0,2023-03-01T18:57:41.761541,2051303,920,1552,951,-1038,-572,-325,-29,207,-185
28988,9940,0,2023-03-01T18:57:41.767003,2051309,920,1547,939,-1032,-573,-322,-29,207,-185
28989,9941,0,2023-03-01T18:57:41.773058,2051315,920,1547,939,-1032,-573,-322,-29,207,-185
28990,9942,0,2023-03-01T18:57:41.778875,2051320,920,1547,939,-1032,-573,-322,-29,207,-185
28991,9943,0,2023-03-01T18:57:41.785012,2051326,914,1549,945,-1034,-567,-323,-29,207,-185
28992,9944,0,2023-03-01T18:57:41.791147,2051333,914,1549,945,-1034,-567,-323,-29,207,-185
28993,9945,0,2023-03-01T18:57:41.796883,2051339,914,1549,945,-1034,-567,-323,-29,207,-185
28994,9946,0,2023-03-01T18:57:41.801561,2051344,914,1549,945,-1034,-567,-323,-29,207,-185
28995,9947,0,2023-03-01T18:57:41.806420,2051348,919,1549,950,-1037,-573,-320,-29,207,-185
28996,9948,0,2023-03-01T18:57:41.812694,2051354,919,1549,950,-1037,-573,-320,-29,207,-185
28997,9949,0,2023-03-01T18:57:41.818619,2051360,919,1549,950,-1037,-573,-320,-29,207,-185
28998,9950,0,2023-03-01T18:57:41.824115,2051366,917,1549,948,-1041,-575,-318,-32,204,-174
28999,9951,0,2023-03-01T18:57:41.830735,2051373,917,1549,948,-1041,-575,-318,-32,204,-174
29000,9952,0,2023-03-01T18:57:41.835974,2051378,917,1549,948,-1041,-575,-318,-32,204,-174
29001,9953,0,2023-03-01T18:57:41.841088,2051383,917,1549,948,-1041,-575,-318,-32,204,-174
29002,9954,0,2023-03-01T18:57:41.846631,2051388,917,1546,945,-1036,-570,-315,-32,204,-174
29003,9955,0,2023-03-01T18:57:41.853164,2051395,917,1546,945,-1036,-570,-315,-32,204,-174
29004,9956,0,2023-03-01T18:57:41.859078,2051401,917,1546,945,-1036,-570,-315,-32,204,-174
29005,9957,0,2023-03-01T18:57:41.864173,2051405,917,1548,942,-1039,-575,-311,-32,204,-174
29006,9958,0,2023-03-01T18:57:41.870315,2051411,917,1548,942,-1039,-575,-311,-32,204,-174
29007,9959,0,2023-03-01T18:57:41.875345,2051417,917,1548,942,-1039,-575,-311,-32,204,-174
29008,9960,0,2023-03-01T18:57:41.881199,2051423,917,1548,942,-1039,-575,-311,-32,204,-174
29009,9961,0,2023-03-01T18:57:41.886269,2051428,914,1546,946,-1038,-573,-320,-32,204,-174
29010,9962,0,2023-03-01T18:57:41.892327,2051434,914,1546,946,-1038,-573,-320,-32,204,-174
29011,9963,0,2023-03-01T18:57:41.897821,2051439,914,1546,946,-1038,-573,-320,-32,204,-174
29012,9964,0,2023-03-01T18:57:41.903494,2051445,920,1549,950,-1041,-568,-325,-32,204,-174
29013,9965,0,2023-03-01T18:57:41.908668,2051450,920,1549,950,-1041,-568,-325,-32,204,-174
29014,9966,0,2023-03-01T18:57:41.913340,2051456,920,1549,950,-1041,-568,-325,-32,204,-174
29015,9967,0,2023-03-01T18:57:41.918950,2051461,920,1549,950,-1041,-568,-325,-32,204,-174
29016,9968,0,2023-03-01T18:57:41.925493,2051467,918,1547,948,-1046,-571,-323,-32,204,-174
29017,9969,0,2023-03-01T18:57:41.931372,2051473,918,1547,948,-1046,-571,-323,-32,204,-174
29018,9970,0,2023-03-01T18:57:41.936996,2051479,918,1547,948,-1046,-571,-323,-32,204,-174
29019,9971,0,2023-03-01T18:57:41.941844,2051484,918,1547,948,-1046,-571,-323,-32,204,-174
29020,9972,0,2023-03-01T18:57:41.946632,2051488,918,1545,948,-1037,-573,-327,-35,207,-183
29021,9973,0,2023-03-01T18:57:41.952638,2051494,918,1545,948,-1037,-573,-327,-35,207,-183
29022,9974,0,2023-03-01T18:57:41.958589,2051501,918,1545,948,-1037,-573,-327,-35,207,-183
29023,9975,0,2023-03-01T18:57:41.963356,2051506,918,1546,948,-1033,-574,-327,-35,207,-183
29024,9976,0,2023-03-01T18:57:41.968958,2051511,918,1546,948,-1033,-574,-327,-35,207,-183
29025,9977,0,2023-03-01T18:57:41.974073,2051516,918,1546,948,-1033,-574,-327,-35,207,-183
29026,9978,0,2023-03-01T18:57:41.979727,2051522,918,1546,948,-1033,-574,-327,-35,207,-183
29027,9979,0,2023-03-01T18:57:41.985699,2051527,920,1551,946,-1038,-569,-322,-35,207,-183
29028,9980,0,2023-03-01T18:57:41.991128,2051533,920,1551,946,-1038,-569,-322,-35,207,-183
29029,9981,0,2023-03-01T18:57:41.995850,2051537,920,1551,946,-1038,-569,-322,-35,207,-183
29030,9982,0,2023-03-01T18:57:42.001588,2051544,920,1551,946,-1038,-569,-322,-35,207,-183
29031,9983,0,2023-03-01T18:57:42.006353,2051548,920,1551,946,-1038,-569,-322,-35,207,-183
29032,9984,0,2023-03-01T18:57:42.011185,2051553,920,1551,946,-1038,-569,-322,-35,207,-183
29033,9985,0,2023-03-01T18:57:42.016153,2051558,920,1551,946,-1038,-569,-322,-35,207,-183
29034,9986,0,2023-03-01T18:57:42.021435,2051563,920,1551,946,-1038,-569,-322,-35,207,-183
29035,9987,0,2023-03-01T18:57:42.026147,2051568,919,1550,947,-1036,-571,-322,-35,207,-183
29036,9988,0,2023-03-01T18:57:42.031845,2051573,919,1550,947,-1036,-571,-322,-35,207,-183
29037,9989,0,2023-03-01T18:57:42.038176,2051580,919,1550,947,-1036,-571,-322,-35,207,-183
29038,9990,0,2023-03-01T18:57:42.043220,2051585,917,1549,946,-1035,-574,-315,-35,207,-183
29039,9991,0,2023-03-01T18:57:42.049266,2051591,917,1549,946,-1035,-574,-315,-35,207,-183
29040,9992,0,2023-03-01T18:57:42.053978,2051596,917,1549,946,-1035,-574,-315,-35,207,-183
29041,9993,0,2023-03-01T18:57:42.058744,2051601,917,1549,946,-1035,-574,-315,-35,207,-183
29042,9994,0,2023-03-01T18:57:42.063514,2051605,920,1546,950,-1040,-568,-310,-41,211,-187
29043,9995,0,2023-03-01T18:57:42.069146,2051611,920,1546,950,-1040,-568,-310,-41,211,-187
29044,9996,0,2023-03-01T18:57:42.074096,2051616,920,1546,950,-1040,-568,-310,-41,211,-187
29045,9997,0,2023-03-01T18:57:42.079429,2051621,920,1546,950,-1040,-568,-310,-41,211,-187
29046,9998,0,2023-03-01T18:57:42.084443,2051627,920,1546,950,-1040,-568,-310,-41,211,-187
29047,9999,0,2023-03-01T18:57:42.089481,2051632,920,1546,950,-1040,-568,-310,-41,211,-187
29048,0,0,2023-03-01T18:57:42.102615,2051644,920,1546,950,-1040,-568,-310,-41,211,-187
29049,1,0,2023-03-01T18:57:42.108179,2051650,922,1549,952,-1035,-581,-318,-41,211,-187
29050,2,0,2023-03-01T18:57:42.112754,2051655,922,1549,952,-1035,-581,-318,-41,211,-187
29051,3,0,2023-03-01T18:57:42.118439,2051660,922,1549,952,-1035,-581,-318,-41,211,-187
29052,4,0,2023-03-01T18:57:42.123064,2051665,918,1546,950,-1035,-586,-317,-41,211,-187
29053,5,0,2023-03-01T18:57:42.128340,2051671,918,1546,950,-1035,-586,-317,-41,211,-187
29054,6,0,2023-03-01T18:57:42.133255,2051675,918,1546,950,-1035,-586,-317,-41,211,-187
29055,7,0,2023-03-01T18:57:42.138885,2051681,918,1546,950,-1035,-586,-317,-41,211,-187
29056,8,0,2023-03-01T18:57:42.145066,2051687,918,1549,942,-1033,-574,-325,-41,211,-187
29057,9,0,2023-03-01T18:57:42.150997,2051693,918,1549,942,-1033,-574,-325,-41,211,-187
29058,10,0,2023-03-01T18:57:42.156606,2051698,918,1549,942,-1033,-574,-325,-41,211,-187
29059,11,0,2023-03-01T18:57:42.162278,2051704,918,1549,942,-1033,-574,-325,-41,211,-187
29060,12,0,2023-03-01T18:57:42.166880,2051708,918,1547,941,-1043,-576,-322,-41,211,-187
29061,13,0,2023-03-01T18:57:42.172424,2051715,918,1547,941,-1043,-576,-322,-41,211,-187
29062,14,0,2023-03-01T18:57:42.178486,2051720,918,1547,941,-1043,-576,-322,-41,211,-187
29063,15,0,2023-03-01T18:57:42.183507,2051725,919,1549,941,-1038,-576,-309,-41,211,-187
29064,16,0,2023-03-01T18:57:42.189214,2051731,919,1549,941,-1038,-576,-309,-41,211,-187
29065,17,0,2023-03-01T18:57:42.193912,2051736,919,1549,941,-1038,-576,-309,-41,211,-187
29066,18,0,2023-03-01T18:57:42.198628,2051740,919,1549,941,-1038,-576,-309,-41,211,-187
29067,19,0,2023-03-01T18:57:42.203374,2051745,916,1547,948,-1042,-577,-317,-34,212,-184
29068,20,0,2023-03-01T18:57:42.208943,2051750,916,1547,948,-1042,-577,-317,-34,212,-184
29069,21,0,2023-03-01T18:57:42.214350,2051756,916,1547,948,-1042,-577,-317,-34,212,-184
29070,22,0,2023-03-01T18:57:42.219604,2051762,916,1547,948,-1042,-577,-317,-34,212,-184
29071,23,0,2023-03-01T18:57:42.224415,2051766,917,1548,943,-1036,-571,-323,-34,212,-184
29072,24,0,2023-03-01T18:57:42.229582,2051772,917,1548,943,-1036,-571,-323,-34,212,-184
29073,25,0,2023-03-01T18:57:42.234783,2051776,917,1548,943,-1036,-571,-323,-34,212,-184
29074,26,0,2023-03-01T18:57:42.240388,2051782,917,1548,943,-1036,-571,-323,-34,212,-184
29075,27,0,2023-03-01T18:57:42.245875,2051787,922,1547,945,-1034,-570,-316,-34,212,-184
29076,28,0,2023-03-01T18:57:42.251720,2051793,922,1547,945,-1034,-570,-316,-34,212,-184
29077,29,0,2023-03-01T18:57:42.257599,2051800,922,1547,945,-1034,-570,-316,-34,212,-184
29078,30,0,2023-03-01T18:57:42.263509,2051805,920,1549,942,-1036,-572,-314,-34,212,-184
29079,31,0,2023-03-01T18:57:42.269260,2051811,920,1549,942,-1036,-572,-314,-34,212,-184
29080,32,0,2023-03-01T18:57:42.274138,2051816,920,1549,942,-1036,-572,-314,-34,212,-184
29081,33,0,2023-03-01T18:57:42.279501,2051821,920,1549,942,-1036,-572,-314,-34,212,-184
29082,34,0,2023-03-01T18:57:42.284456,2051826,919,1545,948,-1044,-571,-318,-34,212,-184
29083,35,0,2023-03-01T18:57:42.290662,2051832,919,1545,948,-1044,-571,-318,-34,212,-184
29084,36,0,2023-03-01T18:57:42.295781,2051837,919,1545,948,-1044,-571,-318,-34,212,-184
29085,37,0,2023-03-01T18:57:42.302647,2051845,919,1545,948,-1044,-571,-318,-34,212,-184
29086,38,0,2023-03-01T18:57:42.307950,2051850,922,1550,943,-1033,-569,-322,-34,212,-184
29087,39,0,2023-03-01T18:57:42.313833,2051855,922,1550,943,-1033,-569,-322,-34,212,-184
29088,40,0,2023-03-01T18:57:42.319720,2051861,922,1550,943,-1033,-569,-322,-34,212,-184
29089,41,0,2023-03-01T18:57:42.324918,2051866,921,1548,940,-1038,-572,-325,-38,204,-178
29090,42,0,2023-03-01T18:57:42.330334,2051872,921,1548,940,-1038,-572,-325,-38,204,-178
29091,43,0,2023-03-01T18:57:42.335234,2051876,921,1548,940,-1038,-572,-325,-38,204,-178
29092,44,0,2023-03-01T18:57:42.340627,2051883,921,1548,940,-1038,-572,-325,-38,204,-178
29093,45,0,2023-03-01T18:57:42.345691,2051888,918,1551,941,-1041,-573,-324,-38,204,-178
29094,46,0,2023-03-01T18:57:42.351408,2051893,918,1551,941,-1041,-573,-324,-38,204,-178
29095,47,0,2023-03-01T18:57:42.357187,2051899,918,1551,941,-1041,-573,-324,-38,204,-178
29096,48,0,2023-03-01T18:57:42.361841,2051904,918,1551,941,-1041,-573,-324,-38,204,-178
29097,49,0,2023-03-01T18:57:42.367007,2051909,919,1547,950,-1036,-566,-323,-38,204,-178
29098,50,0,2023-03-01T18:57:42.372700,2051914,919,1547,950,-1036,-566,-323,-38,204,-178
29099,51,0,2023-03-01T18:57:42.378472,2051920,919,1547,950,-1036,-566,-323,-38,204,-178
29100,52,0,2023-03-01T18:57:42.383420,2051926,918,1547,946,-1039,-568,-324,-38,204,-178
29101,53,0,2023-03-01T18:57:42.388902,2051931,918,1547,946,-1039,-568,-324,-38,204,-178
29102,54,0,2023-03-01T18:57:42.393750,2051936,918,1547,946,-1039,-568,-324,-38,204,-178
29103,55,0,2023-03-01T18:57:42.398938,2051941,918,1547,946,-1039,-568,-324,-38,204,-178
29104,56,0,2023-03-01T18:57:42.404365,2051946,918,1548,946,-1037,-568,-322,-38,204,-178
29105,57,0,2023-03-01T18:57:42.411535,2051953,918,1548,946,-1037,-568,-322,-38,204,-178
29106,58,0,2023-03-01T18:57:42.417373,2051959,918,1548,946,-1037,-568,-322,-38,204,-178
29107,59,0,2023-03-01T18:57:42.422824,2051964,916,1549,947,-1041,-567,-314,-38,204,-178
29108,60,0,2023-03-01T18:57:42.428387,2051970,916,1549,947,-1041,-567,-314,-38,204,-178
29109,61,0,2023-03-01T18:57:42.433036,2051975,916,1549,947,-1041,-567,-314,-38,204,-178
29110,62,0,2023-03-01T18:57:42.438464,2051980,916,1549,947,-1041,-567,-314,-38,204,-178
29111,63,0,2023-03-01T18:57:42.444168,2051986,919,1549,938,-1041,-575,-313,-38,204,-178
29112,64,0,2023-03-01T18:57:42.449932,2051992,919,1549,938,-1041,-575,-313,-38,204,-178
29113,65,0,2023-03-01T18:57:42.454877,2051997,919,1549,938,-1041,-575,-313,-38,204,-178
29114,66,0,2023-03-01T18:57:42.460340,2052002,919,1549,938,-1041,-575,-313,-38,204,-178
29115,67,0,2023-03-01T18:57:42.464909,2052006,915,1550,950,-1033,-579,-321,-39,205,-181
29116,68,0,2023-03-01T18:57:42.470590,2052013,915,1550,950,-1033,-579,-321,-39,205,-181
29117,69,0,2023-03-01T18:57:42.475592,2052018,915,1550,950,-1033,-579,-321,-39,205,-181
29118,70,0,2023-03-01T18:57:42.481097,2052023,915,1550,950,-1033,-579,-321,-39,205,-181
29119,71,0,2023-03-01T18:57:42.486150,2052028,920,1549,949,-1033,-577,-316,-39,205,-181
29120,72,0,2023-03-01T18:57:42.491957,2052034,920,1549,949,-1033,-577,-316,-39,205,-181
29121,73,0,2023-03-01T18:57:42.497382,2052039,920,1549,949,-1033,-577,-316,-39,205,-181
29122,74,0,2023-03-01T18:57:42.502259,2052044,920,1549,949,-1033,-577,-316,-39,205,-181
29123,75,0,2023-03-01T18:57:42.506814,2052048,914,1548,943,-1032,-572,-324,-39,205,-181
29124,76,0,2023-03-01T18:57:42.512321,2052055,914,1548,943,-1032,-572,-324,-39,205,-181
29125,77,0,2023-03-01T18:57:42.517777,2052060,914,1548,943,-1032,-572,-324,-39,205,-181
29126,78,0,2023-03-01T18:57:42.523700,2052066,918,1548,947,-1037,-573,-316,-39,205,-181
29127,79,0,2023-03-01T18:57:42.529335,2052071,918,1548,947,-1037,-573,-316,-39,205,-181
29128,80,0,2023-03-01T18:57:42.534021,2052076,918,1548,947,-1037,-573,-316,-39,205,-181
29129,81,0,2023-03-01T18:57:42.539350,2052081,918,1548,947,-1037,-573,-316,-39,205,-181
29130,82,0,2023-03-01T18:57:42.544410,2052086,914,1551,947,-1040,-577,-323,-39,205,-181
29131,83,0,2023-03-01T18:57:42.549640,2052091,914,1551,947,-1040,-577,-323,-39,205,-181
29132,84,0,2023-03-01T18:57:42.554375,2052097,914,1551,947,-1040,-577,-323,-39,205,-181
29133,85,0,2023-03-01T18:57:42.559634,2052102,914,1551,947,-1040,-577,-323,-39,205,-181
29134,86,0,2023-03-01T18:57:42.564712,2052107,918,1549,945,-1041,-573,-326,-39,205,-181
29135,87,0,2023-03-01T18:57:42.570195,2052112,918,1549,945,-1041,-573,-326,-39,205,-181
29136,88,0,2023-03-01T18:57:42.574807,2052117,918,1549,945,-1041,-573,-326,-39,205,-181
29137,89,0,2023-03-01T18:57:42.580730,2052122,918,1549,945,-1041,-573,-326,-39,205,-181
29138,90,0,2023-03-01T18:57:42.586966,2052129,916,1550,949,-1038,-579,-324,-40,208,-176
29139,91,0,2023-03-01T18:57:42.592541,2052134,916,1550,949,-1038,-579,-324,-40,208,-176
29140,92,0,2023-03-01T18:57:42.597859,2052140,916,1550,949,-1038,-579,-324,-40,208,-176
29141,93,0,2023-03-01T18:57:42.602792,2052145,916,1550,949,-1038,-579,-324,-40,208,-176
29142,94,0,2023-03-01T18:57:42.607901,2052150,915,1550,949,-1034,-579,-319,-40,208,-176
29143,95,0,2023-03-01T18:57:42.613660,2052156,915,1550,949,-1034,-579,-319,-40,208,-176
29144,96,0,2023-03-01T18:57:42.619602,2052161,915,1550,949,-1034,-579,-319,-40,208,-176
29145,97,0,2023-03-01T18:57:42.624315,2052166,921,1548,948,-1041,-568,-313,-40,208,-176
29146,98,0,2023-03-01T18:57:42.629540,2052171,921,1548,948,-1041,-568,-313,-40,208,-176
29147,99,0,2023-03-01T18:57:42.634693,2052176,921,1548,948,-1041,-568,-313,-40,208,-176
29148,100,0,2023-03-01T18:57:42.640488,2052183,921,1548,948,-1041,-568,-313,-40,208,-176
29149,101,0,2023-03-01T18:57:42.645840,2052188,918,1552,948,-1036,-572,-320,-40,208,-176
29150,102,0,2023-03-01T18:57:42.651190,2052193,918,1552,948,-1036,-572,-320,-40,208,-176
29151,103,0,2023-03-01T18:57:42.656745,2052199,918,1552,948,-1036,-572,-320,-40,208,-176
29152,104,0,2023-03-01T18:57:42.662164,2052204,918,1552,948,-1036,-572,-320,-40,208,-176
29153,105,0,2023-03-01T18:57:42.666878,2052209,918,1548,948,-1042,-567,-322,-40,208,-176
29154,106,0,2023-03-01T18:57:42.672578,2052214,918,1548,948,-1042,-567,-322,-40,208,-176
29155,107,0,2023-03-01T18:57:42.678392,2052220,918,1548,948,-1042,-567,-322,-40,208,-176
29156,108,0,2023-03-01T18:57:42.684750,2052226,915,1550,947,-1038,-576,-323,-40,208,-176
29157,109,0,2023-03-01T18:57:42.690707,2052233,915,1550,947,-1038,-576,-323,-40,208,-176
29158,110,0,2023-03-01T18:57:42.695567,2052238,915,1550,947,-1038,-576,-323,-40,208,-176
29159,111,0,2023-03-01T18:57:42.701127,2052243,915,1550,947,-1038,-576,-323,-40,208,-176
29160,112,0,2023-03-01T18:57:42.706118,2052248,917,1549,945,-1043,-569,-319,-31,205,-183
29161,113,0,2023-03-01T18:57:42.711030,2052253,917,1549,945,-1043,-569,-319,-31,205,-183
29162,114,0,2023-03-01T18:57:42.716822,2052258,917,1549,945,-1043,-569,-319,-31,205,-183
29163,115,0,2023-03-01T18:57:42.722604,2052264,917,1549,945,-1043,-569,-319,-31,205,-183
29164,116,0,2023-03-01T18:57:42.727439,2052270,917,1550,951,-1032,-564,-317,-31,205,-183
29165,117,0,2023-03-01T18:57:42.732669,2052275,917,1550,951,-1032,-564,-317,-31,205,-183
29166,118,0,2023-03-01T18:57:42.737970,2052280,917,1550,951,-1032,-564,-317,-31,205,-183
29167,119,0,2023-03-01T18:57:42.743499,2052285,918,1549,949,-1040,-571,-321,-31,205,-183
29168,120,0,2023-03-01T18:57:42.749414,2052291,918,1549,949,-1040,-571,-321,-31,205,-183
29169,121,0,2023-03-01T18:57:42.754392,2052296,918,1549,949,-1040,-571,-321,-31,205,-183
29170,122,0,2023-03-01T18:57:42.759015,2052301,918,1549,949,-1040,-571,-321,-31,205,-183
29171,123,0,2023-03-01T18:57:42.764085,2052305,921,1548,949,-1040,-576,-310,-31,205,-183
29172,124,0,2023-03-01T18:57:42.770560,2052313,921,1548,949,-1040,-576,-310,-31,205,-183
29173,125,0,2023-03-01T18:57:42.775314,2052318,921,1548,949,-1040,-576,-310,-31,205,-183
29174,126,0,2023-03-01T18:57:42.780721,2052323,921,1548,949,-1040,-576,-310,-31,205,-183
29175,127,0,2023-03-01T18:57:42.785915,2052328,919,1552,947,-1043,-573,-317,-31,205,-183
29176,128,0,2023-03-01T18:57:42.791326,2052333,919,1552,947,-1043,-573,-317,-31,205,-183
29177,129,0,2023-03-01T18:57:42.797026,2052338,919,1552,947,-1043,-573,-317,-31,205,-183
29178,130,0,2023-03-01T18:57:42.804507,2052346,915,1546,944,-1035,-572,-317,-31,205,-183
29179,131,0,2023-03-01T18:57:42.810921,2052353,915,1546,944,-1035,-572,-317,-31,205,-183
29180,132,0,2023-03-01T18:57:42.816501,2052359,915,1546,944,-1035,-572,-317,-31,205,-183
29181,133,0,2023-03-01T18:57:42.821524,2052364,915,1546,944,-1035,-572,-317,-31,205,-183
29182,134,0,2023-03-01T18:57:42.826442,2052368,918,1547,940,-1042,-569,-321,-31,205,-183
29183,135,0,2023-03-01T18:57:42.831963,2052374,918,1547,940,-1042,-569,-321,-31,205,-183
29184,136,0,2023-03-01T18:57:42.838231,2052379,918,1547,940,-1042,-569,-321,-31,205,-183
29185,137,0,2023-03-01T18:57:42.843822,2052386,917,1545,950,-1037,-571,-321,-41,197,-183
29186,138,0,2023-03-01T18:57:42.849277,2052391,917,1545,950,-1037,-571,-321,-41,197,-183
29187,139,0,2023-03-01T18:57:42.854137,2052396,917,1545,950,-1037,-571,-321,-41,197,-183
29188,140,0,2023-03-01T18:57:42.859988,2052402,917,1545,950,-1037,-571,-321,-41,197,-183
29189,141,0,2023-03-01T18:57:42.864991,2052407,919,1550,946,-1042,-571,-317,-41,197,-183
29190,142,0,2023-03-01T18:57:42.870451,2052412,919,1550,946,-1042,-571,-317,-41,197,-183
29191,143,0,2023-03-01T18:57:42.875583,2052417,919,1550,946,-1042,-571,-317,-41,197,-183
29192,144,0,2023-03-01T18:57:42.880688,2052422,919,1550,946,-1042,-571,-317,-41,197,-183
29193,145,0,2023-03-01T18:57:42.886020,2052427,917,1547,949,-1049,-572,-326,-41,197,-183
29194,146,0,2023-03-01T18:57:42.892103,2052433,917,1547,949,-1049,-572,-326,-41,197,-183
29195,147,0,2023-03-01T18:57:42.898175,2052440,917,1547,949,-1049,-572,-326,-41,197,-183
29196,148,0,2023-03-01T18:57:42.903399,2052445,917,1547,949,-1049,-572,-326,-41,197,-183
29197,149,0,2023-03-01T18:57:42.909148,2052450,917,1549,949,-1041,-569,-333,-41,197,-183
29198,150,0,2023-03-01T18:57:42.916286,2052458,917,1549,949,-1041,-569,-333,-41,197,-183
29199,151,0,2023-03-01T18:57:42.922684,2052465,917,1549,949,-1041,-569,-333,-41,197,-183
29200,152,0,2023-03-01T18:57:42.928032,2052470,919,1548,948,-1037,-574,-332,-41,197,-183
29201,153,0,2023-03-01T18:57:42.933788,2052475,919,1548,948,-1037,-574,-332,-41,197,-183
29202,154,0,2023-03-01T18:57:42.939768,2052482,919,1548,948,-1037,-574,-332,-41,197,-183
29203,155,0,2023-03-01T18:57:42.944786,2052487,919,1548,945,-1039,-567,-314,-41,197,-183
29204,156,0,2023-03-01T18:57:42.950109,2052492,919,1548,945,-1039,-567,-314,-41,197,-183
29205,157,0,2023-03-01T18:57:42.954796,2052497,919,1548,945,-1039,-567,-314,-41,197,-183
29206,158,0,2023-03-01T18:57:42.960860,2052503,919,1548,945,-1039,-567,-314,-41,197,-183
29207,159,0,2023-03-01T18:57:42.965577,2052507,919,1550,941,-1032,-569,-319,-35,211,-187
29208,160,0,2023-03-01T18:57:42.970983,2052513,919,1550,941,-1032,-569,-319,-35,211,-187
29209,161,0,2023-03-01T18:57:42.975990,2052518,919,1550,941,-1032,-569,-319,-35,211,-187
29210,162,0,2023-03-01T18:57:42.980859,2052523,919,1550,941,-1032,-569,-319,-35,211,-187
29211,163,0,2023-03-01T18:57:42.987423,2052528,919,1548,943,-1037,-566,-324,-35,211,-187
29212,164,0,2023-03-01T18:57:42.992399,2052534,919,1548,943,-1037,-566,-324,-35,211,-187
29213,165,0,2023-03-01T18:57:42.997934,2052540,919,1548,943,-1037,-566,-324,-35,211,-187
29214,166,0,2023-03-01T18:57:43.002808,2052545,919,1548,943,-1037,-566,-324,-35,211,-187
29215,167,0,2023-03-01T18:57:43.008537,2052550,919,1546,949,-1033,-572,-320,-35,211,-187
29216,168,0,2023-03-01T18:57:43.014051,2052556,919,1546,949,-1033,-572,-320,-35,211,-187
29217,169,0,2023-03-01T18:57:43.021110,2052561,919,1546,949,-1033,-572,-320,-35,211,-187
29218,170,0,2023-03-01T18:57:43.027363,2052569,917,1546,948,-1042,-581,-317,-35,211,-187
29219,171,0,2023-03-01T18:57:43.032998,2052575,917,1546,948,-1042,-581,-317,-35,211,-187
29220,172,0,2023-03-01T18:57:43.038675,2052581,917,1546,948,-1042,-581,-317,-35,211,-187
29221,173,0,2023-03-01T18:57:43.043610,2052586,918,1551,948,-1037,-575,-328,-35,211,-187
29222,174,0,2023-03-01T18:57:43.049339,2052591,918,1551,948,-1037,-575,-328,-35,211,-187
29223,175,0,2023-03-01T18:57:43.055128,2052596,918,1551,948,-1037,-575,-328,-35,211,-187
29224,176,0,2023-03-01T18:57:43.060601,2052602,918,1551,948,-1037,-575,-328,-35,211,-187
29225,177,0,2023-03-01T18:57:43.065443,2052608,917,1548,946,-1041,-575,-322,-35,211,-187
29226,178,0,2023-03-01T18:57:43.070907,2052613,917,1548,946,-1041,-575,-322,-35,211,-187
29227,179,0,2023-03-01T18:57:43.075732,2052618,917,1548,946,-1041,-575,-322,-35,211,-187
29228,180,0,2023-03-01T18:57:43.081750,2052623,917,1548,946,-1041,-575,-322,-35,211,-187
29229,181,0,2023-03-01T18:57:43.087169,2052629,919,1549,942,-1041,-574,-320,-35,211,-187
29230,182,0,2023-03-01T18:57:43.092883,2052635,919,1549,942,-1041,-574,-320,-35,211,-187
29231,183,0,2023-03-01T18:57:43.098427,2052640,919,1549,942,-1041,-574,-320,-35,211,-187
29232,184,0,2023-03-01T18:57:43.103881,2052645,916,1548,949,-1048,-569,-314,-35,211,-187
29233,185,0,2023-03-01T18:57:43.109435,2052652,916,1548,949,-1048,-569,-314,-37,205,-179
29234,186,0,2023-03-01T18:57:43.114612,2052657,916,1548,949,-1048,-569,-314,-37,205,-179
29235,187,0,2023-03-01T18:57:43.120397,2052663,916,1548,949,-1048,-569,-314,-37,205,-179
29236,188,0,2023-03-01T18:57:43.126106,2052668,917,1549,945,-1037,-570,-325,-37,205,-179
29237,189,0,2023-03-01T18:57:43.133049,2052675,917,1549,945,-1037,-570,-325,-37,205,-179
29238,190,0,2023-03-01T18:57:43.138898,2052680,917,1549,945,-1037,-570,-325,-37,205,-179
29239,191,0,2023-03-01T18:57:43.144304,2052686,918,1549,952,-1035,-581,-318,-37,205,-179
29240,192,0,2023-03-01T18:57:43.149537,2052691,918,1549,952,-1035,-581,-318,-37,205,-179
29241,193,0,2023-03-01T18:57:43.154354,2052697,918,1549,952,-1035,-581,-318,-37,205,-179
29242,194,0,2023-03-01T18:57:43.159584,2052702,918,1549,952,-1035,-581,-318,-37,205,-179
29243,195,0,2023-03-01T18:57:43.164390,2052706,917,1549,945,-1031,-580,-321,-37,205,-179
29244,196,0,2023-03-01T18:57:43.170439,2052712,917,1549,945,-1031,-580,-321,-37,205,-179
29245,197,0,2023-03-01T18:57:43.175411,2052717,917,1549,945,-1031,-580,-321,-37,205,-179
29246,198,0,2023-03-01T18:57:43.180865,2052723,917,1549,945,-1031,-580,-321,-37,205,-179
29247,199,0,2023-03-01T18:57:43.185569,2052727,920,1546,944,-1033,-570,-326,-37,205,-179
29248,200,0,2023-03-01T18:57:43.191172,2052732,920,1546,944,-1033,-570,-326,-37,205,-179
29249,201,0,2023-03-01T18:57:43.196865,2052739,920,1546,944,-1033,-570,-326,-37,205,-179
29250,202,0,2023-03-01T18:57:43.201796,2052744,920,1546,944,-1033,-570,-326,-37,205,-179
29251,203,0,2023-03-01T18:57:43.206878,2052749,920,1553,952,-1034,-576,-321,-37,205,-179
29252,204,0,2023-03-01T18:57:43.212436,2052754,920,1553,952,-1034,-576,-321,-37,205,-179
29253,205,0,2023-03-01T18:57:43.218673,2052760,920,1553,952,-1034,-576,-321,-37,205,-179
29254,206,0,2023-03-01T18:57:43.223863,2052765,920,1553,952,-1034,-576,-321,-37,205,-179
29255,207,0,2023-03-01T18:57:43.228567,2052770,913,1551,954,-1030,-577,-317,-31,207,-191
29256,208,0,2023-03-01T18:57:43.233947,2052776,913,1551,954,-1030,-577,-317,-31,207,-191
29257,209,0,2023-03-01T18:57:43.239589,2052782,913,1551,954,-1030,-577,-317,-31,207,-191
29258,210,0,2023-03-01T18:57:43.246012,2052788,915,1547,945,-1025,-575,-334,-31,207,-191
29259,211,0,2023-03-01T18:57:43.251614,2052794,915,1547,945,-1025,-575,-334,-31,207,-191
29260,212,0,2023-03-01T18:57:43.257168,2052799,915,1547,945,-1025,-575,-334,-31,207,-191
29261,213,0,2023-03-01T18:57:43.262637,2052805,915,1547,945,-1025,-575,-334,-31,207,-191
29262,214,0,2023-03-01T18:57:43.267495,2052809,918,1547,951,-1036,-574,-319,-31,207,-191
29263,215,0,2023-03-01T18:57:43.273335,2052815,918,1547,951,-1036,-574,-319,-31,207,-191
29264,216,0,2023-03-01T18:57:43.279558,2052822,918,1547,951,-1036,-574,-319,-31,207,-191
29265,217,0,2023-03-01T18:57:43.284736,2052827,921,1549,944,-1037,-570,-320,-31,207,-191
29266,218,0,2023-03-01T18:57:43.290107,2052832,921,1549,944,-1037,-570,-320,-31,207,-191
29267,219,0,2023-03-01T18:57:43.294967,2052837,921,1549,944,-1037,-570,-320,-31,207,-191
29268,220,0,2023-03-01T18:57:43.301054,2052842,921,1549,944,-1037,-570,-320,-31,207,-191
29269,221,0,2023-03-01T18:57:43.307470,2052849,921,1547,942,-1034,-563,-319,-31,207,-191
29270,222,0,2023-03-01T18:57:43.313313,2052855,921,1547,942,-1034,-563,-319,-31,207,-191
29271,223,0,2023-03-01T18:57:43.318863,2052860,921,1547,942,-1034,-563,-319,-31,207,-191
29272,224,0,2023-03-01T18:57:43.323474,2052866,921,1547,942,-1034,-563,-319,-31,207,-191
29273,225,0,2023-03-01T18:57:43.328540,2052871,919,1547,948,-1033,-566,-321,-31,207,-191
29274,226,0,2023-03-01T18:57:43.334105,2052876,919,1547,948,-1033,-566,-321,-31,207,-191
29275,227,0,2023-03-01T18:57:43.340615,2052882,919,1547,948,-1033,-566,-321,-31,207,-191
29276,228,0,2023-03-01T18:57:43.346808,2052888,912,1547,944,-1035,-566,-315,-31,207,-191
29277,229,0,2023-03-01T18:57:43.353828,2052895,912,1547,944,-1035,-566,-315,-31,207,-191
29278,230,0,2023-03-01T18:57:43.360403,2052901,912,1547,944,-1035,-566,-315,-31,207,-191
29279,231,0,2023-03-01T18:57:43.366300,2052908,917,1547,944,-1030,-573,-319,-38,206,-184
29280,232,0,2023-03-01T18:57:43.372394,2052915,917,1547,944,-1030,-573,-319,-38,206,-184
29281,233,0,2023-03-01T18:57:43.377814,2052920,917,1547,944,-1030,-573,-319,-38,206,-184
29282,234,0,2023-03-01T18:57:43.382710,2052925,917,1547,944,-1030,-573,-319,-38,206,-184
29283,235,0,2023-03-01T18:57:43.387864,2052930,920,1546,943,-1042,-574,-315,-38,206,-184
29284,236,0,2023-03-01T18:57:43.393380,2052935,920,1546,943,-1042,-574,-315,-38,206,-184
29285,237,0,2023-03-01T18:57:43.399441,2052941,920,1546,943,-1042,-574,-315,-38,206,-184
29286,238,0,2023-03-01T18:57:43.404974,2052947,918,1547,944,-1034,-572,-320,-38,206,-184
29287,239,0,2023-03-01T18:57:43.410744,2052952,918,1547,944,-1034,-572,-320,-38,206,-184
29288,240,0,2023-03-01T18:57:43.416074,2052958,918,1547,944,-1034,-572,-320,-38,206,-184
29289,241,0,2023-03-01T18:57:43.422398,2052964,918,1547,944,-1034,-572,-320,-38,206,-184
29290,242,0,2023-03-01T18:57:43.428417,2052970,918,1546,949,-1042,-569,-320,-38,206,-184
29291,243,0,2023-03-01T18:57:43.433898,2052976,918,1546,949,-1042,-569,-320,-38,206,-184
29292,244,0,2023-03-01T18:57:43.439282,2052981,918,1546,949,-1042,-569,-320,-38,206,-184
29293,245,0,2023-03-01T18:57:43.444213,2052986,916,1549,942,-1040,-576,-316,-38,206,-184
29294,246,0,2023-03-01T18:57:43.449903,2052992,916,1549,942,-1040,-576,-316,-38,206,-184
29295,247,0,2023-03-01T18:57:43.454651,2052997,916,1549,942,-1040,-576,-316,-38,206,-184
29296,248,0,2023-03-01T18:57:43.460468,2053003,916,1549,942,-1040,-576,-316,-38,206,-184
29297,249,0,2023-03-01T18:57:43.465847,2053008,918,1549,939,-1043,-575,-326,-38,206,-184
29298,250,0,2023-03-01T18:57:43.471661,2053013,918,1549,939,-1043,-575,-326,-38,206,-184
29299,251,0,2023-03-01T18:57:43.477688,2053020,918,1549,939,-1043,-575,-326,-38,206,-184
29300,252,0,2023-03-01T18:57:43.483267,2053025,918,1549,939,-1043,-575,-326,-38,206,-184
29301,253,0,2023-03-01T18:57:43.488148,2053030,918,1545,947,-1049,-573,-325,-36,216,-186
29302,254,0,2023-03-01T18:57:43.493007,2053036,918,1545,947,-1049,-573,-325,-36,216,-186
29303,255,0,2023-03-01T18:57:43.498730,2053041,918,1545,947,-1049,-573,-325,-36,216,-186
29304,256,0,2023-03-01T18:57:43.503756,2053046,918,1545,947,-1049,-573,-325,-36,216,-186
29305,257,0,2023-03-01T18:57:43.508932,2053051,919,1548,940,-1044,-574,-319,-36,216,-186
29306,258,0,2023-03-01T18:57:43.514218,2053056,919,1548,940,-1044,-574,-319,-36,216,-186
29307,259,0,2023-03-01T18:57:43.519670,2053061,919,1548,940,-1044,-574,-319,-36,216,-186
29308,260,0,2023-03-01T18:57:43.524819,2053067,919,1549,947,-1042,-573,-318,-36,216,-186
29309,261,0,2023-03-01T18:57:43.530316,2053072,919,1549,947,-1042,-573,-318,-36,216,-186
29310,262,0,2023-03-01T18:57:43.534993,2053076,919,1549,947,-1042,-573,-318,-36,216,-186
29311,263,0,2023-03-01T18:57:43.540601,2053083,919,1549,947,-1042,-573,-318,-36,216,-186
29312,264,0,2023-03-01T18:57:43.545949,2053088,919,1549,945,-1043,-576,-316,-36,216,-186
29313,265,0,2023-03-01T18:57:43.551516,2053093,919,1549,945,-1043,-576,-316,-36,216,-186
29314,266,0,2023-03-01T18:57:43.557105,2053099,919,1549,945,-1043,-576,-316,-36,216,-186
29315,267,0,2023-03-01T18:57:43.562451,2053104,919,1549,945,-1043,-576,-316,-36,216,-186
29316,268,0,2023-03-01T18:57:43.567468,2053109,919,1548,946,-1027,-577,-313,-36,216,-186
29317,269,0,2023-03-01T18:57:43.573521,2053115,919,1548,946,-1027,-577,-313,-36,216,-186
29318,270,0,2023-03-01T18:57:43.579132,2053121,919,1548,946,-1027,-577,-313,-36,216,-186
29319,271,0,2023-03-01T18:57:43.584851,2053127,919,1547,947,-1032,-569,-325,-36,216,-186
29320,272,0,2023-03-01T18:57:43.590590,2053133,919,1547,947,-1032,-569,-325,-36,216,-186
29321,273,0,2023-03-01T18:57:43.595668,2053138,919,1547,947,-1032,-569,-325,-36,216,-186
29322,274,0,2023-03-01T18:57:43.602242,2053144,919,1547,947,-1032,-569,-325,-36,216,-186
29323,275,0,2023-03-01T18:57:43.606948,2053149,919,1547,945,-1040,-577,-320,-35,209,-185
29324,276,0,2023-03-01T18:57:43.612533,2053154,919,1547,945,-1040,-577,-320,-35,209,-185
29325,277,0,2023-03-01T18:57:43.617997,2053159,919,1547,945,-1040,-577,-320,-35,209,-185
29326,278,0,2023-03-01T18:57:43.623106,2053165,919,1547,945,-1040,-577,-320,-35,209,-185
29327,279,0,2023-03-01T18:57:43.628168,2053170,919,1546,946,-1039,-579,-317,-35,209,-185
29328,280,0,2023-03-01T18:57:43.633684,2053176,919,1546,946,-1039,-579,-317,-35,209,-185
29329,281,0,2023-03-01T18:57:43.638871,2053181,919,1546,946,-1039,-579,-317,-35,209,-185
29330,282,0,2023-03-01T18:57:43.643832,2053186,919,1546,946,-1039,-579,-317,-35,209,-185
29331,283,0,2023-03-01T18:57:43.648852,2053191,920,1549,947,-1035,-576,-321,-35,209,-185
29332,284,0,2023-03-01T18:57:43.654353,2053196,920,1549,947,-1035,-576,-321,-35,209,-185
29333,285,0,2023-03-01T18:57:43.660054,2053202,920,1549,947,-1035,-576,-321,-35,209,-185
29334,286,0,2023-03-01T18:57:43.665239,2053207,920,1549,947,-1035,-576,-321,-35,209,-185
29335,287,0,2023-03-01T18:57:43.670420,2053212,920,1549,947,-1035,-576,-321,-35,209,-185
29336,288,0,2023-03-01T18:57:43.676313,2053218,920,1549,947,-1035,-576,-321,-35,209,-185
29337,289,0,2023-03-01T18:57:43.683134,2053225,920,1549,947,-1035,-576,-321,-35,209,-185
29338,290,0,2023-03-01T18:57:43.688905,2053231,919,1546,943,-1036,-571,-320,-35,209,-185
29339,291,0,2023-03-01T18:57:43.694655,2053236,919,1546,943,-1036,-571,-320,-35,209,-185
29340,292,0,2023-03-01T18:57:43.700321,2053242,919,1546,943,-1036,-571,-320,-35,209,-185
29341,293,0,2023-03-01T18:57:43.705156,2053246,919,1545,938,-1035,-572,-327,-35,209,-185
29342,294,0,2023-03-01T18:57:43.710561,2053253,919,1545,938,-1035,-572,-327,-35,209,-185
29343,295,0,2023-03-01T18:57:43.715574,2053258,919,1545,938,-1035,-572,-327,-35,209,-185
29344,296,0,2023-03-01T18:57:43.721076,2053263,919,1545,938,-1035,-572,-327,-35,209,-185
29345,297,0,2023-03-01T18:57:43.725940,2053268,920,1547,946,-1031,-571,-325,-35,209,-185
29346,298,0,2023-03-01T18:57:43.731928,2053273,920,1547,946,-1031,-571,-325,-35,209,-185
29347,299,0,2023-03-01T18:57:43.737772,2053279,920,1547,946,-1031,-571,-325,-35,209,-185
29348,300,0,2023-03-01T18:57:43.743158,2053285,920,1547,946,-1031,-571,-325,-35,209,-185
29349,301,0,2023-03-01T18:57:43.747842,2053291,917,1549,942,-1030,-568,-321,-33,211,-183
29350,302,0,2023-03-01T18:57:43.753535,2053296,917,1549,942,-1030,-568,-321,-33,211,-183
29351,303,0,2023-03-01T18:57:43.759637,2053301,917,1549,942,-1030,-568,-321,-33,211,-183
29352,304,0,2023-03-01T18:57:43.764581,2053307,919,1548,948,-1040,-571,-321,-33,211,-183
29353,305,0,2023-03-01T18:57:43.770360,2053312,919,1548,948,-1040,-571,-321,-33,211,-183
29354,306,0,2023-03-01T18:57:43.775523,2053317,919,1548,948,-1040,-571,-321,-33,211,-183
29355,307,0,2023-03-01T18:57:43.780754,2053323,919,1548,948,-1040,-571,-321,-33,211,-183
29356,308,0,2023-03-01T18:57:43.786779,2053328,919,1548,941,-1049,-570,-328,-33,211,-183
29357,309,0,2023-03-01T18:57:43.792874,2053335,919,1548,941,-1049,-570,-328,-33,211,-183
29358,310,0,2023-03-01T18:57:43.798569,2053341,919,1548,941,-1049,-570,-328,-33,211,-183
29359,311,0,2023-03-01T18:57:43.804332,2053346,919,1548,941,-1049,-570,-328,-33,211,-183
29360,312,0,2023-03-01T18:57:43.808977,2053351,917,1549,947,-1039,-577,-315,-33,211,-183
29361,313,0,2023-03-01T18:57:43.815098,2053356,917,1549,947,-1039,-577,-315,-33,211,-183
29362,314,0,2023-03-01T18:57:43.821019,2053362,917,1549,947,-1039,-577,-315,-33,211,-183
29363,315,0,2023-03-01T18:57:43.826616,2053368,918,1551,944,-1042,-581,-317,-33,211,-183
29364,316,0,2023-03-01T18:57:43.831859,2053373,918,1551,944,-1042,-581,-317,-33,211,-183
29365,317,0,2023-03-01T18:57:43.836651,2053379,918,1551,944,-1042,-581,-317,-33,211,-183
29366,318,0,2023-03-01T18:57:43.842542,2053385,918,1551,944,-1042,-581,-317,-33,211,-183
29367,319,0,2023-03-01T18:57:43.847838,2053390,922,1548,949,-1037,-572,-322,-33,211,-183
29368,320,0,2023-03-01T18:57:43.853396,2053396,922,1548,949,-1037,-572,-322,-33,211,-183
29369,321,0,2023-03-01T18:57:43.859131,2053401,922,1548,949,-1037,-572,-322,-33,211,-183
29370,322,0,2023-03-01T18:57:43.864896,2053406,919,1550,943,-1042,-576,-320,-33,211,-183
29371,323,0,2023-03-01T18:57:43.870917,2053413,919,1550,943,-1042,-576,-320,-39,201,-183
29372,324,0,2023-03-01T18:57:43.875897,2053417,919,1550,943,-1042,-576,-320,-39,201,-183
29373,325,0,2023-03-01T18:57:43.881128,2053424,919,1550,943,-1042,-576,-320,-39,201,-183
29374,326,0,2023-03-01T18:57:43.886482,2053429,919,1548,948,-1035,-572,-320,-39,201,-183
29375,327,0,2023-03-01T18:57:43.891965,2053434,919,1548,948,-1035,-572,-320,-39,201,-183
29376,328,0,2023-03-01T18:57:43.899923,2053441,919,1548,948,-1035,-572,-320,-39,201,-183
29377,329,0,2023-03-01T18:57:43.905919,2053448,916,1548,943,-1037,-571,-317,-39,201,-183
29378,330,0,2023-03-01T18:57:43.911452,2053453,916,1548,943,-1037,-571,-317,-39,201,-183
29379,331,0,2023-03-01T18:57:43.917073,2053458,916,1548,943,-1037,-571,-317,-39,201,-183
29380,332,0,2023-03-01T18:57:43.922228,2053464,916,1548,943,-1037,-571,-317,-39,201,-183
29381,333,0,2023-03-01T18:57:43.927478,2053469,920,1547,943,-1041,-572,-317,-39,201,-183
29382,334,0,2023-03-01T18:57:43.932994,2053475,920,1547,943,-1041,-572,-317,-39,201,-183
29383,335,0,2023-03-01T18:57:43.938155,2053480,920,1547,943,-1041,-572,-317,-39,201,-183
29384,336,0,2023-03-01T18:57:43.944124,2053486,920,1547,943,-1041,-572,-317,-39,201,-183
29385,337,0,2023-03-01T18:57:43.949007,2053491,919,1548,946,-1034,-575,-318,-39,201,-183
29386,338,0,2023-03-01T18:57:43.954426,2053496,919,1548,946,-1034,-575,-318,-39,201,-183
29387,339,0,2023-03-01T18:57:43.959869,2053501,919,1548,946,-1034,-575,-318,-39,201,-183
29388,340,0,2023-03-01T18:57:43.964302,2053507,919,1548,946,-1034,-575,-318,-39,201,-183
29389,341,0,2023-03-01T18:57:43.969238,2053512,918,1548,947,-1040,-571,-324,-39,201,-183
29390,342,0,2023-03-01T18:57:43.974771,2053517,918,1548,947,-1040,-571,-324,-39,201,-183
29391,343,0,2023-03-01T18:57:43.981113,2053523,918,1548,947,-1040,-571,-324,-39,201,-183
29392,344,0,2023-03-01T18:57:43.985973,2053528,917,1550,945,-1038,-570,-319,-39,201,-183
29393,345,0,2023-03-01T18:57:43.990445,2053532,917,1550,945,-1038,-570,-319,-39,201,-183
29394,346,0,2023-03-01T18:57:43.995516,2053537,917,1550,945,-1038,-570,-319,-39,201,-183
29395,347,0,2023-03-01T18:57:44.000753,2053542,917,1550,945,-1038,-570,-319,-39,201,-183
29396,348,0,2023-03-01T18:57:44.006547,2053549,917,1550,945,-1038,-570,-319,-40,208,-184
29397,349,0,2023-03-01T18:57:44.011635,2053554,917,1550,945,-1038,-570,-319,-40,208,-184
29398,350,0,2023-03-01T18:57:44.016960,2053559,917,1550,945,-1038,-570,-319,-40,208,-184
29399,351,0,2023-03-01T18:57:44.021580,2053564,917,1550,945,-1038,-570,-319,-40,208,-184
29400,352,0,2023-03-01T18:57:44.026416,2053568,917,1547,946,-1039,-569,-311,-40,208,-184
29401,353,0,2023-03-01T18:57:44.032116,2053574,917,1547,946,-1039,-569,-311,-40,208,-184
29402,354,0,2023-03-01T18:57:44.037876,2053580,917,1547,946,-1039,-569,-311,-40,208,-184
29403,355,0,2023-03-01T18:57:44.043428,2053585,917,1547,946,-1039,-569,-311,-40,208,-184
29404,356,0,2023-03-01T18:57:44.048627,2053591,918,1548,950,-1041,-568,-313,-40,208,-184
29405,357,0,2023-03-01T18:57:44.054490,2053596,918,1548,950,-1041,-568,-313,-40,208,-184
29406,358,0,2023-03-01T18:57:44.059777,2053602,918,1548,950,-1041,-568,-313,-40,208,-184
29407,359,0,2023-03-01T18:57:44.065001,2053607,918,1548,950,-1041,-568,-313,-40,208,-184
29408,360,0,2023-03-01T18:57:44.070056,2053612,918,1547,948,-1042,-575,-316,-40,208,-184
29409,361,0,2023-03-01T18:57:44.075612,2053617,918,1547,948,-1042,-575,-316,-40,208,-184
29410,362,0,2023-03-01T18:57:44.080522,2053622,918,1547,948,-1042,-575,-316,-40,208,-184
29411,363,0,2023-03-01T18:57:44.086261,2053627,916,1543,948,-1040,-573,-324,-40,208,-184
29412,364,0,2023-03-01T18:57:44.092497,2053635,916,1543,948,-1040,-573,-324,-40,208,-184
29413,365,0,2023-03-01T18:57:44.098998,2053641,916,1543,948,-1040,-573,-324,-40,208,-184
29414,366,0,2023-03-01T18:57:44.104508,2053647,916,1543,948,-1040,-573,-324,-40,208,-184
29415,367,0,2023-03-01T18:57:44.109426,2053651,919,1547,947,-1034,-572,-319,-40,208,-184
29416,368,0,2023-03-01T18:57:44.115098,2053657,919,1547,947,-1034,-572,-319,-40,208,-184
29417,369,0,2023-03-01T18:57:44.121515,2053663,919,1547,947,-1034,-572,-319,-40,208,-184
29418,370,0,2023-03-01T18:57:44.127648,2053669,919,1550,950,-1040,-576,-318,-39,211,-185
29419,371,0,2023-03-01T18:57:44.133392,2053676,919,1550,950,-1040,-576,-318,-39,211,-185
29420,372,0,2023-03-01T18:57:44.138719,2053681,919,1550,950,-1040,-576,-318,-39,211,-185
29421,373,0,2023-03-01T18:57:44.144366,2053686,919,1550,950,-1040,-576,-318,-39,211,-185
29422,374,0,2023-03-01T18:57:44.149225,2053691,917,1548,943,-1041,-573,-320,-39,211,-185
29423,375,0,2023-03-01T18:57:44.154895,2053697,917,1548,943,-1041,-573,-320,-39,211,-185
29424,376,0,2023-03-01T18:57:44.160434,2053702,917,1548,943,-1041,-573,-320,-39,211,-185
29425,377,0,2023-03-01T18:57:44.166311,2053708,920,1550,945,-1047,-569,-322,-39,211,-185
29426,378,0,2023-03-01T18:57:44.171605,2053713,920,1550,945,-1047,-569,-322,-39,211,-185
29427,379,0,2023-03-01T18:57:44.177215,2053719,920,1550,945,-1047,-569,-322,-39,211,-185
29428,380,0,2023-03-01T18:57:44.183464,2053725,920,1550,945,-1047,-569,-322,-39,211,-185
29429,381,0,2023-03-01T18:57:44.188588,2053731,917,1547,948,-1044,-574,-318,-39,211,-185
29430,382,0,2023-03-01T18:57:44.194079,2053736,917,1547,948,-1044,-574,-318,-39,211,-185
29431,383,0,2023-03-01T18:57:44.199434,2053741,917,1547,948,-1044,-574,-318,-39,211,-185
29432,384,0,2023-03-01T18:57:44.205308,2053747,920,1550,946,-1037,-575,-319,-39,211,-185
29433,385,0,2023-03-01T18:57:44.210717,2053752,920,1550,946,-1037,-575,-319,-39,211,-185
29434,386,0,2023-03-01T18:57:44.215483,2053757,920,1550,946,-1037,-575,-319,-39,211,-185
29435,387,0,2023-03-01T18:57:44.220516,2053763,920,1550,946,-1037,-575,-319,-39,211,-185
29436,388,0,2023-03-01T18:57:44.226159,2053768,919,1549,951,-1041,-576,-325,-39,211,-185
29437,389,0,2023-03-01T18:57:44.232219,2053774,919,1549,951,-1041,-576,-325,-39,211,-185
29438,390,0,2023-03-01T18:57:44.238527,2053780,919,1549,951,-1041,-576,-325,-39,211,-185
29439,391,0,2023-03-01T18:57:44.244432,2053786,919,1549,951,-1041,-576,-325,-39,211,-185
29440,392,0,2023-03-01T18:57:44.249507,2053791,918,1548,944,-1041,-577,-319,-39,211,-185
29441,393,0,2023-03-01T18:57:44.255073,2053797,918,1548,944,-1041,-577,-319,-39,211,-185
29442,394,0,2023-03-01T18:57:44.260409,2053801,918,1548,944,-1041,-577,-319,-39,211,-185
29443,395,0,2023-03-01T18:57:44.265615,2053808,917,1546,949,-1039,-580,-324,-39,211,-185
29444,396,0,2023-03-01T18:57:44.271790,2053814,917,1546,949,-1039,-580,-324,-35,215,-195
29445,397,0,2023-03-01T18:57:44.277542,2053820,917,1546,949,-1039,-580,-324,-35,215,-195
29446,398,0,2023-03-01T18:57:44.283011,2053825,917,1546,949,-1039,-580,-324,-35,215,-195
29447,399,0,2023-03-01T18:57:44.288532,2053830,916,1547,952,-1043,-573,-321,-35,215,-195
29448,400,0,2023-03-01T18:57:44.294311,2053836,916,1547,952,-1043,-573,-321,-35,215,-195
29449,401,0,2023-03-01T18:57:44.299927,2053841,916,1547,952,-1043,-573,-321,-35,215,-195
29450,402,0,2023-03-01T18:57:44.304934,2053847,916,1547,952,-1043,-573,-321,-35,215,-195
29451,403,0,2023-03-01T18:57:44.310267,2053852,919,1548,947,-1039,-573,-320,-35,215,-195
29452,404,0,2023-03-01T18:57:44.316216,2053858,919,1548,947,-1039,-573,-320,-35,215,-195
29453,405,0,2023-03-01T18:57:44.321993,2053864,919,1548,947,-1039,-573,-320,-35,215,-195
29454,406,0,2023-03-01T18:57:44.328032,2053870,917,1547,947,-1039,-569,-327,-35,215,-195
29455,407,0,2023-03-01T18:57:44.333920,2053876,917,1547,947,-1039,-569,-327,-35,215,-195
29456,408,0,2023-03-01T18:57:44.340092,2053881,917,1547,947,-1039,-569,-327,-35,215,-195
29457,409,0,2023-03-01T18:57:44.346683,2053889,917,1547,950,-1035,-574,-318,-35,215,-195
29458,410,0,2023-03-01T18:57:44.352707,2053895,917,1547,950,-1035,-574,-318,-35,215,-195
29459,411,0,2023-03-01T18:57:44.358401,2053901,917,1547,950,-1035,-574,-318,-35,215,-195
29460,412,0,2023-03-01T18:57:44.363670,2053905,917,1547,950,-1035,-574,-318,-35,215,-195
29461,413,0,2023-03-01T18:57:44.368891,2053911,918,1548,945,-1045,-572,-319,-35,215,-195
29462,414,0,2023-03-01T18:57:44.374862,2053917,918,1548,945,-1045,-572,-319,-35,215,-195
29463,415,0,2023-03-01T18:57:44.380509,2053922,918,1548,945,-1045,-572,-319,-35,215,-195
29464,416,0,2023-03-01T18:57:44.386488,2053927,913,1547,952,-1048,-566,-321,-40,206,-186
29465,417,0,2023-03-01T18:57:44.392417,2053934,913,1547,952,-1048,-566,-321,-40,206,-186
29466,418,0,2023-03-01T18:57:44.398886,2053940,913,1547,952,-1048,-566,-321,-40,206,-186
29467,419,0,2023-03-01T18:57:44.405382,2053947,913,1547,952,-1048,-566,-321,-40,206,-186
29468,420,0,2023-03-01T18:57:44.411260,2053953,919,1549,949,-1045,-567,-317,-40,206,-186
29469,421,0,2023-03-01T18:57:44.417158,2053959,919,1549,949,-1045,-567,-317,-40,206,-186
29470,422,0,2023-03-01T18:57:44.423532,2053965,919,1549,949,-1045,-567,-317,-40,206,-186
29471,423,0,2023-03-01T18:57:44.429504,2053971,917,1548,948,-1046,-564,-323,-40,206,-186
29472,424,0,2023-03-01T18:57:44.435271,2053978,917,1548,948,-1046,-564,-323,-40,206,-186
29473,425,0,2023-03-01T18:57:44.440444,2053982,917,1548,948,-1046,-564,-323,-40,206,-186
29474,426,0,2023-03-01T18:57:44.446307,2053988,919,1548,946,-1046,-566,-321,-40,206,-186
29475,427,0,2023-03-01T18:57:44.452863,2053995,919,1548,946,-1046,-566,-321,-40,206,-186
29476,428,0,2023-03-01T18:57:44.458908,2054001,919,1548,946,-1046,-566,-321,-40,206,-186
29477,429,0,2023-03-01T18:57:44.464781,2054006,919,1548,946,-1046,-566,-321,-40,206,-186
29478,430,0,2023-03-01T18:57:44.469885,2054011,921,1551,941,-1039,-570,-316,-40,206,-186
29479,431,0,2023-03-01T18:57:44.476328,2054019,921,1551,941,-1039,-570,-316,-40,206,-186
29480,432,0,2023-03-01T18:57:44.482131,2054024,921,1551,941,-1039,-570,-316,-40,206,-186
29481,433,0,2023-03-01T18:57:44.487016,2054029,921,1551,941,-1039,-570,-316,-40,206,-186
29482,434,0,2023-03-01T18:57:44.491861,2054034,921,1551,941,-1039,-570,-316,-40,206,-186
29483,435,0,2023-03-01T18:57:44.497554,2054039,921,1551,941,-1039,-570,-316,-40,206,-186
29484,436,0,2023-03-01T18:57:44.503145,2054045,921,1551,941,-1039,-570,-316,-40,206,-186
29485,437,0,2023-03-01T18:57:44.508775,2054050,917,1548,946,-1041,-568,-322,-24,214,-182
29486,438,0,2023-03-01T18:57:44.514785,2054056,917,1548,946,-1041,-568,-322,-24,214,-182
29487,439,0,2023-03-01T18:57:44.520459,2054063,917,1548,946,-1041,-568,-322,-24,214,-182
29488,440,0,2023-03-01T18:57:44.525809,2054068,923,1546,949,-1038,-576,-327,-24,214,-182
29489,441,0,2023-03-01T18:57:44.531229,2054073,923,1546,949,-1038,-576,-327,-24,214,-182
29490,442,0,2023-03-01T18:57:44.536730,2054078,923,1546,949,-1038,-576,-327,-24,214,-182
29491,443,0,2023-03-01T18:57:44.542356,2054084,923,1546,949,-1038,-576,-327,-24,214,-182
29492,444,0,2023-03-01T18:57:44.546991,2054089,917,1549,947,-1029,-575,-324,-24,214,-182
29493,445,0,2023-03-01T18:57:44.552332,2054094,917,1549,947,-1029,-575,-324,-24,214,-182
29494,446,0,2023-03-01T18:57:44.558050,2054099,917,1549,947,-1029,-575,-324,-24,214,-182
29495,447,0,2023-03-01T18:57:44.564454,2054106,917,1549,947,-1029,-575,-324,-24,214,-182
29496,448,0,2023-03-01T18:57:44.569628,2054111,917,1550,950,-1025,-566,-308,-24,214,-182
29497,449,0,2023-03-01T18:57:44.575167,2054117,917,1550,950,-1025,-566,-308,-24,214,-182
29498,450,0,2023-03-01T18:57:44.580509,2054122,917,1550,950,-1025,-566,-308,-24,214,-182
29499,451,0,2023-03-01T18:57:44.586013,2054128,916,1548,945,-1037,-566,-311,-24,214,-182
29500,452,0,2023-03-01T18:57:44.592380,2054134,916,1548,945,-1037,-566,-311,-24,214,-182
29501,453,0,2023-03-01T18:57:44.598312,2054140,916,1548,945,-1037,-566,-311,-24,214,-182
29502,454,0,2023-03-01T18:57:44.603352,2054146,916,1548,945,-1037,-566,-311,-24,214,-182
29503,455,0,2023-03-01T18:57:44.608196,2054151,919,1551,947,-1044,-566,-309,-24,214,-182
29504,456,0,2023-03-01T18:57:44.613475,2054156,919,1551,947,-1044,-566,-309,-24,214,-182
29505,457,0,2023-03-01T18:57:44.618958,2054161,919,1551,947,-1044,-566,-309,-24,214,-182
29506,458,0,2023-03-01T18:57:44.624685,2054166,919,1551,947,-1044,-566,-309,-24,214,-182
29507,459,0,2023-03-01T18:57:44.629951,2054172,917,1546,945,-1037,-561,-311,-24,214,-182
29508,460,0,2023-03-01T18:57:44.635228,2054177,917,1546,945,-1037,-561,-311,-24,214,-182
29509,461,0,2023-03-01T18:57:44.640809,2054182,917,1546,945,-1037,-561,-311,-24,214,-182
29510,462,0,2023-03-01T18:57:44.645396,2054188,917,1546,945,-1037,-561,-311,-24,214,-182
29511,463,0,2023-03-01T18:57:44.650133,2054193,918,1547,955,-1033,-570,-320,-38,206,-176
29512,464,0,2023-03-01T18:57:44.655905,2054198,918,1547,955,-1033,-570,-320,-38,206,-176
29513,465,0,2023-03-01T18:57:44.661745,2054204,918,1547,955,-1033,-570,-320,-38,206,-176
29514,466,0,2023-03-01T18:57:44.667674,2054209,916,1548,950,-1031,-568,-320,-38,206,-176
29515,467,0,2023-03-01T18:57:44.673516,2054215,916,1548,950,-1031,-568,-320,-38,206,-176
29516,468,0,2023-03-01T18:57:44.678956,2054221,916,1548,950,-1031,-568,-320,-38,206,-176
29517,469,0,2023-03-01T18:57:44.684900,2054226,916,1548,950,-1031,-568,-320,-38,206,-176
29518,470,0,2023-03-01T18:57:44.689900,2054232,916,1547,948,-1041,-569,-327,-38,206,-176
29519,471,0,2023-03-01T18:57:44.695130,2054237,916,1547,948,-1041,-569,-327,-38,206,-176
29520,472,0,2023-03-01T18:57:44.700991,2054243,916,1547,948,-1041,-569,-327,-38,206,-176
29521,473,0,2023-03-01T18:57:44.706935,2054249,920,1546,946,-1038,-577,-320,-38,206,-176
29522,474,0,2023-03-01T18:57:44.712573,2054254,920,1546,946,-1038,-577,-320,-38,206,-176
29523,475,0,2023-03-01T18:57:44.717696,2054260,920,1546,946,-1038,-577,-320,-38,206,-176
29524,476,0,2023-03-01T18:57:44.722773,2054265,920,1546,946,-1038,-577,-320,-38,206,-176
29525,477,0,2023-03-01T18:57:44.727542,2054269,918,1546,945,-1042,-571,-320,-38,206,-176
29526,478,0,2023-03-01T18:57:44.732935,2054275,918,1546,945,-1042,-571,-320,-38,206,-176
29527,479,0,2023-03-01T18:57:44.738377,2054281,918,1546,945,-1042,-571,-320,-38,206,-176
29528,480,0,2023-03-01T18:57:44.743122,2054285,918,1546,945,-1042,-571,-320,-38,206,-176
29529,481,0,2023-03-01T18:57:44.748532,2054291,921,1547,950,-1036,-572,-322,-38,206,-176
29530,482,0,2023-03-01T18:57:44.753964,2054296,921,1547,950,-1036,-572,-322,-38,206,-176
29531,483,0,2023-03-01T18:57:44.759801,2054301,921,1547,950,-1036,-572,-322,-38,206,-176
29532,484,0,2023-03-01T18:57:44.764944,2054306,921,1547,950,-1036,-572,-322,-38,206,-176
29533,485,0,2023-03-01T18:57:44.769696,2054311,921,1547,950,-1036,-572,-322,-35,205,-185
29534,486,0,2023-03-01T18:57:44.774645,2054317,921,1547,950,-1036,-572,-322,-35,205,-185
29535,487,0,2023-03-01T18:57:44.781400,2054323,921,1547,950,-1036,-572,-322,-35,205,-185
29536,488,0,2023-03-01T18:57:44.787314,2054329,914,1550,952,-1039,-575,-324,-35,205,-185
29537,489,0,2023-03-01T18:57:44.793437,2054335,914,1550,952,-1039,-575,-324,-35,205,-185
29538,490,0,2023-03-01T18:57:44.798998,2054341,914,1550,952,-1039,-575,-324,-35,205,-185
29539,491,0,2023-03-01T18:57:44.804553,2054346,914,1550,952,-1039,-575,-324,-35,205,-185
29540,492,0,2023-03-01T18:57:44.809369,2054351,916,1546,944,-1041,-578,-327,-35,205,-185
29541,493,0,2023-03-01T18:57:44.815173,2054358,916,1546,944,-1041,-578,-327,-35,205,-185
29542,494,0,2023-03-01T18:57:44.820427,2054363,916,1546,944,-1041,-578,-327,-35,205,-185
29543,495,0,2023-03-01T18:57:44.825420,2054368,916,1546,944,-1041,-578,-327,-35,205,-185
29544,496,0,2023-03-01T18:57:44.830396,2054372,917,1548,945,-1039,-577,-322,-35,205,-185
29545,497,0,2023-03-01T18:57:44.836853,2054379,917,1548,945,-1039,-577,-322,-35,205,-185
29546,498,0,2023-03-01T18:57:44.842442,2054384,917,1548,945,-1039,-577,-322,-35,205,-185
29547,499,0,2023-03-01T18:57:44.847452,2054389,919,1548,951,-1041,-568,-318,-35,205,-185
29548,500,0,2023-03-01T18:57:44.853297,2054395,919,1548,951,-1041,-568,-318,-35,205,-185
29549,501,0,2023-03-01T18:57:44.858906,2054402,919,1548,951,-1041,-568,-318,-35,205,-185
29550,502,0,2023-03-01T18:57:44.864077,2054406,919,1548,951,-1041,-568,-318,-35,205,-185
29551,503,0,2023-03-01T18:57:44.868921,2054411,918,1549,951,-1038,-570,-317,-35,205,-185
29552,504,0,2023-03-01T18:57:44.875344,2054417,918,1549,951,-1038,-570,-317,-35,205,-185
29553,505,0,2023-03-01T18:57:44.881300,2054423,918,1549,951,-1038,-570,-317,-35,205,-185
29554,506,0,2023-03-01T18:57:44.886854,2054428,919,1550,948,-1034,-572,-313,-35,205,-185
29555,507,0,2023-03-01T18:57:44.893704,2054435,919,1550,948,-1034,-572,-313,-35,205,-185
29556,508,0,2023-03-01T18:57:44.899578,2054441,919,1550,948,-1034,-572,-313,-35,205,-185
29557,509,0,2023-03-01T18:57:44.904784,2054447,919,1550,948,-1034,-572,-313,-35,205,-185
29558,510,0,2023-03-01T18:57:44.910534,2054453,918,1550,956,-1041,-572,-325,-34,210,-186
29559,511,0,2023-03-01T18:57:44.915968,2054458,918,1550,956,-1041,-572,-325,-34,210,-186
29560,512,0,2023-03-01T18:57:44.920748,2054463,918,1550,956,-1041,-572,-325,-34,210,-186
29561,513,0,2023-03-01T18:57:44.926653,2054469,920,1550,945,-1040,-568,-318,-34,210,-186
29562,514,0,2023-03-01T18:57:44.932584,2054474,920,1550,945,-1040,-568,-318,-34,210,-186
29563,515,0,2023-03-01T18:57:44.938191,2054479,920,1550,945,-1040,-568,-318,-34,210,-186
29564,516,0,2023-03-01T18:57:44.943799,2054486,920,1550,945,-1040,-568,-318,-34,210,-186
29565,517,0,2023-03-01T18:57:44.948705,2054491,917,1547,945,-1034,-575,-322,-34,210,-186
29566,518,0,2023-03-01T18:57:44.954594,2054497,917,1547,945,-1034,-575,-322,-34,210,-186
29567,519,0,2023-03-01T18:57:44.960588,2054502,917,1547,945,-1034,-575,-322,-34,210,-186
29568,520,0,2023-03-01T18:57:44.966283,2054508,918,1546,947,-1033,-576,-316,-34,210,-186
29569,521,0,2023-03-01T18:57:44.971824,2054514,918,1546,947,-1033,-576,-316,-34,210,-186
29570,522,0,2023-03-01T18:57:44.977485,2054519,918,1546,947,-1033,-576,-316,-34,210,-186
29571,523,0,2023-03-01T18:57:44.982648,2054524,918,1546,947,-1033,-576,-316,-34,210,-186
29572,524,0,2023-03-01T18:57:44.988204,2054530,917,1547,947,-1038,-575,-316,-34,210,-186
29573,525,0,2023-03-01T18:57:44.994337,2054536,917,1547,947,-1038,-575,-316,-34,210,-186
29574,526,0,2023-03-01T18:57:45.002340,2054544,917,1547,947,-1038,-575,-316,-34,210,-186
29575,527,0,2023-03-01T18:57:45.008516,2054550,917,1547,947,-1038,-575,-316,-34,210,-186
29576,528,0,2023-03-01T18:57:45.013719,2054555,917,1547,947,-1038,-575,-316,-34,210,-186
29577,529,0,2023-03-01T18:57:45.019519,2054561,917,1547,947,-1038,-575,-316,-34,210,-186
29578,530,0,2023-03-01T18:57:45.024694,2054566,917,1547,947,-1038,-575,-316,-34,210,-186
29579,531,0,2023-03-01T18:57:45.029704,2054572,917,1550,947,-1045,-566,-317,-34,202,-178
29580,532,0,2023-03-01T18:57:45.035339,2054578,917,1550,947,-1045,-566,-317,-34,202,-178
29581,533,0,2023-03-01T18:57:45.040633,2054583,917,1550,947,-1045,-566,-317,-34,202,-178
29582,534,0,2023-03-01T18:57:45.045384,2054588,917,1550,947,-1045,-566,-317,-34,202,-178
29583,535,0,2023-03-01T18:57:45.050560,2054592,918,1549,954,-1041,-563,-322,-34,202,-178
29584,536,0,2023-03-01T18:57:45.056096,2054598,918,1549,954,-1041,-563,-322,-34,202,-178
29585,537,0,2023-03-01T18:57:45.061770,2054603,918,1549,954,-1041,-563,-322,-34,202,-178
29586,538,0,2023-03-01T18:57:45.066753,2054608,919,1550,954,-1041,-573,-319,-34,202,-178
29587,539,0,2023-03-01T18:57:45.072732,2054615,919,1550,954,-1041,-573,-319,-34,202,-178
29588,540,0,2023-03-01T18:57:45.078489,2054621,919,1550,954,-1041,-573,-319,-34,202,-178
29589,541,0,2023-03-01T18:57:45.083583,2054626,919,1550,954,-1041,-573,-319,-34,202,-178
29590,542,0,2023-03-01T18:57:45.088579,2054631,918,1550,948,-1045,-573,-317,-34,202,-178
29591,543,0,2023-03-01T18:57:45.094401,2054636,918,1550,948,-1045,-573,-317,-34,202,-178
29592,544,0,2023-03-01T18:57:45.100335,2054642,918,1550,948,-1045,-573,-317,-34,202,-178
29593,545,0,2023-03-01T18:57:45.106203,2054647,918,1550,948,-1045,-573,-317,-34,202,-178
29594,546,0,2023-03-01T18:57:45.111924,2054653,919,1553,948,-1038,-581,-314,-34,202,-178
29595,547,0,2023-03-01T18:57:45.118224,2054661,919,1553,948,-1038,-581,-314,-34,202,-178
29596,548,0,2023-03-01T18:57:45.123651,2054666,919,1553,948,-1038,-581,-314,-34,202,-178
29597,549,0,2023-03-01T18:57:45.129046,2054671,918,1550,949,-1039,-576,-317,-34,202,-178
29598,550,0,2023-03-01T18:57:45.134538,2054677,918,1550,949,-1039,-576,-317,-34,202,-178
29599,551,0,2023-03-01T18:57:45.139780,2054682,918,1550,949,-1039,-576,-317,-34,202,-178
29600,552,0,2023-03-01T18:57:45.145290,2054687,918,1550,949,-1039,-576,-317,-34,202,-178
29601,553,0,2023-03-01T18:57:45.150336,2054692,918,1547,945,-1030,-572,-318,-34,202,-178
29602,554,0,2023-03-01T18:57:45.156390,2054699,918,1547,945,-1030,-572,-318,-34,202,-178
29603,555,0,2023-03-01T18:57:45.161600,2054704,918,1547,945,-1030,-572,-318,-34,202,-178
29604,556,0,2023-03-01T18:57:45.166193,2054708,918,1547,945,-1030,-572,-318,-34,202,-178
29605,557,0,2023-03-01T18:57:45.171049,2054713,920,1552,952,-1040,-580,-326,-34,212,-186
29606,558,0,2023-03-01T18:57:45.176257,2054718,920,1552,952,-1040,-580,-326,-34,212,-186
29607,559,0,2023-03-01T18:57:45.181899,2054724,920,1552,952,-1040,-580,-326,-34,212,-186
29608,560,0,2023-03-01T18:57:45.188415,2054730,920,1550,951,-1043,-573,-324,-34,212,-186
29609,561,0,2023-03-01T18:57:45.194032,2054736,920,1550,951,-1043,-573,-324,-34,212,-186
29610,562,0,2023-03-01T18:57:45.199474,2054742,920,1550,951,-1043,-573,-324,-34,212,-186
29611,563,0,2023-03-01T18:57:45.205383,2054748,920,1550,951,-1043,-573,-324,-34,212,-186
29612,564,0,2023-03-01T18:57:45.210295,2054752,920,1546,945,-1041,-570,-315,-34,212,-186
29613,565,0,2023-03-01T18:57:45.217569,2054759,920,1546,945,-1041,-570,-315,-34,212,-186
29614,566,0,2023-03-01T18:57:45.223341,2054765,920,1546,945,-1041,-570,-315,-34,212,-186
29615,567,0,2023-03-01T18:57:45.228503,2054770,916,1548,952,-1034,-569,-320,-34,212,-186
29616,568,0,2023-03-01T18:57:45.233904,2054776,916,1548,952,-1034,-569,-320,-34,212,-186
29617,569,0,2023-03-01T18:57:45.239530,2054781,916,1548,952,-1034,-569,-320,-34,212,-186
29618,570,0,2023-03-01T18:57:45.245390,2054788,916,1548,952,-1034,-569,-320,-34,212,-186
29619,571,0,2023-03-01T18:57:45.249893,2054792,916,1545,949,-1039,-579,-321,-34,212,-186
29620,572,0,2023-03-01T18:57:45.255105,2054797,916,1545,949,-1039,-579,-321,-34,212,-186
29621,573,0,2023-03-01T18:57:45.260816,2054803,916,1545,949,-1039,-579,-321,-34,212,-186
29622,574,0,2023-03-01T18:57:45.266563,2054809,919,1548,947,-1036,-569,-322,-34,212,-186
29623,575,0,2023-03-01T18:57:45.271971,2054814,919,1548,947,-1036,-569,-322,-34,212,-186
29624,576,0,2023-03-01T18:57:45.277306,2054819,919,1548,947,-1036,-569,-322,-34,212,-186
29625,577,0,2023-03-01T18:57:45.282396,2054824,919,1548,947,-1036,-569,-322,-34,212,-186
29626,578,0,2023-03-01T18:57:45.286761,2054829,916,1548,941,-1034,-570,-323,-35,207,-185
29627,579,0,2023-03-01T18:57:45.292405,2054835,916,1548,941,-1034,-570,-323,-35,207,-185
29628,580,0,2023-03-01T18:57:45.298159,2054840,916,1548,941,-1034,-570,-323,-35,207,-185
29629,581,0,2023-03-01T18:57:45.302794,2054845,916,1548,941,-1034,-570,-323,-35,207,-185
29630,582,0,2023-03-01T18:57:45.307754,2054850,915,1549,951,-1033,-570,-317,-35,207,-185
29631,583,0,2023-03-01T18:57:45.313427,2054855,915,1549,951,-1033,-570,-317,-35,207,-185
29632,584,0,2023-03-01T18:57:45.319578,2054861,915,1549,951,-1033,-570,-317,-35,207,-185
29633,585,0,2023-03-01T18:57:45.324339,2054866,915,1549,951,-1033,-570,-317,-35,207,-185
29634,586,0,2023-03-01T18:57:45.329510,2054872,919,1550,946,-1028,-568,-321,-35,207,-185
29635,587,0,2023-03-01T18:57:45.335375,2054878,919,1550,946,-1028,-568,-321,-35,207,-185
29636,588,0,2023-03-01T18:57:45.340796,2054883,919,1550,946,-1028,-568,-321,-35,207,-185
29637,589,0,2023-03-01T18:57:45.346232,2054888,919,1550,946,-1028,-568,-321,-35,207,-185
29638,590,0,2023-03-01T18:57:45.351479,2054893,918,1550,944,-1036,-564,-320,-35,207,-185
29639,591,0,2023-03-01T18:57:45.357075,2054899,918,1550,944,-1036,-564,-320,-35,207,-185
29640,592,0,2023-03-01T18:57:45.362674,2054904,918,1550,944,-1036,-564,-320,-35,207,-185
29641,593,0,2023-03-01T18:57:45.367917,2054909,917,1544,941,-1035,-560,-322,-35,207,-185
29642,594,0,2023-03-01T18:57:45.373814,2054916,917,1544,941,-1035,-560,-322,-35,207,-185
29643,595,0,2023-03-01T18:57:45.379573,2054922,917,1544,941,-1035,-560,-322,-35,207,-185
29644,596,0,2023-03-01T18:57:45.384723,2054927,917,1544,941,-1035,-560,-322,-35,207,-185
29645,597,0,2023-03-01T18:57:45.389990,2054932,919,1547,946,-1039,-568,-321,-35,207,-185
29646,598,0,2023-03-01T18:57:45.395582,2054937,919,1547,946,-1039,-568,-321,-35,207,-185
29647,599,0,2023-03-01T18:57:45.400986,2054942,919,1547,946,-1039,-568,-321,-35,207,-185
29648,600,0,2023-03-01T18:57:45.406831,2054948,916,1548,943,-1043,-571,-322,-35,207,-185
29649,601,0,2023-03-01T18:57:45.413110,2054955,916,1548,943,-1043,-571,-322,-38,204,-184
29650,602,0,2023-03-01T18:57:45.418901,2054961,916,1548,943,-1043,-571,-322,-38,204,-184
29651,603,0,2023-03-01T18:57:45.424027,2054966,916,1548,943,-1043,-571,-322,-38,204,-184
29652,604,0,2023-03-01T18:57:45.429623,2054972,914,1548,952,-1039,-572,-319,-38,204,-184
29653,605,0,2023-03-01T18:57:45.436351,2054977,914,1548,952,-1039,-572,-319,-38,204,-184
29654,606,0,2023-03-01T18:57:45.442526,2054984,914,1548,952,-1039,-572,-319,-38,204,-184
29655,607,0,2023-03-01T18:57:45.448355,2054990,917,1550,953,-1045,-575,-316,-38,204,-184
29656,608,0,2023-03-01T18:57:45.453893,2054995,917,1550,953,-1045,-575,-316,-38,204,-184
29657,609,0,2023-03-01T18:57:45.459454,2055002,917,1550,953,-1045,-575,-316,-38,204,-184
29658,610,0,2023-03-01T18:57:45.466215,2055008,917,1550,953,-1045,-575,-316,-38,204,-184
29659,611,0,2023-03-01T18:57:45.471341,2055013,917,1551,945,-1039,-573,-316,-38,204,-184
29660,612,0,2023-03-01T18:57:45.477264,2055019,917,1551,945,-1039,-573,-316,-38,204,-184
29661,613,0,2023-03-01T18:57:45.482885,2055025,917,1551,945,-1039,-573,-316,-38,204,-184
29662,614,0,2023-03-01T18:57:45.489842,2055031,917,1550,955,-1034,-576,-323,-38,204,-184
29663,615,0,2023-03-01T18:57:45.495945,2055037,917,1550,955,-1034,-576,-323,-38,204,-184
29664,616,0,2023-03-01T18:57:45.501594,2055044,917,1550,955,-1034,-576,-323,-38,204,-184
29665,617,0,2023-03-01T18:57:45.506811,2055049,917,1550,955,-1034,-576,-323,-38,204,-184
29666,618,0,2023-03-01T18:57:45.512196,2055054,917,1547,948,-1035,-572,-322,-38,204,-184
29667,619,0,2023-03-01T18:57:45.517237,2055059,917,1547,948,-1035,-572,-322,-38,204,-184
29668,620,0,2023-03-01T18:57:45.522054,2055064,917,1547,948,-1035,-572,-322,-38,204,-184
29669,621,0,2023-03-01T18:57:45.527762,2055070,916,1549,946,-1031,-571,-324,-38,204,-184
29670,622,0,2023-03-01T18:57:45.533262,2055075,916,1549,946,-1031,-571,-324,-38,204,-184
29671,623,0,2023-03-01T18:57:45.538783,2055080,916,1549,946,-1031,-571,-324,-38,204,-184
29672,624,0,2023-03-01T18:57:45.543708,2055086,916,1549,946,-1031,-571,-324,-38,204,-184
29673,625,0,2023-03-01T18:57:45.548855,2055091,917,1548,950,-1035,-571,-322,-28,210,-176
29674,626,0,2023-03-01T18:57:45.555498,2055097,917,1548,950,-1035,-571,-322,-28,210,-176
29675,627,0,2023-03-01T18:57:45.561301,2055103,917,1548,950,-1035,-571,-322,-28,210,-176
29676,628,0,2023-03-01T18:57:45.567108,2055108,917,1548,950,-1035,-571,-322,-28,210,-176
29677,629,0,2023-03-01T18:57:45.572384,2055114,915,1548,948,-1042,-576,-317,-28,210,-176
29678,630,0,2023-03-01T18:57:45.578883,2055120,915,1548,948,-1042,-576,-317,-28,210,-176
29679,631,0,2023-03-01T18:57:45.583793,2055126,915,1548,948,-1042,-576,-317,-28,210,-176
29680,632,0,2023-03-01T18:57:45.589061,2055131,919,1547,946,-1037,-572,-312,-28,210,-176
29681,633,0,2023-03-01T18:57:45.594505,2055137,919,1547,946,-1037,-572,-312,-28,210,-176
29682,634,0,2023-03-01T18:57:45.600399,2055143,919,1547,946,-1037,-572,-312,-28,210,-176
29683,635,0,2023-03-01T18:57:45.605195,2055147,919,1547,946,-1037,-572,-312,-28,210,-176
29684,636,0,2023-03-01T18:57:45.610153,2055152,917,1548,948,-1031,-570,-314,-28,210,-176
29685,637,0,2023-03-01T18:57:45.615970,2055158,917,1548,948,-1031,-570,-314,-28,210,-176
29686,638,0,2023-03-01T18:57:45.621519,2055163,917,1548,948,-1031,-570,-314,-28,210,-176
29687,639,0,2023-03-01T18:57:45.628744,2055171,918,1547,949,-1035,-568,-315,-28,210,-176
29688,640,0,2023-03-01T18:57:45.634620,2055177,918,1547,949,-1035,-568,-315,-28,210,-176
29689,641,0,2023-03-01T18:57:45.640062,2055182,918,1547,949,-1035,-568,-315,-28,210,-176
29690,642,0,2023-03-01T18:57:45.645625,2055187,918,1547,949,-1035,-568,-315,-28,210,-176
29691,643,0,2023-03-01T18:57:45.650802,2055193,918,1550,947,-1038,-567,-312,-28,210,-176
29692,644,0,2023-03-01T18:57:45.656601,2055198,918,1550,947,-1038,-567,-312,-28,210,-176
29693,645,0,2023-03-01T18:57:45.662615,2055204,918,1550,947,-1038,-567,-312,-28,210,-176
29694,646,0,2023-03-01T18:57:45.667604,2055209,918,1547,949,-1034,-575,-322,-33,209,-187
29695,647,0,2023-03-01T18:57:45.673001,2055215,918,1547,949,-1034,-575,-322,-33,209,-187
29696,648,0,2023-03-01T18:57:45.678517,2055221,918,1547,949,-1034,-575,-322,-33,209,-187
29697,649,0,2023-03-01T18:57:45.683562,2055226,918,1547,949,-1034,-575,-322,-33,209,-187
29698,650,0,2023-03-01T18:57:45.688777,2055231,919,1548,946,-1031,-574,-320,-33,209,-187
29699,651,0,2023-03-01T18:57:45.694334,2055236,919,1548,946,-1031,-574,-320,-33,209,-187
29700,652,0,2023-03-01T18:57:45.699654,2055241,919,1548,946,-1031,-574,-320,-33,209,-187
29701,653,0,2023-03-01T18:57:45.705116,2055247,919,1548,946,-1031,-574,-320,-33,209,-187
29702,654,0,2023-03-01T18:57:45.710629,2055252,917,1548,947,-1028,-565,-318,-33,209,-187
29703,655,0,2023-03-01T18:57:45.716126,2055259,917,1548,947,-1028,-565,-318,-33,209,-187
29704,656,0,2023-03-01T18:57:45.721666,2055264,917,1548,947,-1028,-565,-318,-33,209,-187
29705,657,0,2023-03-01T18:57:45.726367,2055269,917,1548,947,-1028,-565,-318,-33,209,-187
29706,658,0,2023-03-01T18:57:45.731402,2055273,916,1550,947,-1037,-565,-326,-33,209,-187
29707,659,0,2023-03-01T18:57:45.737161,2055279,916,1550,947,-1037,-565,-326,-33,209,-187
29708,660,0,2023-03-01T18:57:45.742863,2055285,916,1550,947,-1037,-565,-326,-33,209,-187
29709,661,0,2023-03-01T18:57:45.747894,2055289,918,1551,944,-1036,-568,-321,-33,209,-187
29710,662,0,2023-03-01T18:57:45.753798,2055296,918,1551,944,-1036,-568,-321,-33,209,-187
29711,663,0,2023-03-01T18:57:45.759675,2055302,918,1551,944,-1036,-568,-321,-33,209,-187
29712,664,0,2023-03-01T18:57:45.764985,2055307,918,1551,944,-1036,-568,-321,-33,209,-187
29713,665,0,2023-03-01T18:57:45.770358,2055312,922,1550,946,-1034,-565,-315,-33,209,-187
29714,666,0,2023-03-01T18:57:45.775400,2055318,922,1550,946,-1034,-565,-315,-33,209,-187
29715,667,0,2023-03-01T18:57:45.780803,2055323,922,1550,946,-1034,-565,-315,-33,209,-187
29716,668,0,2023-03-01T18:57:45.786705,2055328,922,1550,946,-1034,-565,-315,-33,209,-187
29717,669,0,2023-03-01T18:57:45.791819,2055333,918,1548,946,-1035,-566,-323,-33,209,-187
29718,670,0,2023-03-01T18:57:45.797895,2055340,918,1548,946,-1035,-566,-323,-33,209,-187
29719,671,0,2023-03-01T18:57:45.803384,2055346,918,1548,946,-1035,-566,-323,-33,209,-187
29720,672,0,2023-03-01T18:57:45.808597,2055351,917,1548,951,-1038,-567,-317,-35,205,-189
29721,673,0,2023-03-01T18:57:45.814217,2055356,917,1548,951,-1038,-567,-317,-35,205,-189
29722,674,0,2023-03-01T18:57:45.819981,2055362,917,1548,951,-1038,-567,-317,-35,205,-189
29723,675,0,2023-03-01T18:57:45.825724,2055368,917,1548,951,-1038,-567,-317,-35,205,-189
29724,676,0,2023-03-01T18:57:45.830416,2055372,917,1549,950,-1035,-563,-319,-35,205,-189
29725,677,0,2023-03-01T18:57:45.835722,2055377,917,1549,950,-1035,-563,-319,-35,205,-189
29726,678,0,2023-03-01T18:57:45.840657,2055383,917,1549,950,-1035,-563,-319,-35,205,-189
29727,679,0,2023-03-01T18:57:45.845309,2055388,917,1549,950,-1035,-563,-319,-35,205,-189
29728,680,0,2023-03-01T18:57:45.850462,2055393,918,1547,945,-1030,-573,-320,-35,205,-189
29729,681,0,2023-03-01T18:57:45.856539,2055398,918,1547,945,-1030,-573,-320,-35,205,-189
29730,682,0,2023-03-01T18:57:45.861847,2055404,918,1547,945,-1030,-573,-320,-35,205,-189
29731,683,0,2023-03-01T18:57:45.867723,2055410,915,1548,946,-1037,-573,-319,-35,205,-189
29732,684,0,2023-03-01T18:57:45.872867,2055414,915,1548,946,-1037,-573,-319,-35,205,-189
29733,685,0,2023-03-01T18:57:45.880997,2055422,915,1548,946,-1037,-573,-319,-35,205,-189
29734,686,0,2023-03-01T18:57:45.886287,2055428,915,1548,946,-1037,-573,-319,-35,205,-189
29735,687,0,2023-03-01T18:57:45.891525,2055434,917,1548,946,-1038,-574,-318,-35,205,-189
29736,688,0,2023-03-01T18:57:45.897005,2055439,917,1548,946,-1038,-574,-318,-35,205,-189
29737,689,0,2023-03-01T18:57:45.902710,2055445,917,1548,946,-1038,-574,-318,-35,205,-189
29738,690,0,2023-03-01T18:57:45.908644,2055450,919,1547,942,-1035,-572,-315,-35,205,-189
29739,691,0,2023-03-01T18:57:45.914419,2055456,919,1547,942,-1035,-572,-315,-35,205,-189
29740,692,0,2023-03-01T18:57:45.919714,2055461,919,1547,942,-1035,-572,-315,-35,205,-189
29741,693,0,2023-03-01T18:57:45.925506,2055468,919,1547,942,-1035,-572,-315,-35,205,-189
29742,694,0,2023-03-01T18:57:45.930326,2055473,920,1552,941,-1039,-573,-316,-34,210,-182
29743,695,0,2023-03-01T18:57:45.936195,2055478,920,1552,941,-1039,-573,-316,-34,210,-182
29744,696,0,2023-03-01T18:57:45.941143,2055483,920,1552,941,-1039,-573,-316,-34,210,-182
29745,697,0,2023-03-01T18:57:45.946779,2055489,920,1552,941,-1039,-573,-316,-34,210,-182
29746,698,0,2023-03-01T18:57:45.951648,2055494,921,1549,947,-1029,-568,-318,-34,210,-182
29747,699,0,2023-03-01T18:57:45.957453,2055499,921,1549,947,-1029,-568,-318,-34,210,-182
29748,700,0,2023-03-01T18:57:45.963429,2055505,921,1549,947,-1029,-568,-318,-34,210,-182
29749,701,0,2023-03-01T18:57:45.969287,2055511,917,1551,944,-1030,-566,-316,-34,210,-182
29750,702,0,2023-03-01T18:57:45.975521,2055518,917,1551,944,-1030,-566,-316,-34,210,-182
29751,703,0,2023-03-01T18:57:45.981343,2055523,917,1551,944,-1030,-566,-316,-34,210,-182
29752,704,0,2023-03-01T18:57:45.987194,2055529,917,1551,944,-1030,-566,-316,-34,210,-182
29753,705,0,2023-03-01T18:57:45.992592,2055535,920,1549,949,-1039,-566,-317,-34,210,-182
29754,706,0,2023-03-01T18:57:45.999209,2055541,920,1549,949,-1039,-566,-317,-34,210,-182
29755,707,0,2023-03-01T18:57:46.004416,2055546,920,1549,949,-1039,-566,-317,-34,210,-182
29756,708,0,2023-03-01T18:57:46.009046,2055552,916,1552,949,-1042,-570,-324,-34,210,-182
29757,709,0,2023-03-01T18:57:46.014695,2055557,916,1552,949,-1042,-570,-324,-34,210,-182
29758,710,0,2023-03-01T18:57:46.020856,2055563,916,1552,949,-1042,-570,-324,-34,210,-182
29759,711,0,2023-03-01T18:57:46.025781,2055568,916,1552,949,-1042,-570,-324,-34,210,-182
29760,712,0,2023-03-01T18:57:46.030710,2055573,916,1547,947,-1047,-569,-321,-34,210,-182
29761,713,0,2023-03-01T18:57:46.036567,2055578,916,1547,947,-1047,-569,-321,-34,210,-182
29762,714,0,2023-03-01T18:57:46.042346,2055584,916,1547,947,-1047,-569,-321,-34,210,-182
29763,715,0,2023-03-01T18:57:46.048327,2055590,918,1547,941,-1040,-567,-325,-34,210,-182
29764,716,0,2023-03-01T18:57:46.053956,2055596,918,1547,941,-1040,-567,-325,-34,210,-182
29765,717,0,2023-03-01T18:57:46.059160,2055602,918,1547,941,-1040,-567,-325,-34,210,-182
29766,718,0,2023-03-01T18:57:46.064045,2055606,918,1547,941,-1040,-567,-325,-34,210,-182
29767,719,0,2023-03-01T18:57:46.068748,2055611,914,1552,949,-1037,-573,-319,-39,211,-183
29768,720,0,2023-03-01T18:57:46.074376,2055616,914,1552,949,-1037,-573,-319,-39,211,-183
29769,721,0,2023-03-01T18:57:46.080331,2055622,914,1552,949,-1037,-573,-319,-39,211,-183
29770,722,0,2023-03-01T18:57:46.085289,2055627,914,1552,949,-1037,-573,-319,-39,211,-183
29771,723,0,2023-03-01T18:57:46.090130,2055632,917,1547,953,-1030,-568,-321,-39,211,-183
29772,724,0,2023-03-01T18:57:46.095836,2055638,917,1547,953,-1030,-568,-321,-39,211,-183
29773,725,0,2023-03-01T18:57:46.101748,2055644,917,1547,953,-1030,-568,-321,-39,211,-183
29774,726,0,2023-03-01T18:57:46.107565,2055650,917,1548,947,-1035,-574,-320,-39,211,-183
29775,727,0,2023-03-01T18:57:46.112909,2055655,917,1548,947,-1035,-574,-320,-39,211,-183
29776,728,0,2023-03-01T18:57:46.118713,2055660,917,1548,947,-1035,-574,-320,-39,211,-183
29777,729,0,2023-03-01T18:57:46.123780,2055666,917,1548,947,-1035,-574,-320,-39,211,-183
29778,730,0,2023-03-01T18:57:46.128754,2055670,918,1550,947,-1030,-574,-319,-39,211,-183
29779,731,0,2023-03-01T18:57:46.134714,2055676,918,1550,947,-1030,-574,-319,-39,211,-183
29780,732,0,2023-03-01T18:57:46.139238,2055682,918,1550,947,-1030,-574,-319,-39,211,-183
29781,733,0,2023-03-01T18:57:46.144920,2055687,918,1550,947,-1030,-574,-319,-39,211,-183
29782,734,0,2023-03-01T18:57:46.149882,2055692,917,1547,945,-1039,-574,-315,-39,211,-183
29783,735,0,2023-03-01T18:57:46.155615,2055698,917,1547,945,-1039,-574,-315,-39,211,-183
29784,736,0,2023-03-01T18:57:46.161345,2055703,917,1547,945,-1039,-574,-315,-39,211,-183
29785,737,0,2023-03-01T18:57:46.166727,2055709,917,1547,945,-1039,-574,-315,-39,211,-183
29786,738,0,2023-03-01T18:57:46.171862,2055713,917,1547,945,-1039,-574,-315,-39,211,-183
29787,739,0,2023-03-01T18:57:46.176831,2055718,917,1547,945,-1039,-574,-315,-39,211,-183
29788,740,0,2023-03-01T18:57:46.182552,2055725,917,1547,945,-1039,-574,-315,-39,211,-183
29789,741,0,2023-03-01T18:57:46.187503,2055730,917,1547,945,-1039,-574,-315,-39,211,-183
29790,742,0,2023-03-01T18:57:46.192131,2055735,919,1553,948,-1036,-560,-322,-34,212,-184
29791,743,0,2023-03-01T18:57:46.197890,2055740,919,1553,948,-1036,-560,-322,-34,212,-184
29792,744,0,2023-03-01T18:57:46.202796,2055745,919,1553,948,-1036,-560,-322,-34,212,-184
29793,745,0,2023-03-01T18:57:46.210834,2055752,919,1548,950,-1032,-571,-315,-34,212,-184
29794,746,0,2023-03-01T18:57:46.215648,2055757,919,1548,950,-1032,-571,-315,-34,212,-184
29795,747,0,2023-03-01T18:57:46.221203,2055763,919,1548,950,-1032,-571,-315,-34,212,-184
29796,748,0,2023-03-01T18:57:46.226405,2055768,919,1548,950,-1032,-571,-315,-34,212,-184
29797,749,0,2023-03-01T18:57:46.231235,2055774,919,1549,949,-1034,-571,-316,-34,212,-184
29798,750,0,2023-03-01T18:57:46.236786,2055779,919,1549,949,-1034,-571,-316,-34,212,-184
29799,751,0,2023-03-01T18:57:46.242146,2055784,919,1549,949,-1034,-571,-316,-34,212,-184
29800,752,0,2023-03-01T18:57:46.247138,2055789,919,1549,949,-1034,-571,-316,-34,212,-184
29801,753,0,2023-03-01T18:57:46.252014,2055794,919,1549,944,-1037,-577,-318,-34,212,-184
29802,754,0,2023-03-01T18:57:46.258133,2055800,919,1549,944,-1037,-577,-318,-34,212,-184
29803,755,0,2023-03-01T18:57:46.263369,2055805,919,1549,944,-1037,-577,-318,-34,212,-184
29804,756,0,2023-03-01T18:57:46.268374,2055811,918,1549,941,-1028,-568,-317,-34,212,-184
29805,757,0,2023-03-01T18:57:46.273746,2055816,918,1549,941,-1028,-568,-317,-34,212,-184
29806,758,0,2023-03-01T18:57:46.278982,2055821,918,1549,941,-1028,-568,-317,-34,212,-184
29807,759,0,2023-03-01T18:57:46.284278,2055826,918,1549,941,-1028,-568,-317,-34,212,-184
29808,760,0,2023-03-01T18:57:46.289228,2055831,917,1545,944,-1040,-570,-316,-34,212,-184
29809,761,0,2023-03-01T18:57:46.295250,2055837,917,1545,944,-1040,-570,-316,-34,212,-184
29810,762,0,2023-03-01T18:57:46.301306,2055843,917,1545,944,-1040,-570,-316,-34,212,-184
29811,763,0,2023-03-01T18:57:46.306908,2055849,917,1545,944,-1040,-570,-316,-34,212,-184
29812,764,0,2023-03-01T18:57:46.311679,2055854,918,1548,944,-1041,-572,-316,-38,202,-184
29813,765,0,2023-03-01T18:57:46.317210,2055859,918,1548,944,-1041,-572,-316,-38,202,-184
29814,766,0,2023-03-01T18:57:46.324011,2055866,918,1548,944,-1041,-572,-316,-38,202,-184
29815,767,0,2023-03-01T18:57:46.329061,2055871,916,1549,946,-1043,-579,-323,-38,202,-184
29816,768,0,2023-03-01T18:57:46.334052,2055876,916,1549,946,-1043,-579,-323,-38,202,-184
29817,769,0,2023-03-01T18:57:46.339691,2055882,916,1549,946,-1043,-579,-323,-38,202,-184
29818,770,0,2023-03-01T18:57:46.344595,2055886,916,1549,946,-1043,-579,-323,-38,202,-184
29819,771,0,2023-03-01T18:57:46.349913,2055892,920,1548,950,-1035,-574,-323,-38,202,-184
29820,772,0,2023-03-01T18:57:46.355378,2055898,920,1548,950,-1035,-574,-323,-38,202,-184
29821,773,0,2023-03-01T18:57:46.361362,2055904,920,1548,950,-1035,-574,-323,-38,202,-184
29822,774,0,2023-03-01T18:57:46.366617,2055909,920,1548,950,-1035,-574,-323,-38,202,-184
29823,775,0,2023-03-01T18:57:46.371317,2055913,920,1547,944,-1035,-569,-326,-38,202,-184
29824,776,0,2023-03-01T18:57:46.377006,2055919,920,1547,944,-1035,-569,-326,-38,202,-184
29825,777,0,2023-03-01T18:57:46.382816,2055925,920,1547,944,-1035,-569,-326,-38,202,-184
29826,778,0,2023-03-01T18:57:46.387843,2055930,919,1548,947,-1035,-567,-326,-38,202,-184
29827,779,0,2023-03-01T18:57:46.393714,2055936,919,1548,947,-1035,-567,-326,-38,202,-184
29828,780,0,2023-03-01T18:57:46.399654,2055942,919,1548,947,-1035,-567,-326,-38,202,-184
29829,781,0,2023-03-01T18:57:46.405499,2055948,919,1548,947,-1035,-567,-326,-38,202,-184
29830,782,0,2023-03-01T18:57:46.410661,2055953,916,1546,946,-1035,-573,-320,-38,202,-184
29831,783,0,2023-03-01T18:57:46.416439,2055959,916,1546,946,-1035,-573,-320,-38,202,-184
29832,784,0,2023-03-01T18:57:46.421699,2055964,916,1546,946,-1035,-573,-320,-38,202,-184
29833,785,0,2023-03-01T18:57:46.427205,2055968,916,1546,946,-1035,-573,-320,-38,202,-184
29834,786,0,2023-03-01T18:57:46.432562,2055974,920,1546,948,-1033,-574,-318,-38,202,-184
29835,787,0,2023-03-01T18:57:46.439191,2055981,920,1546,948,-1033,-574,-318,-38,202,-184
29836,788,0,2023-03-01T18:57:46.445513,2055988,920,1546,948,-1033,-574,-318,-38,202,-184
29837,789,0,2023-03-01T18:57:46.450507,2055993,917,1550,949,-1034,-572,-321,-39,203,-185
29838,790,0,2023-03-01T18:57:46.455977,2055998,917,1550,949,-1034,-572,-321,-39,203,-185
29839,791,0,2023-03-01T18:57:46.461577,2056003,917,1550,949,-1034,-572,-321,-39,203,-185
29840,792,0,2023-03-01T18:57:46.466737,2056008,917,1550,949,-1034,-572,-321,-39,203,-185
29841,793,0,2023-03-01T18:57:46.471881,2056013,917,1547,950,-1033,-569,-313,-39,203,-185
29842,794,0,2023-03-01T18:57:46.477750,2056019,917,1547,950,-1033,-569,-313,-39,203,-185
29843,795,0,2023-03-01T18:57:46.484002,2056026,917,1547,950,-1033,-569,-313,-39,203,-185
29844,796,0,2023-03-01T18:57:46.490330,2056032,914,1546,945,-1029,-568,-317,-39,203,-185
29845,797,0,2023-03-01T18:57:46.496403,2056038,914,1546,945,-1029,-568,-317,-39,203,-185
29846,798,0,2023-03-01T18:57:46.502023,2056044,914,1546,945,-1029,-568,-317,-39,203,-185
29847,799,0,2023-03-01T18:57:46.507132,2056049,914,1546,945,-1029,-568,-317,-39,203,-185
29848,800,0,2023-03-01T18:57:46.512188,2056054,916,1547,945,-1038,-566,-319,-39,203,-185
29849,801,0,2023-03-01T18:57:46.518238,2056060,916,1547,945,-1038,-566,-319,-39,203,-185
29850,802,0,2023-03-01T18:57:46.523216,2056066,916,1547,945,-1038,-566,-319,-39,203,-185
29851,803,0,2023-03-01T18:57:46.528871,2056071,918,1549,945,-1036,-570,-323,-39,203,-185
29852,804,0,2023-03-01T18:57:46.534406,2056077,918,1549,945,-1036,-570,-323,-39,203,-185
29853,805,0,2023-03-01T18:57:46.542135,2056084,918,1549,945,-1036,-570,-323,-39,203,-185
29854,806,0,2023-03-01T18:57:46.547924,2056090,919,1548,949,-1044,-562,-318,-39,203,-185
29855,807,0,2023-03-01T18:57:46.553526,2056095,919,1548,949,-1044,-562,-318,-39,203,-185
29856,808,0,2023-03-01T18:57:46.559020,2056101,919,1548,949,-1044,-562,-318,-39,203,-185
29857,809,0,2023-03-01T18:57:46.564125,2056107,919,1548,949,-1044,-562,-318,-39,203,-185
29858,810,0,2023-03-01T18:57:46.568895,2056111,918,1549,947,-1044,-570,-315,-31,211,-183
29859,811,0,2023-03-01T18:57:46.574393,2056117,918,1549,947,-1044,-570,-315,-31,211,-183
29860,812,0,2023-03-01T18:57:46.579892,2056122,918,1549,947,-1044,-570,-315,-31,211,-183
29861,813,0,2023-03-01T18:57:46.585072,2056127,918,1549,947,-1044,-570,-315,-31,211,-183
29862,814,0,2023-03-01T18:57:46.589660,2056132,918,1547,948,-1036,-575,-319,-31,211,-183
29863,815,0,2023-03-01T18:57:46.595081,2056137,918,1547,948,-1036,-575,-319,-31,211,-183
29864,816,0,2023-03-01T18:57:46.600509,2056142,918,1547,948,-1036,-575,-319,-31,211,-183
29865,817,0,2023-03-01T18:57:46.606280,2056148,918,1547,948,-1036,-575,-319,-31,211,-183
29866,818,0,2023-03-01T18:57:46.611498,2056154,918,1549,947,-1041,-571,-312,-31,211,-183
29867,819,0,2023-03-01T18:57:46.617971,2056160,918,1549,947,-1041,-571,-312,-31,211,-183
29868,820,0,2023-03-01T18:57:46.622676,2056165,918,1549,947,-1041,-571,-312,-31,211,-183
29869,821,0,2023-03-01T18:57:46.628510,2056170,918,1549,947,-1041,-571,-312,-31,211,-183
29870,822,0,2023-03-01T18:57:46.633933,2056175,918,1549,947,-1041,-571,-312,-31,211,-183
29871,823,0,2023-03-01T18:57:46.640087,2056182,918,1549,947,-1041,-571,-312,-31,211,-183
29872,824,0,2023-03-01T18:57:46.645977,2056187,918,1549,947,-1041,-571,-312,-31,211,-183
29873,825,0,2023-03-01T18:57:46.651289,2056194,919,1551,947,-1039,-571,-310,-31,211,-183
29874,826,0,2023-03-01T18:57:46.657042,2056199,919,1551,947,-1039,-571,-310,-31,211,-183
29875,827,0,2023-03-01T18:57:46.661933,2056204,919,1551,947,-1039,-571,-310,-31,211,-183
29876,828,0,2023-03-01T18:57:46.667147,2056209,919,1551,947,-1039,-571,-310,-31,211,-183
29877,829,0,2023-03-01T18:57:46.672095,2056214,920,1549,940,-1035,-574,-317,-31,211,-183
29878,830,0,2023-03-01T18:57:46.676857,2056219,920,1549,940,-1035,-574,-317,-31,211,-183
29879,831,0,2023-03-01T18:57:46.681534,2056224,920,1549,940,-1035,-574,-317,-31,211,-183
29880,832,0,2023-03-01T18:57:46.686832,2056228,920,1549,940,-1035,-574,-317,-31,211,-183
29881,833,0,2023-03-01T18:57:46.693068,2056235,917,1547,947,-1037,-571,-320,-31,211,-183
29882,834,0,2023-03-01T18:57:46.699280,2056242,917,1547,947,-1037,-571,-320,-31,211,-183
29883,835,0,2023-03-01T18:57:46.704750,2056247,917,1547,947,-1037,-571,-320,-31,211,-183
29884,836,0,2023-03-01T18:57:46.709560,2056252,921,1549,948,-1038,-574,-318,-34,204,-178
29885,837,0,2023-03-01T18:57:46.715481,2056258,921,1549,948,-1038,-574,-318,-34,204,-178
29886,838,0,2023-03-01T18:57:46.721391,2056263,921,1549,948,-1038,-574,-318,-34,204,-178
29887,839,0,2023-03-01T18:57:46.727345,2056269,921,1549,948,-1038,-574,-318,-34,204,-178
29888,840,0,2023-03-01T18:57:46.732505,2056274,921,1550,948,-1039,-579,-317,-34,204,-178
29889,841,0,2023-03-01T18:57:46.739998,2056282,921,1550,948,-1039,-579,-317,-34,204,-178
29890,842,0,2023-03-01T18:57:46.744642,2056287,921,1550,948,-1039,-579,-317,-34,204,-178
29891,843,0,2023-03-01T18:57:46.749203,2056292,919,1546,942,-1042,-582,-321,-34,204,-178
29892,844,0,2023-03-01T18:57:46.754942,2056297,919,1546,942,-1042,-582,-321,-34,204,-178
29893,845,0,2023-03-01T18:57:46.760562,2056303,919,1546,942,-1042,-582,-321,-34,204,-178
29894,846,0,2023-03-01T18:57:46.766169,2056308,919,1546,942,-1042,-582,-321,-34,204,-178
29895,847,0,2023-03-01T18:57:46.771200,2056313,917,1550,941,-1039,-569,-323,-34,204,-178
29896,848,0,2023-03-01T18:57:46.777008,2056320,917,1550,941,-1039,-569,-323,-34,204,-178
29897,849,0,2023-03-01T18:57:46.781730,2056324,917,1550,941,-1039,-569,-323,-34,204,-178
29898,850,0,2023-03-01T18:57:46.786879,2056329,917,1550,941,-1039,-569,-323,-34,204,-178
29899,851,0,2023-03-01T18:57:46.791938,2056334,920,1547,946,-1042,-576,-321,-34,204,-178
29900,852,0,2023-03-01T18:57:46.797702,2056340,920,1547,946,-1042,-576,-321,-34,204,-178
29901,853,0,2023-03-01T18:57:46.803241,2056345,920,1547,946,-1042,-576,-321,-34,204,-178
29902,854,0,2023-03-01T18:57:46.808782,2056351,919,1548,942,-1049,-573,-318,-34,204,-178
29903,855,0,2023-03-01T18:57:46.814635,2056356,919,1548,942,-1049,-573,-318,-34,204,-178
29904,856,0,2023-03-01T18:57:46.820252,2056363,919,1548,942,-1049,-573,-318,-34,204,-178
29905,857,0,2023-03-01T18:57:46.826556,2056369,919,1548,942,-1049,-573,-318,-34,204,-178
29906,858,0,2023-03-01T18:57:46.831466,2056374,919,1551,947,-1041,-572,-321,-37,207,-189
29907,859,0,2023-03-01T18:57:46.836714,2056379,919,1551,947,-1041,-572,-321,-37,207,-189
29908,860,0,2023-03-01T18:57:46.841812,2056384,919,1551,947,-1041,-572,-321,-37,207,-189
29909,861,0,2023-03-01T18:57:46.847974,2056389,919,1551,947,-1041,-572,-321,-37,207,-189
29910,862,0,2023-03-01T18:57:46.852901,2056395,917,1548,948,-1037,-567,-319,-37,207,-189
29911,863,0,2023-03-01T18:57:46.859085,2056401,917,1548,948,-1037,-567,-319,-37,207,-189
29912,864,0,2023-03-01T18:57:46.863774,2056406,917,1548,948,-1037,-567,-319,-37,207,-189
29913,865,0,2023-03-01T18:57:46.871112,2056413,920,1544,947,-1028,-566,-318,-37,207,-189
29914,866,0,2023-03-01T18:57:46.877315,2056419,920,1544,947,-1028,-566,-318,-37,207,-189
29915,867,0,2023-03-01T18:57:46.883097,2056425,920,1544,947,-1028,-566,-318,-37,207,-189
29916,868,0,2023-03-01T18:57:46.888131,2056430,920,1544,947,-1028,-566,-318,-37,207,-189
29917,869,0,2023-03-01T18:57:46.893226,2056435,921,1546,945,-1044,-574,-317,-37,207,-189
29918,870,0,2023-03-01T18:57:46.898883,2056441,921,1546,945,-1044,-574,-317,-37,207,-189
29919,871,0,2023-03-01T18:57:46.903527,2056445,921,1546,945,-1044,-574,-317,-37,207,-189
29920,872,0,2023-03-01T18:57:46.908657,2056451,921,1546,945,-1044,-574,-317,-37,207,-189
29921,873,0,2023-03-01T18:57:46.913571,2056456,921,1547,950,-1045,-579,-320,-37,207,-189
29922,874,0,2023-03-01T18:57:46.919750,2056462,921,1547,950,-1045,-579,-320,-37,207,-189
29923,875,0,2023-03-01T18:57:46.925218,2056467,921,1547,950,-1045,-579,-320,-37,207,-189
29924,876,0,2023-03-01T18:57:46.930556,2056473,920,1545,943,-1037,-575,-314,-37,207,-189
29925,877,0,2023-03-01T18:57:46.935171,2056477,920,1545,943,-1037,-575,-314,-37,207,-189
29926,878,0,2023-03-01T18:57:46.940723,2056483,920,1545,943,-1037,-575,-314,-37,207,-189
29927,879,0,2023-03-01T18:57:46.945531,2056487,920,1545,943,-1037,-575,-314,-37,207,-189
29928,880,0,2023-03-01T18:57:46.950715,2056493,919,1547,945,-1038,-581,-320,-37,207,-189
29929,881,0,2023-03-01T18:57:46.956876,2056499,919,1547,945,-1038,-581,-320,-37,207,-189
29930,882,0,2023-03-01T18:57:46.962392,2056505,919,1547,945,-1038,-581,-320,-37,207,-189
29931,883,0,2023-03-01T18:57:46.967579,2056510,919,1547,945,-1038,-581,-320,-37,207,-189
29932,884,0,2023-03-01T18:57:46.972725,2056515,916,1547,949,-1039,-578,-313,-36,202,-188
29933,885,0,2023-03-01T18:57:46.979005,2056521,916,1547,949,-1039,-578,-313,-36,202,-188
29934,886,0,2023-03-01T18:57:46.983998,2056526,916,1547,949,-1039,-578,-313,-36,202,-188
29935,887,0,2023-03-01T18:57:46.989059,2056530,916,1546,946,-1038,-578,-315,-36,202,-188
29936,888,0,2023-03-01T18:57:46.994901,2056537,916,1546,946,-1038,-578,-315,-36,202,-188
29937,889,0,2023-03-01T18:57:47.000452,2056543,916,1546,946,-1038,-578,-315,-36,202,-188
29938,890,0,2023-03-01T18:57:47.005982,2056548,916,1546,946,-1038,-578,-315,-36,202,-188
29939,891,0,2023-03-01T18:57:47.010776,2056553,922,1546,950,-1039,-579,-321,-36,202,-188
29940,892,0,2023-03-01T18:57:47.016195,2056558,922,1546,950,-1039,-579,-321,-36,202,-188
29941,893,0,2023-03-01T18:57:47.021575,2056563,922,1546,950,-1039,-579,-321,-36,202,-188
29942,894,0,2023-03-01T18:57:47.027677,2056569,922,1546,950,-1039,-579,-321,-36,202,-188
29943,895,0,2023-03-01T18:57:47.032270,2056574,917,1548,949,-1043,-576,-311,-36,202,-188
29944,896,0,2023-03-01T18:57:47.038906,2056581,917,1548,949,-1043,-576,-311,-36,202,-188
29945,897,0,2023-03-01T18:57:47.043695,2056586,917,1548,949,-1043,-576,-311,-36,202,-188
29946,898,0,2023-03-01T18:57:47.048756,2056591,918,1544,944,-1034,-572,-316,-36,202,-188
29947,899,0,2023-03-01T18:57:47.054472,2056596,918,1544,944,-1034,-572,-316,-36,202,-188
29948,900,0,2023-03-01T18:57:47.061082,2056603,918,1544,944,-1034,-572,-316,-36,202,-188
29949,901,0,2023-03-01T18:57:47.065775,2056608,918,1544,944,-1034,-572,-316,-36,202,-188
29950,902,0,2023-03-01T18:57:47.070306,2056612,917,1547,948,-1031,-572,-314,-36,202,-188
29951,903,0,2023-03-01T18:57:47.075727,2056617,917,1547,948,-1031,-572,-314,-36,202,-188
29952,904,0,2023-03-01T18:57:47.081566,2056624,917,1547,948,-1031,-572,-314,-36,202,-188
29953,905,0,2023-03-01T18:57:47.088400,2056631,917,1547,948,-1031,-572,-314,-36,202,-188
29954,906,0,2023-03-01T18:57:47.093074,2056635,917,1551,949,-1034,-577,-318,-35,209,-183
29955,907,0,2023-03-01T18:57:47.099152,2056641,917,1551,949,-1034,-577,-318,-35,209,-183
29956,908,0,2023-03-01T18:57:47.104261,2056646,917,1551,949,-1034,-577,-318,-35,209,-183
29957,909,0,2023-03-01T18:57:47.109168,2056651,916,1548,946,-1035,-576,-326,-35,209,-183
29958,910,0,2023-03-01T18:57:47.114924,2056656,916,1548,946,-1035,-576,-326,-35,209,-183
29959,911,0,2023-03-01T18:57:47.120530,2056663,916,1548,946,-1035,-576,-326,-35,209,-183
29960,912,0,2023-03-01T18:57:47.125298,2056668,916,1548,946,-1035,-576,-326,-35,209,-183
29961,913,0,2023-03-01T18:57:47.130941,2056672,918,1549,944,-1038,-582,-322,-35,209,-183
29962,914,0,2023-03-01T18:57:47.136434,2056679,918,1549,944,-1038,-582,-322,-35,209,-183
29963,915,0,2023-03-01T18:57:47.142271,2056684,918,1549,944,-1038,-582,-322,-35,209,-183
29964,916,0,2023-03-01T18:57:47.147985,2056690,918,1549,944,-1038,-582,-322,-35,209,-183
29965,917,0,2023-03-01T18:57:47.152754,2056695,921,1549,948,-1045,-579,-314,-35,209,-183
29966,918,0,2023-03-01T18:57:47.158369,2056700,921,1549,948,-1045,-579,-314,-35,209,-183
29967,919,0,2023-03-01T18:57:47.163313,2056706,921,1549,948,-1045,-579,-314,-35,209,-183
29968,920,0,2023-03-01T18:57:47.168011,2056710,921,1549,948,-1045,-579,-314,-35,209,-183
29969,921,0,2023-03-01T18:57:47.173129,2056715,917,1549,947,-1050,-576,-317,-35,209,-183
29970,922,0,2023-03-01T18:57:47.179019,2056721,917,1549,947,-1050,-576,-317,-35,209,-183
29971,923,0,2023-03-01T18:57:47.183864,2056726,917,1549,947,-1050,-576,-317,-35,209,-183
29972,924,0,2023-03-01T18:57:47.188891,2056731,917,1549,947,-1050,-576,-317,-35,209,-183
29973,925,0,2023-03-01T18:57:47.195042,2056736,918,1547,948,-1040,-567,-316,-35,209,-183
29974,926,0,2023-03-01T18:57:47.205621,2056748,918,1547,948,-1040,-567,-316,-35,209,-183
29975,927,0,2023-03-01T18:57:47.210745,2056753,914,1548,948,-1043,-573,-319,-36,210,-182
29976,928,0,2023-03-01T18:57:47.216116,2056758,914,1548,948,-1043,-573,-319,-36,210,-182
29977,929,0,2023-03-01T18:57:47.221838,2056764,914,1548,948,-1043,-573,-319,-36,210,-182
29978,930,0,2023-03-01T18:57:47.226955,2056769,914,1548,948,-1043,-573,-319,-36,210,-182
