,Unnamed: 0,imu,server_time,arduino_time,ax,ay,az,gx,gy,gz,mx,my,mz
32243,3195,0,2023-03-01T18:57:59.801743,2069344,1416,1749,-879,-1038,-571,-317,-61,149,-283
32244,3196,0,2023-03-01T18:57:59.808183,2069350,1416,1749,-879,-1038,-571,-317,-61,149,-283
32245,3197,0,2023-03-01T18:57:59.813407,2069356,1416,1749,-879,-1038,-571,-317,-61,149,-283
32246,3198,0,2023-03-01T18:57:59.819623,2069362,1416,1749,-879,-1038,-571,-317,-61,149,-283
32247,3199,0,2023-03-01T18:57:59.825177,2069367,1413,1750,-878,-1047,-574,-321,-61,149,-283
32248,3200,0,2023-03-01T18:57:59.830860,2069373,1413,1750,-878,-1047,-574,-321,-64,150,-284
32249,3201,0,2023-03-01T18:57:59.836384,2069380,1413,1750,-878,-1047,-574,-321,-64,150,-284
32250,3202,0,2023-03-01T18:57:59.843152,2069385,1413,1750,-878,-1047,-574,-321,-64,150,-284
32251,3203,0,2023-03-01T18:57:59.848478,2069391,1414,1752,-881,-1039,-572,-324,-64,150,-284
32252,3204,0,2023-03-01T18:57:59.854792,2069397,1414,1752,-881,-1039,-572,-324,-64,150,-284
32253,3205,0,2023-03-01T18:57:59.859627,2069402,1414,1752,-881,-1039,-572,-324,-64,150,-284
32254,3206,0,2023-03-01T18:57:59.864499,2069407,1414,1752,-881,-1039,-572,-324,-64,150,-284
32255,3207,0,2023-03-01T18:57:59.869591,2069412,1416,1751,-877,-1028,-567,-318,-64,150,-284
32256,3208,0,2023-03-01T18:57:59.877197,2069419,1416,1751,-877,-1028,-567,-318,-64,150,-284
32257,3209,0,2023-03-01T18:57:59.883029,2069426,1416,1751,-877,-1028,-567,-318,-64,150,-284
32258,3210,0,2023-03-01T18:57:59.888915,2069432,1413,1749,-883,-1036,-574,-313,-64,150,-284
32259,3211,0,2023-03-01T18:57:59.894882,2069437,1413,1749,-883,-1036,-574,-313,-64,150,-284
32260,3212,0,2023-03-01T18:57:59.900042,2069443,1413,1749,-883,-1036,-574,-313,-64,150,-284
32261,3213,0,2023-03-01T18:57:59.906027,2069448,1413,1749,-876,-1037,-574,-320,-64,150,-284
32262,3214,0,2023-03-01T18:57:59.912020,2069454,1413,1749,-876,-1037,-574,-320,-64,150,-284
32263,3215,0,2023-03-01T18:57:59.919346,2069463,1413,1749,-876,-1037,-574,-320,-64,150,-284
32264,3216,0,2023-03-01T18:57:59.925094,2069468,1416,1751,-885,-1042,-570,-324,-64,150,-284
32265,3217,0,2023-03-01T18:57:59.930360,2069474,1416,1751,-885,-1042,-570,-324,-64,150,-284
32266,3218,0,2023-03-01T18:57:59.935053,2069478,1416,1751,-885,-1042,-570,-324,-64,150,-284
32267,3219,0,2023-03-01T18:57:59.941023,2069484,1416,1751,-885,-1042,-570,-324,-64,150,-284
32268,3220,0,2023-03-01T18:57:59.946643,2069489,1416,1748,-882,-1048,-573,-314,-64,150,-284
32269,3221,0,2023-03-01T18:57:59.952307,2069495,1416,1748,-882,-1048,-573,-314,-64,150,-284
32270,3222,0,2023-03-01T18:57:59.957140,2069500,1416,1748,-882,-1048,-573,-314,-64,150,-284
32271,3223,0,2023-03-01T18:57:59.962656,2069505,1416,1748,-882,-1048,-573,-314,-64,150,-284
32272,3224,0,2023-03-01T18:57:59.967899,2069511,1416,1747,-879,-1043,-575,-312,-54,150,-290
32273,3225,0,2023-03-01T18:57:59.973551,2069516,1416,1747,-879,-1043,-575,-312,-54,150,-290
32274,3226,0,2023-03-01T18:57:59.978614,2069521,1416,1747,-879,-1043,-575,-312,-54,150,-290
32275,3227,0,2023-03-01T18:57:59.984347,2069527,1416,1747,-879,-1043,-575,-312,-54,150,-290
32276,3228,0,2023-03-01T18:57:59.989689,2069532,1418,1750,-883,-1040,-570,-321,-54,150,-290
32277,3229,0,2023-03-01T18:57:59.995602,2069538,1418,1750,-883,-1040,-570,-321,-54,150,-290
32278,3230,0,2023-03-01T18:58:00.000859,2069543,1418,1750,-883,-1040,-570,-321,-54,150,-290
32279,3231,0,2023-03-01T18:58:00.006552,2069549,1415,1750,-883,-1041,-575,-319,-54,150,-290
32280,3232,0,2023-03-01T18:58:00.013100,2069556,1415,1750,-883,-1041,-575,-319,-54,150,-290
32281,3233,0,2023-03-01T18:58:00.019132,2069562,1415,1750,-883,-1041,-575,-319,-54,150,-290
32282,3234,0,2023-03-01T18:58:00.025189,2069568,1415,1750,-883,-1041,-575,-319,-54,150,-290
32283,3235,0,2023-03-01T18:58:00.030209,2069573,1417,1749,-883,-1049,-581,-321,-54,150,-290
32284,3236,0,2023-03-01T18:58:00.035791,2069578,1417,1749,-883,-1049,-581,-321,-54,150,-290
32285,3237,0,2023-03-01T18:58:00.040365,2069583,1417,1749,-883,-1049,-581,-321,-54,150,-290
32286,3238,0,2023-03-01T18:58:00.046119,2069588,1413,1748,-880,-1045,-577,-324,-54,150,-290
32287,3239,0,2023-03-01T18:58:00.051852,2069595,1413,1748,-880,-1045,-577,-324,-54,150,-290
32288,3240,0,2023-03-01T18:58:00.057600,2069601,1413,1748,-880,-1045,-577,-324,-54,150,-290
32289,3241,0,2023-03-01T18:58:00.062764,2069606,1413,1748,-880,-1045,-577,-324,-54,150,-290
32290,3242,0,2023-03-01T18:58:00.068031,2069611,1412,1750,-887,-1034,-573,-313,-54,150,-290
32291,3243,0,2023-03-01T18:58:00.073563,2069616,1412,1750,-887,-1034,-573,-313,-54,150,-290
32292,3244,0,2023-03-01T18:58:00.078849,2069621,1412,1750,-887,-1034,-573,-313,-54,150,-290
32293,3245,0,2023-03-01T18:58:00.084183,2069627,1412,1750,-887,-1034,-573,-313,-54,150,-290
32294,3246,0,2023-03-01T18:58:00.089220,2069633,1414,1749,-877,-1049,-574,-325,-52,154,-298
32295,3247,0,2023-03-01T18:58:00.095085,2069638,1414,1749,-877,-1049,-574,-325,-52,154,-298
32296,3248,0,2023-03-01T18:58:00.099851,2069643,1414,1749,-877,-1049,-574,-325,-52,154,-298
32297,3249,0,2023-03-01T18:58:00.105453,2069648,1419,1750,-877,-1044,-566,-322,-52,154,-298
32298,3250,0,2023-03-01T18:58:00.111136,2069654,1419,1750,-877,-1044,-566,-322,-52,154,-298
32299,3251,0,2023-03-01T18:58:00.115905,2069658,1419,1750,-877,-1044,-566,-322,-52,154,-298
32300,3252,0,2023-03-01T18:58:00.120700,2069663,1419,1750,-877,-1044,-566,-322,-52,154,-298
32301,3253,0,2023-03-01T18:58:00.125899,2069669,1416,1747,-879,-1035,-564,-314,-52,154,-298
32302,3254,0,2023-03-01T18:58:00.131446,2069673,1416,1747,-879,-1035,-564,-314,-52,154,-298
32303,3255,0,2023-03-01T18:58:00.138642,2069681,1416,1747,-879,-1035,-564,-314,-52,154,-298
32304,3256,0,2023-03-01T18:58:00.144343,2069687,1416,1747,-879,-1035,-564,-314,-52,154,-298
32305,3257,0,2023-03-01T18:58:00.149273,2069692,1415,1748,-883,-1039,-566,-319,-52,154,-298
32306,3258,0,2023-03-01T18:58:00.154557,2069697,1415,1748,-883,-1039,-566,-319,-52,154,-298
32307,3259,0,2023-03-01T18:58:00.159977,2069702,1415,1748,-883,-1039,-566,-319,-52,154,-298
32308,3260,0,2023-03-01T18:58:00.165854,2069708,1416,1749,-884,-1038,-573,-323,-52,154,-298
32309,3261,0,2023-03-01T18:58:00.171237,2069714,1416,1749,-884,-1038,-573,-323,-52,154,-298
32310,3262,0,2023-03-01T18:58:00.176159,2069719,1416,1749,-884,-1038,-573,-323,-52,154,-298
32311,3263,0,2023-03-01T18:58:00.181047,2069724,1416,1749,-884,-1038,-573,-323,-52,154,-298
32312,3264,0,2023-03-01T18:58:00.186915,2069730,1413,1748,-887,-1037,-572,-321,-52,154,-298
32313,3265,0,2023-03-01T18:58:00.192464,2069735,1413,1748,-887,-1037,-572,-321,-52,154,-298
32314,3266,0,2023-03-01T18:58:00.198268,2069741,1413,1748,-887,-1037,-572,-321,-52,154,-298
32315,3267,0,2023-03-01T18:58:00.204099,2069746,1413,1748,-887,-1037,-572,-321,-52,154,-298
32316,3268,0,2023-03-01T18:58:00.209036,2069752,1416,1749,-886,-1034,-575,-326,-60,156,-286
32317,3269,0,2023-03-01T18:58:00.214524,2069757,1416,1749,-886,-1034,-575,-326,-60,156,-286
32318,3270,0,2023-03-01T18:58:00.219710,2069763,1416,1749,-886,-1034,-575,-326,-60,156,-286
32319,3271,0,2023-03-01T18:58:00.225656,2069769,1415,1750,-876,-1036,-571,-323,-60,156,-286
32320,3272,0,2023-03-01T18:58:00.231202,2069774,1415,1750,-876,-1036,-571,-323,-60,156,-286
32321,3273,0,2023-03-01T18:58:00.236330,2069779,1415,1750,-876,-1036,-571,-323,-60,156,-286
32322,3274,0,2023-03-01T18:58:00.241317,2069784,1415,1750,-876,-1036,-571,-323,-60,156,-286
32323,3275,0,2023-03-01T18:58:00.247261,2069790,1417,1751,-882,-1047,-577,-320,-60,156,-286
32324,3276,0,2023-03-01T18:58:00.252820,2069795,1417,1751,-882,-1047,-577,-320,-60,156,-286
32325,3277,0,2023-03-01T18:58:00.257546,2069800,1417,1751,-882,-1047,-577,-320,-60,156,-286
32326,3278,0,2023-03-01T18:58:00.262211,2069806,1417,1751,-882,-1047,-577,-320,-60,156,-286
32327,3279,0,2023-03-01T18:58:00.267685,2069810,1417,1750,-879,-1041,-574,-324,-60,156,-286
32328,3280,0,2023-03-01T18:58:00.273353,2069816,1417,1750,-879,-1041,-574,-324,-60,156,-286
32329,3281,0,2023-03-01T18:58:00.279619,2069822,1417,1750,-879,-1041,-574,-324,-60,156,-286
32330,3282,0,2023-03-01T18:58:00.284371,2069827,1417,1750,-879,-1041,-574,-324,-60,156,-286
32331,3283,0,2023-03-01T18:58:00.290243,2069832,1414,1748,-878,-1036,-572,-319,-60,156,-286
32332,3284,0,2023-03-01T18:58:00.296123,2069838,1414,1748,-878,-1036,-572,-319,-60,156,-286
32333,3285,0,2023-03-01T18:58:00.301589,2069844,1414,1748,-878,-1036,-572,-319,-60,156,-286
32334,3286,0,2023-03-01T18:58:00.307318,2069851,1415,1751,-879,-1039,-567,-314,-60,156,-286
32335,3287,0,2023-03-01T18:58:00.312675,2069856,1415,1751,-879,-1039,-567,-314,-60,156,-286
32336,3288,0,2023-03-01T18:58:00.317838,2069861,1415,1751,-879,-1039,-567,-314,-60,156,-286
32337,3289,0,2023-03-01T18:58:00.323684,2069866,1415,1751,-879,-1039,-567,-314,-60,156,-286
32338,3290,0,2023-03-01T18:58:00.329216,2069871,1414,1750,-876,-1047,-574,-322,-60,156,-286
32339,3291,0,2023-03-01T18:58:00.334859,2069877,1414,1750,-876,-1047,-574,-322,-60,156,-286
32340,3292,0,2023-03-01T18:58:00.340544,2069883,1414,1750,-876,-1047,-574,-322,-60,156,-286
32341,3293,0,2023-03-01T18:58:00.345993,2069889,1415,1752,-877,-1045,-578,-309,-60,150,-292
32342,3294,0,2023-03-01T18:58:00.351880,2069895,1415,1752,-877,-1045,-578,-309,-60,150,-292
32343,3295,0,2023-03-01T18:58:00.357962,2069901,1415,1752,-877,-1045,-578,-309,-60,150,-292
32344,3296,0,2023-03-01T18:58:00.363907,2069907,1415,1752,-877,-1045,-578,-309,-60,150,-292
32345,3297,0,2023-03-01T18:58:00.368896,2069912,1416,1750,-874,-1040,-570,-314,-60,150,-292
32346,3298,0,2023-03-01T18:58:00.374715,2069917,1416,1750,-874,-1040,-570,-314,-60,150,-292
32347,3299,0,2023-03-01T18:58:00.380765,2069923,1416,1750,-874,-1040,-570,-314,-60,150,-292
32348,3300,0,2023-03-01T18:58:00.386788,2069929,1417,1749,-880,-1033,-569,-321,-60,150,-292
32349,3301,0,2023-03-01T18:58:00.392144,2069935,1417,1749,-880,-1033,-569,-321,-60,150,-292
32350,3302,0,2023-03-01T18:58:00.397617,2069940,1417,1749,-880,-1033,-569,-321,-60,150,-292
32351,3303,0,2023-03-01T18:58:00.403156,2069946,1417,1749,-880,-1033,-569,-321,-60,150,-292
32352,3304,0,2023-03-01T18:58:00.407890,2069951,1415,1750,-881,-1039,-567,-317,-60,150,-292
32353,3305,0,2023-03-01T18:58:00.413652,2069956,1415,1750,-881,-1039,-567,-317,-60,150,-292
32354,3306,0,2023-03-01T18:58:00.419430,2069962,1415,1750,-881,-1039,-567,-317,-60,150,-292
32355,3307,0,2023-03-01T18:58:00.425083,2069968,1415,1750,-881,-1039,-567,-317,-60,150,-292
32356,3308,0,2023-03-01T18:58:00.430334,2069972,1415,1748,-875,-1039,-571,-317,-60,150,-292
32357,3309,0,2023-03-01T18:58:00.435849,2069979,1415,1748,-875,-1039,-571,-317,-60,150,-292
32358,3310,0,2023-03-01T18:58:00.441007,2069984,1415,1748,-875,-1039,-571,-317,-60,150,-292
32359,3311,0,2023-03-01T18:58:00.447131,2069990,1414,1750,-880,-1036,-569,-320,-60,150,-292
32360,3312,0,2023-03-01T18:58:00.452740,2069996,1414,1750,-880,-1036,-569,-320,-60,150,-292
32361,3313,0,2023-03-01T18:58:00.457509,2070000,1414,1750,-880,-1036,-569,-320,-60,150,-292
32362,3314,0,2023-03-01T18:58:00.464052,2070006,1414,1750,-880,-1036,-569,-320,-60,150,-292
32363,3315,0,2023-03-01T18:58:00.469513,2070012,1411,1751,-883,-1039,-577,-327,-66,152,-292
32364,3316,0,2023-03-01T18:58:00.475108,2070019,1411,1751,-883,-1039,-577,-327,-66,152,-292
32365,3317,0,2023-03-01T18:58:00.479926,2070023,1411,1751,-883,-1039,-577,-327,-66,152,-292
32366,3318,0,2023-03-01T18:58:00.485162,2070028,1411,1751,-883,-1039,-577,-327,-66,152,-292
32367,3319,0,2023-03-01T18:58:00.490125,2070033,1418,1751,-875,-1044,-574,-320,-66,152,-292
32368,3320,0,2023-03-01T18:58:00.496152,2070039,1418,1751,-875,-1044,-574,-320,-66,152,-292
32369,3321,0,2023-03-01T18:58:00.501990,2070045,1418,1751,-875,-1044,-574,-320,-66,152,-292
32370,3322,0,2023-03-01T18:58:00.507406,2070050,1415,1750,-879,-1044,-571,-325,-66,152,-292
32371,3323,0,2023-03-01T18:58:00.512783,2070055,1415,1750,-879,-1044,-571,-325,-66,152,-292
32372,3324,0,2023-03-01T18:58:00.517525,2070061,1415,1750,-879,-1044,-571,-325,-66,152,-292
32373,3325,0,2023-03-01T18:58:00.523445,2070067,1415,1750,-879,-1044,-571,-325,-66,152,-292
32374,3326,0,2023-03-01T18:58:00.528497,2070071,1414,1751,-881,-1046,-568,-319,-66,152,-292
32375,3327,0,2023-03-01T18:58:00.534341,2070077,1414,1751,-881,-1046,-568,-319,-66,152,-292
32376,3328,0,2023-03-01T18:58:00.540162,2070083,1414,1751,-881,-1046,-568,-319,-66,152,-292
32377,3329,0,2023-03-01T18:58:00.545694,2070088,1412,1748,-877,-1039,-573,-311,-66,152,-292
32378,3330,0,2023-03-01T18:58:00.551718,2070094,1412,1748,-877,-1039,-573,-311,-66,152,-292
32379,3331,0,2023-03-01T18:58:00.556478,2070099,1412,1748,-877,-1039,-573,-311,-66,152,-292
32380,3332,0,2023-03-01T18:58:00.561888,2070105,1412,1748,-877,-1039,-573,-311,-66,152,-292
32381,3333,0,2023-03-01T18:58:00.566570,2070110,1413,1750,-881,-1044,-579,-321,-66,152,-292
32382,3334,0,2023-03-01T18:58:00.572607,2070115,1413,1750,-881,-1044,-579,-321,-66,152,-292
32383,3335,0,2023-03-01T18:58:00.579202,2070122,1413,1750,-881,-1044,-579,-321,-66,152,-292
32384,3336,0,2023-03-01T18:58:00.584719,2070127,1413,1750,-881,-1044,-579,-321,-66,152,-292
32385,3337,0,2023-03-01T18:58:00.589915,2070132,1416,1751,-879,-1044,-573,-320,-66,152,-292
32386,3338,0,2023-03-01T18:58:00.595447,2070138,1416,1751,-879,-1044,-573,-320,-66,152,-292
32387,3339,0,2023-03-01T18:58:00.600088,2070144,1416,1751,-879,-1044,-573,-320,-66,152,-292
32388,3340,0,2023-03-01T18:58:00.605723,2070149,1416,1751,-879,-1044,-573,-320,-66,152,-292
32389,3341,0,2023-03-01T18:58:00.610774,2070154,1414,1751,-878,-1036,-574,-324,-55,155,-285
32390,3342,0,2023-03-01T18:58:00.616535,2070159,1414,1751,-878,-1036,-574,-324,-55,155,-285
32391,3343,0,2023-03-01T18:58:00.622440,2070165,1414,1751,-878,-1036,-574,-324,-55,155,-285
32392,3344,0,2023-03-01T18:58:00.627579,2070170,1417,1749,-879,-1041,-573,-322,-55,155,-285
32393,3345,0,2023-03-01T18:58:00.633195,2070176,1417,1749,-879,-1041,-573,-322,-55,155,-285
32394,3346,0,2023-03-01T18:58:00.638214,2070180,1417,1749,-879,-1041,-573,-322,-55,155,-285
32395,3347,0,2023-03-01T18:58:00.644147,2070188,1417,1749,-879,-1041,-573,-322,-55,155,-285
32396,3348,0,2023-03-01T18:58:00.649081,2070192,1417,1750,-883,-1039,-572,-316,-55,155,-285
32397,3349,0,2023-03-01T18:58:00.654626,2070198,1417,1750,-883,-1039,-572,-316,-55,155,-285
32398,3350,0,2023-03-01T18:58:00.659847,2070203,1417,1750,-883,-1039,-572,-316,-55,155,-285
32399,3351,0,2023-03-01T18:58:00.665629,2070208,1417,1750,-883,-1039,-572,-316,-55,155,-285
32400,3352,0,2023-03-01T18:58:00.670318,2070213,1418,1751,-881,-1039,-576,-316,-55,155,-285
32401,3353,0,2023-03-01T18:58:00.675851,2070218,1418,1751,-881,-1039,-576,-316,-55,155,-285
32402,3354,0,2023-03-01T18:58:00.681053,2070223,1418,1751,-881,-1039,-576,-316,-55,155,-285
32403,3355,0,2023-03-01T18:58:00.686820,2070230,1413,1749,-877,-1040,-570,-315,-55,155,-285
32404,3356,0,2023-03-01T18:58:00.692319,2070236,1413,1749,-877,-1040,-570,-315,-55,155,-285
32405,3357,0,2023-03-01T18:58:00.698307,2070241,1413,1749,-877,-1040,-570,-315,-55,155,-285
32406,3358,0,2023-03-01T18:58:00.703893,2070247,1413,1749,-877,-1040,-570,-315,-55,155,-285
32407,3359,0,2023-03-01T18:58:00.708643,2070251,1413,1750,-879,-1038,-574,-318,-55,155,-285
32408,3360,0,2023-03-01T18:58:00.714021,2070257,1413,1750,-879,-1038,-574,-318,-55,155,-285
32409,3361,0,2023-03-01T18:58:00.718646,2070261,1413,1750,-879,-1038,-574,-318,-55,155,-285
32410,3362,0,2023-03-01T18:58:00.724391,2070267,1413,1750,-879,-1038,-574,-318,-55,155,-285
32411,3363,0,2023-03-01T18:58:00.729602,2070273,1414,1750,-875,-1044,-575,-318,-59,155,-283
32412,3364,0,2023-03-01T18:58:00.735209,2070278,1414,1750,-875,-1044,-575,-318,-59,155,-283
32413,3365,0,2023-03-01T18:58:00.739854,2070283,1414,1750,-875,-1044,-575,-318,-59,155,-283
32414,3366,0,2023-03-01T18:58:00.745294,2070288,1414,1750,-875,-1044,-575,-318,-59,155,-283
32415,3367,0,2023-03-01T18:58:00.750413,2070293,1412,1747,-881,-1039,-569,-325,-59,155,-283
32416,3368,0,2023-03-01T18:58:00.756332,2070299,1412,1747,-881,-1039,-569,-325,-59,155,-283
32417,3369,0,2023-03-01T18:58:00.762147,2070305,1412,1747,-881,-1039,-569,-325,-59,155,-283
32418,3370,0,2023-03-01T18:58:00.766856,2070310,1418,1750,-882,-1040,-568,-320,-59,155,-283
32419,3371,0,2023-03-01T18:58:00.772425,2070316,1418,1750,-882,-1040,-568,-320,-59,155,-283
32420,3372,0,2023-03-01T18:58:00.777716,2070321,1418,1750,-882,-1040,-568,-320,-59,155,-283
32421,3373,0,2023-03-01T18:58:00.783528,2070327,1418,1750,-882,-1040,-568,-320,-59,155,-283
32422,3374,0,2023-03-01T18:58:00.788629,2070332,1416,1747,-879,-1049,-569,-319,-59,155,-283
32423,3375,0,2023-03-01T18:58:00.794505,2070337,1416,1747,-879,-1049,-569,-319,-59,155,-283
32424,3376,0,2023-03-01T18:58:00.800682,2070343,1416,1747,-879,-1049,-569,-319,-59,155,-283
32425,3377,0,2023-03-01T18:58:00.805499,2070348,1416,1747,-879,-1049,-569,-319,-59,155,-283
32426,3378,0,2023-03-01T18:58:00.810575,2070353,1415,1750,-877,-1048,-570,-310,-59,155,-283
32427,3379,0,2023-03-01T18:58:00.816160,2070359,1415,1750,-877,-1048,-570,-310,-59,155,-283
32428,3380,0,2023-03-01T18:58:00.821839,2070365,1415,1750,-877,-1048,-570,-310,-59,155,-283
32429,3381,0,2023-03-01T18:58:00.827575,2070371,1416,1748,-874,-1035,-574,-316,-59,155,-283
32430,3382,0,2023-03-01T18:58:00.832903,2070376,1416,1748,-874,-1035,-574,-316,-59,155,-283
32431,3383,0,2023-03-01T18:58:00.838240,2070380,1416,1748,-874,-1035,-574,-316,-59,155,-283
32432,3384,0,2023-03-01T18:58:00.844761,2070387,1416,1748,-874,-1035,-574,-316,-59,155,-283
32433,3385,0,2023-03-01T18:58:00.849722,2070392,1416,1748,-882,-1035,-573,-314,-59,155,-283
32434,3386,0,2023-03-01T18:58:00.855236,2070397,1416,1748,-882,-1035,-573,-314,-59,155,-283
32435,3387,0,2023-03-01T18:58:00.860811,2070404,1416,1748,-882,-1035,-573,-314,-59,155,-283
32436,3388,0,2023-03-01T18:58:00.866608,2070409,1414,1748,-875,-1042,-574,-321,-67,149,-287
32437,3389,0,2023-03-01T18:58:00.872673,2070416,1414,1748,-875,-1042,-574,-321,-67,149,-287
32438,3390,0,2023-03-01T18:58:00.878581,2070421,1414,1748,-875,-1042,-574,-321,-67,149,-287
32439,3391,0,2023-03-01T18:58:00.884340,2070427,1414,1748,-875,-1042,-574,-321,-67,149,-287
32440,3392,0,2023-03-01T18:58:00.889713,2070432,1416,1747,-883,-1041,-566,-317,-67,149,-287
32441,3393,0,2023-03-01T18:58:00.895452,2070438,1416,1747,-883,-1041,-566,-317,-67,149,-287
32442,3394,0,2023-03-01T18:58:00.901476,2070444,1416,1747,-883,-1041,-566,-317,-67,149,-287
32443,3395,0,2023-03-01T18:58:00.908504,2070451,1414,1749,-878,-1039,-575,-317,-67,149,-287
32444,3396,0,2023-03-01T18:58:00.914240,2070457,1414,1749,-878,-1039,-575,-317,-67,149,-287
32445,3397,0,2023-03-01T18:58:00.920017,2070463,1414,1749,-878,-1039,-575,-317,-67,149,-287
32446,3398,0,2023-03-01T18:58:00.925729,2070468,1414,1749,-878,-1039,-575,-317,-67,149,-287
32447,3399,0,2023-03-01T18:58:00.930343,2070473,1418,1750,-884,-1030,-576,-321,-67,149,-287
32448,3400,0,2023-03-01T18:58:00.935752,2070478,1418,1750,-884,-1030,-576,-321,-67,149,-287
32449,3401,0,2023-03-01T18:58:00.941283,2070484,1418,1750,-884,-1030,-576,-321,-67,149,-287
32450,3402,0,2023-03-01T18:58:00.946997,2070490,1416,1748,-883,-1036,-568,-322,-67,149,-287
32451,3403,0,2023-03-01T18:58:00.952530,2070496,1416,1748,-883,-1036,-568,-322,-67,149,-287
32452,3404,0,2023-03-01T18:58:00.957237,2070500,1416,1748,-883,-1036,-568,-322,-67,149,-287
32453,3405,0,2023-03-01T18:58:00.962912,2070506,1416,1748,-883,-1036,-568,-322,-67,149,-287
32454,3406,0,2023-03-01T18:58:00.967955,2070511,1416,1750,-884,-1040,-568,-325,-67,149,-287
32455,3407,0,2023-03-01T18:58:00.973289,2070516,1416,1750,-884,-1040,-568,-325,-67,149,-287
32456,3408,0,2023-03-01T18:58:00.979041,2070521,1416,1750,-884,-1040,-568,-325,-67,149,-287
32457,3409,0,2023-03-01T18:58:00.984603,2070528,1416,1750,-884,-1040,-568,-325,-67,149,-287
32458,3410,0,2023-03-01T18:58:00.989449,2070533,1417,1749,-876,-1036,-571,-323,-64,154,-280
32459,3411,0,2023-03-01T18:58:00.995105,2070538,1417,1749,-876,-1036,-571,-323,-64,154,-280
32460,3412,0,2023-03-01T18:58:01.000209,2070543,1417,1749,-876,-1036,-571,-323,-64,154,-280
32461,3413,0,2023-03-01T18:58:01.005742,2070549,1417,1749,-876,-1036,-571,-323,-64,154,-280
32462,3414,0,2023-03-01T18:58:01.010918,2070553,1419,1750,-879,-1030,-564,-315,-64,154,-280
32463,3415,0,2023-03-01T18:58:01.016797,2070559,1419,1750,-879,-1030,-564,-315,-64,154,-280
32464,3416,0,2023-03-01T18:58:01.023544,2070566,1419,1750,-879,-1030,-564,-315,-64,154,-280
32465,3417,0,2023-03-01T18:58:01.029005,2070572,1418,1749,-878,-1037,-574,-319,-64,154,-280
32466,3418,0,2023-03-01T18:58:01.035223,2070578,1418,1749,-878,-1037,-574,-319,-64,154,-280
32467,3419,0,2023-03-01T18:58:01.040694,2070583,1418,1749,-878,-1037,-574,-319,-64,154,-280
32468,3420,0,2023-03-01T18:58:01.046350,2070589,1416,1750,-877,-1048,-571,-318,-64,154,-280
32469,3421,0,2023-03-01T18:58:01.052251,2070595,1416,1750,-877,-1048,-571,-318,-64,154,-280
32470,3422,0,2023-03-01T18:58:01.058296,2070601,1416,1750,-877,-1048,-571,-318,-64,154,-280
32471,3423,0,2023-03-01T18:58:01.064759,2070607,1416,1750,-877,-1048,-571,-318,-64,154,-280
32472,3424,0,2023-03-01T18:58:01.069509,2070612,1415,1751,-882,-1037,-578,-321,-64,154,-280
32473,3425,0,2023-03-01T18:58:01.074959,2070618,1415,1751,-882,-1037,-578,-321,-64,154,-280
32474,3426,0,2023-03-01T18:58:01.080376,2070624,1415,1751,-882,-1037,-578,-321,-64,154,-280
32475,3427,0,2023-03-01T18:58:01.086044,2070629,1415,1751,-882,-1037,-578,-321,-64,154,-280
32476,3428,0,2023-03-01T18:58:01.090975,2070634,1415,1751,-887,-1042,-567,-327,-64,154,-280
32477,3429,0,2023-03-01T18:58:01.096566,2070639,1415,1751,-887,-1042,-567,-327,-64,154,-280
32478,3430,0,2023-03-01T18:58:01.101530,2070644,1415,1751,-887,-1042,-567,-327,-64,154,-280
32479,3431,0,2023-03-01T18:58:01.106457,2070649,1415,1745,-876,-1040,-578,-316,-63,153,-283
32480,3432,0,2023-03-01T18:58:01.112294,2070654,1415,1745,-876,-1040,-578,-316,-63,153,-283
32481,3433,0,2023-03-01T18:58:01.117357,2070660,1415,1745,-876,-1040,-578,-316,-63,153,-283
32482,3434,0,2023-03-01T18:58:01.123510,2070666,1415,1745,-876,-1040,-578,-316,-63,153,-283
32483,3435,0,2023-03-01T18:58:01.128557,2070672,1413,1750,-879,-1041,-576,-320,-63,153,-283
32484,3436,0,2023-03-01T18:58:01.133870,2070677,1413,1750,-879,-1041,-576,-320,-63,153,-283
32485,3437,0,2023-03-01T18:58:01.138660,2070681,1413,1750,-879,-1041,-576,-320,-63,153,-283
32486,3438,0,2023-03-01T18:58:01.144023,2070687,1413,1750,-879,-1041,-576,-320,-63,153,-283
32487,3439,0,2023-03-01T18:58:01.149222,2070692,1416,1750,-877,-1038,-571,-316,-63,153,-283
32488,3440,0,2023-03-01T18:58:01.154660,2070697,1416,1750,-877,-1038,-571,-316,-63,153,-283
32489,3441,0,2023-03-01T18:58:01.160622,2070704,1416,1750,-877,-1038,-571,-316,-63,153,-283
32490,3442,0,2023-03-01T18:58:01.166235,2070709,1416,1750,-877,-1038,-571,-316,-63,153,-283
32491,3443,0,2023-03-01T18:58:01.172101,2070714,1419,1751,-876,-1041,-570,-323,-63,153,-283
32492,3444,0,2023-03-01T18:58:01.178382,2070721,1419,1751,-876,-1041,-570,-323,-63,153,-283
32493,3445,0,2023-03-01T18:58:01.184587,2070727,1419,1751,-876,-1041,-570,-323,-63,153,-283
32494,3446,0,2023-03-01T18:58:01.189217,2070732,1418,1751,-885,-1035,-579,-324,-63,153,-283
32495,3447,0,2023-03-01T18:58:01.194472,2070737,1418,1751,-885,-1035,-579,-324,-63,153,-283
32496,3448,0,2023-03-01T18:58:01.199666,2070743,1418,1751,-885,-1035,-579,-324,-63,153,-283
32497,3449,0,2023-03-01T18:58:01.205638,2070749,1418,1751,-885,-1035,-579,-324,-63,153,-283
32498,3450,0,2023-03-01T18:58:01.210319,2070754,1418,1749,-882,-1035,-575,-321,-63,153,-283
32499,3451,0,2023-03-01T18:58:01.215504,2070759,1418,1749,-882,-1035,-575,-321,-63,153,-283
32500,3452,0,2023-03-01T18:58:01.220046,2070763,1418,1749,-882,-1035,-575,-321,-63,153,-283
32501,3453,0,2023-03-01T18:58:01.225458,2070768,1418,1749,-882,-1035,-575,-321,-63,153,-283
32502,3454,0,2023-03-01T18:58:01.233396,2070775,1417,1750,-883,-1032,-577,-319,-63,153,-283
32503,3455,0,2023-03-01T18:58:01.239677,2070782,1417,1750,-883,-1032,-577,-319,-63,153,-283
32504,3456,0,2023-03-01T18:58:01.245275,2070789,1417,1750,-883,-1032,-577,-319,-63,153,-283
32505,3457,0,2023-03-01T18:58:01.250395,2070793,1418,1749,-873,-1038,-576,-321,-64,152,-286
32506,3458,0,2023-03-01T18:58:01.255723,2070799,1418,1749,-873,-1038,-576,-321,-64,152,-286
32507,3459,0,2023-03-01T18:58:01.261534,2070804,1418,1749,-873,-1038,-576,-321,-64,152,-286
32508,3460,0,2023-03-01T18:58:01.267161,2070810,1414,1748,-873,-1035,-576,-316,-64,152,-286
32509,3461,0,2023-03-01T18:58:01.272817,2070816,1414,1748,-873,-1035,-576,-316,-64,152,-286
32510,3462,0,2023-03-01T18:58:01.277480,2070820,1414,1748,-873,-1035,-576,-316,-64,152,-286
32511,3463,0,2023-03-01T18:58:01.282720,2070825,1414,1748,-873,-1035,-576,-316,-64,152,-286
32512,3464,0,2023-03-01T18:58:01.287734,2070831,1416,1749,-881,-1038,-578,-319,-64,152,-286
32513,3465,0,2023-03-01T18:58:01.293705,2070837,1416,1749,-881,-1038,-578,-319,-64,152,-286
32514,3466,0,2023-03-01T18:58:01.299126,2070842,1416,1749,-881,-1038,-578,-319,-64,152,-286
32515,3467,0,2023-03-01T18:58:01.304796,2070848,1416,1749,-881,-1038,-578,-319,-64,152,-286
32516,3468,0,2023-03-01T18:58:01.309871,2070852,1413,1749,-887,-1032,-569,-313,-64,152,-286
32517,3469,0,2023-03-01T18:58:01.315582,2070858,1413,1749,-887,-1032,-569,-313,-64,152,-286
32518,3470,0,2023-03-01T18:58:01.320784,2070863,1413,1749,-887,-1032,-569,-313,-64,152,-286
32519,3471,0,2023-03-01T18:58:01.326224,2070870,1414,1749,-882,-1035,-574,-312,-64,152,-286
32520,3472,0,2023-03-01T18:58:01.331604,2070875,1414,1749,-882,-1035,-574,-312,-64,152,-286
32521,3473,0,2023-03-01T18:58:01.336990,2070880,1414,1749,-882,-1035,-574,-312,-64,152,-286
32522,3474,0,2023-03-01T18:58:01.342915,2070886,1414,1749,-882,-1035,-574,-312,-64,152,-286
32523,3475,0,2023-03-01T18:58:01.348793,2070892,1412,1752,-882,-1034,-578,-320,-64,152,-286
32524,3476,0,2023-03-01T18:58:01.354515,2070897,1412,1752,-882,-1034,-578,-320,-64,152,-286
32525,3477,0,2023-03-01T18:58:01.360008,2070902,1412,1752,-882,-1034,-578,-320,-64,152,-286
32526,3478,0,2023-03-01T18:58:01.365580,2070908,1412,1752,-882,-1034,-578,-320,-64,152,-286
32527,3479,0,2023-03-01T18:58:01.370687,2070914,1413,1751,-877,-1028,-572,-312,-57,147,-285
32528,3480,0,2023-03-01T18:58:01.376384,2070920,1413,1751,-877,-1028,-572,-312,-57,147,-285
32529,3481,0,2023-03-01T18:58:01.381919,2070924,1413,1751,-877,-1028,-572,-312,-57,147,-285
32530,3482,0,2023-03-01T18:58:01.387675,2070931,1417,1751,-875,-1039,-570,-317,-57,147,-285
32531,3483,0,2023-03-01T18:58:01.393435,2070936,1417,1751,-875,-1039,-570,-317,-57,147,-285
32532,3484,0,2023-03-01T18:58:01.398464,2070941,1417,1751,-875,-1039,-570,-317,-57,147,-285
32533,3485,0,2023-03-01T18:58:01.404434,2070947,1417,1751,-875,-1039,-570,-317,-57,147,-285
32534,3486,0,2023-03-01T18:58:01.409681,2070952,1416,1750,-879,-1037,-574,-318,-57,147,-285
32535,3487,0,2023-03-01T18:58:01.415292,2070958,1416,1750,-879,-1037,-574,-318,-57,147,-285
32536,3488,0,2023-03-01T18:58:01.421163,2070964,1416,1750,-879,-1037,-574,-318,-57,147,-285
32537,3489,0,2023-03-01T18:58:01.426777,2070970,1414,1751,-881,-1040,-570,-319,-57,147,-285
32538,3490,0,2023-03-01T18:58:01.433570,2070976,1414,1751,-881,-1040,-570,-319,-57,147,-285
32539,3491,0,2023-03-01T18:58:01.438542,2070981,1414,1751,-881,-1040,-570,-319,-57,147,-285
32540,3492,0,2023-03-01T18:58:01.444517,2070987,1414,1751,-881,-1040,-570,-319,-57,147,-285
32541,3493,0,2023-03-01T18:58:01.449532,2070992,1417,1749,-876,-1037,-571,-321,-57,147,-285
32542,3494,0,2023-03-01T18:58:01.455635,2070999,1417,1749,-876,-1037,-571,-321,-57,147,-285
32543,3495,0,2023-03-01T18:58:01.461425,2071005,1417,1749,-876,-1037,-571,-321,-57,147,-285
32544,3496,0,2023-03-01T18:58:01.467300,2071010,1414,1754,-883,-1041,-574,-325,-57,147,-285
32545,3497,0,2023-03-01T18:58:01.473062,2071016,1414,1754,-883,-1041,-574,-325,-57,147,-285
32546,3498,0,2023-03-01T18:58:01.478628,2071021,1414,1754,-883,-1041,-574,-325,-57,147,-285
32547,3499,0,2023-03-01T18:58:01.484408,2071027,1414,1754,-883,-1041,-574,-325,-57,147,-285
32548,3500,0,2023-03-01T18:58:01.489194,2071032,1416,1746,-879,-1042,-572,-321,-57,147,-285
32549,3501,0,2023-03-01T18:58:01.495769,2071038,1416,1746,-879,-1042,-572,-321,-57,147,-285
32550,3502,0,2023-03-01T18:58:01.500480,2071044,1416,1746,-879,-1042,-572,-321,-57,147,-285
32551,3503,0,2023-03-01T18:58:01.506120,2071049,1416,1746,-879,-1042,-572,-321,-57,147,-285
32552,3504,0,2023-03-01T18:58:01.511270,2071054,1415,1747,-882,-1040,-574,-319,-62,150,-286
32553,3505,0,2023-03-01T18:58:01.517303,2071060,1415,1747,-882,-1040,-574,-319,-62,150,-286
32554,3506,0,2023-03-01T18:58:01.524044,2071067,1415,1747,-882,-1040,-574,-319,-62,150,-286
32555,3507,0,2023-03-01T18:58:01.529224,2071071,1413,1749,-883,-1037,-575,-317,-62,150,-286
32556,3508,0,2023-03-01T18:58:01.534714,2071078,1413,1749,-883,-1037,-575,-317,-62,150,-286
32557,3509,0,2023-03-01T18:58:01.539349,2071083,1413,1749,-883,-1037,-575,-317,-62,150,-286
32558,3510,0,2023-03-01T18:58:01.545132,2071088,1413,1749,-883,-1037,-575,-317,-62,150,-286
32559,3511,0,2023-03-01T18:58:01.550217,2071093,1417,1750,-881,-1033,-563,-312,-62,150,-286
32560,3512,0,2023-03-01T18:58:01.556008,2071099,1417,1750,-881,-1033,-563,-312,-62,150,-286
32561,3513,0,2023-03-01T18:58:01.561133,2071104,1417,1750,-881,-1033,-563,-312,-62,150,-286
32562,3514,0,2023-03-01T18:58:01.566602,2071109,1417,1750,-881,-1033,-563,-312,-62,150,-286
32563,3515,0,2023-03-01T18:58:01.572070,2071114,1415,1748,-883,-1042,-569,-316,-62,150,-286
32564,3516,0,2023-03-01T18:58:01.577847,2071120,1415,1748,-883,-1042,-569,-316,-62,150,-286
32565,3517,0,2023-03-01T18:58:01.583737,2071127,1415,1748,-883,-1042,-569,-316,-62,150,-286
32566,3518,0,2023-03-01T18:58:01.588616,2071132,1413,1752,-884,-1036,-570,-319,-62,150,-286
32567,3519,0,2023-03-01T18:58:01.593897,2071137,1413,1752,-884,-1036,-570,-319,-62,150,-286
32568,3520,0,2023-03-01T18:58:01.599568,2071142,1413,1752,-884,-1036,-570,-319,-62,150,-286
32569,3521,0,2023-03-01T18:58:01.605313,2071148,1413,1752,-884,-1036,-570,-319,-62,150,-286
32570,3522,0,2023-03-01T18:58:01.610304,2071153,1415,1748,-887,-1031,-575,-324,-62,150,-286
32571,3523,0,2023-03-01T18:58:01.615899,2071158,1415,1748,-887,-1031,-575,-324,-62,150,-286
32572,3524,0,2023-03-01T18:58:01.621648,2071164,1415,1748,-887,-1031,-575,-324,-62,150,-286
32573,3525,0,2023-03-01T18:58:01.627629,2071171,1415,1750,-879,-1037,-573,-325,-62,150,-280
32574,3526,0,2023-03-01T18:58:01.633554,2071177,1415,1750,-879,-1037,-573,-325,-62,150,-280
32575,3527,0,2023-03-01T18:58:01.638806,2071182,1415,1750,-879,-1037,-573,-325,-62,150,-280
32576,3528,0,2023-03-01T18:58:01.643928,2071187,1415,1750,-879,-1037,-573,-325,-62,150,-280
32577,3529,0,2023-03-01T18:58:01.648713,2071192,1418,1750,-875,-1035,-574,-326,-62,150,-280
32578,3530,0,2023-03-01T18:58:01.653673,2071196,1418,1750,-875,-1035,-574,-326,-62,150,-280
32579,3531,0,2023-03-01T18:58:01.658872,2071201,1418,1750,-875,-1035,-574,-326,-62,150,-280
32580,3532,0,2023-03-01T18:58:01.665045,2071207,1418,1750,-875,-1035,-574,-326,-62,150,-280
32581,3533,0,2023-03-01T18:58:01.670306,2071214,1416,1747,-879,-1035,-578,-314,-62,150,-280
32582,3534,0,2023-03-01T18:58:01.675998,2071219,1416,1747,-879,-1035,-578,-314,-62,150,-280
32583,3535,0,2023-03-01T18:58:01.681709,2071225,1416,1747,-879,-1035,-578,-314,-62,150,-280
32584,3536,0,2023-03-01T18:58:01.687268,2071230,1415,1750,-883,-1035,-576,-319,-62,150,-280
32585,3537,0,2023-03-01T18:58:01.692962,2071236,1415,1750,-883,-1035,-576,-319,-62,150,-280
32586,3538,0,2023-03-01T18:58:01.697860,2071240,1415,1750,-883,-1035,-576,-319,-62,150,-280
32587,3539,0,2023-03-01T18:58:01.703649,2071246,1415,1750,-883,-1035,-576,-319,-62,150,-280
32588,3540,0,2023-03-01T18:58:01.708576,2071251,1414,1751,-878,-1040,-578,-328,-62,150,-280
32589,3541,0,2023-03-01T18:58:01.714583,2071258,1414,1751,-878,-1040,-578,-328,-62,150,-280
32590,3542,0,2023-03-01T18:58:01.719063,2071262,1414,1751,-878,-1040,-578,-328,-62,150,-280
32591,3543,0,2023-03-01T18:58:01.724457,2071267,1414,1751,-878,-1040,-578,-328,-62,150,-280
32592,3544,0,2023-03-01T18:58:01.729866,2071273,1418,1750,-876,-1038,-574,-319,-62,150,-280
32593,3545,0,2023-03-01T18:58:01.735528,2071278,1418,1750,-876,-1038,-574,-319,-62,150,-280
32594,3546,0,2023-03-01T18:58:01.741522,2071284,1418,1750,-876,-1038,-574,-319,-62,150,-280
32595,3547,0,2023-03-01T18:58:01.746609,2071289,1418,1750,-876,-1038,-574,-319,-62,150,-280
32596,3548,0,2023-03-01T18:58:01.752502,2071296,1415,1746,-876,-1040,-576,-320,-62,150,-280
32597,3549,0,2023-03-01T18:58:01.758449,2071302,1415,1746,-876,-1040,-576,-320,-62,150,-280
32598,3550,0,2023-03-01T18:58:01.764164,2071307,1415,1746,-876,-1040,-576,-320,-62,150,-280
32599,3551,0,2023-03-01T18:58:01.769038,2071312,1411,1752,-875,-1043,-572,-323,-68,158,-288
32600,3552,0,2023-03-01T18:58:01.775065,2071318,1411,1752,-875,-1043,-572,-323,-68,158,-288
32601,3553,0,2023-03-01T18:58:01.780678,2071324,1411,1752,-875,-1043,-572,-323,-68,158,-288
32602,3554,0,2023-03-01T18:58:01.786541,2071329,1411,1752,-875,-1043,-572,-323,-68,158,-288
32603,3555,0,2023-03-01T18:58:01.791937,2071334,1413,1748,-877,-1040,-572,-321,-68,158,-288
32604,3556,0,2023-03-01T18:58:01.797493,2071341,1413,1748,-877,-1040,-572,-321,-68,158,-288
32605,3557,0,2023-03-01T18:58:01.803392,2071347,1413,1748,-877,-1040,-572,-321,-68,158,-288
32606,3558,0,2023-03-01T18:58:01.808367,2071352,1414,1753,-886,-1038,-575,-326,-68,158,-288
32607,3559,0,2023-03-01T18:58:01.814080,2071357,1414,1753,-886,-1038,-575,-326,-68,158,-288
32608,3560,0,2023-03-01T18:58:01.820024,2071363,1414,1753,-886,-1038,-575,-326,-68,158,-288
32609,3561,0,2023-03-01T18:58:01.826054,2071369,1414,1753,-886,-1038,-575,-326,-68,158,-288
32610,3562,0,2023-03-01T18:58:01.830893,2071374,1412,1750,-888,-1037,-572,-314,-68,158,-288
32611,3563,0,2023-03-01T18:58:01.836185,2071379,1412,1750,-888,-1037,-572,-314,-68,158,-288
32612,3564,0,2023-03-01T18:58:01.841941,2071385,1412,1750,-888,-1037,-572,-314,-68,158,-288
32613,3565,0,2023-03-01T18:58:01.847834,2071391,1412,1749,-879,-1033,-571,-317,-68,158,-288
32614,3566,0,2023-03-01T18:58:01.853938,2071397,1412,1749,-879,-1033,-571,-317,-68,158,-288
32615,3567,0,2023-03-01T18:58:01.860050,2071403,1412,1749,-879,-1033,-571,-317,-68,158,-288
32616,3568,0,2023-03-01T18:58:01.865964,2071409,1412,1749,-879,-1033,-571,-317,-68,158,-288
32617,3569,0,2023-03-01T18:58:01.871049,2071413,1418,1749,-880,-1038,-568,-311,-68,158,-288
32618,3570,0,2023-03-01T18:58:01.876596,2071419,1418,1749,-880,-1038,-568,-311,-68,158,-288
32619,3571,0,2023-03-01T18:58:01.883226,2071426,1418,1749,-880,-1038,-568,-311,-68,158,-288
32620,3572,0,2023-03-01T18:58:01.888278,2071432,1418,1751,-878,-1042,-579,-318,-65,153,-293
32621,3573,0,2023-03-01T18:58:01.893820,2071437,1418,1751,-878,-1042,-579,-318,-65,153,-293
32622,3574,0,2023-03-01T18:58:01.898789,2071442,1418,1751,-878,-1042,-579,-318,-65,153,-293
32623,3575,0,2023-03-01T18:58:01.905036,2071448,1418,1751,-878,-1042,-579,-318,-65,153,-293
32624,3576,0,2023-03-01T18:58:01.910203,2071453,1415,1750,-876,-1030,-579,-320,-65,153,-293
32625,3577,0,2023-03-01T18:58:01.916045,2071459,1415,1750,-876,-1030,-579,-320,-65,153,-293
32626,3578,0,2023-03-01T18:58:01.922173,2071464,1415,1750,-876,-1030,-579,-320,-65,153,-293
32627,3579,0,2023-03-01T18:58:01.928219,2071471,1416,1751,-880,-1034,-572,-325,-65,153,-293
32628,3580,0,2023-03-01T18:58:01.934233,2071478,1416,1751,-880,-1034,-572,-325,-65,153,-293
32629,3581,0,2023-03-01T18:58:01.939838,2071483,1416,1751,-880,-1034,-572,-325,-65,153,-293
32630,3582,0,2023-03-01T18:58:01.945373,2071488,1416,1751,-880,-1034,-572,-325,-65,153,-293
32631,3583,0,2023-03-01T18:58:01.950759,2071493,1414,1746,-881,-1040,-576,-325,-65,153,-293
32632,3584,0,2023-03-01T18:58:01.956459,2071499,1414,1746,-881,-1040,-576,-325,-65,153,-293
32633,3585,0,2023-03-01T18:58:01.962649,2071505,1414,1746,-881,-1040,-576,-325,-65,153,-293
32634,3586,0,2023-03-01T18:58:01.968321,2071512,1415,1751,-882,-1044,-578,-320,-65,153,-293
32635,3587,0,2023-03-01T18:58:01.973984,2071517,1415,1751,-882,-1044,-578,-320,-65,153,-293
32636,3588,0,2023-03-01T18:58:01.978978,2071522,1415,1751,-882,-1044,-578,-320,-65,153,-293
32637,3589,0,2023-03-01T18:58:01.984761,2071528,1415,1751,-882,-1044,-578,-320,-65,153,-293
32638,3590,0,2023-03-01T18:58:01.989589,2071532,1419,1749,-884,-1033,-573,-325,-65,153,-293
32639,3591,0,2023-03-01T18:58:01.995545,2071538,1419,1749,-884,-1033,-573,-325,-65,153,-293
32640,3592,0,2023-03-01T18:58:02.000489,2071543,1419,1749,-884,-1033,-573,-325,-65,153,-293
32641,3593,0,2023-03-01T18:58:02.006268,2071549,1419,1749,-884,-1033,-573,-325,-65,153,-293
32642,3594,0,2023-03-01T18:58:02.011190,2071555,1416,1750,-883,-1039,-566,-315,-65,151,-281
32643,3595,0,2023-03-01T18:58:02.017197,2071560,1416,1750,-883,-1039,-566,-315,-65,151,-281
32644,3596,0,2023-03-01T18:58:02.023340,2071567,1416,1750,-883,-1039,-566,-315,-65,151,-281
32645,3597,0,2023-03-01T18:58:02.028299,2071571,1415,1749,-876,-1040,-569,-319,-65,151,-281
32646,3598,0,2023-03-01T18:58:02.033629,2071576,1415,1749,-876,-1040,-569,-319,-65,151,-281
32647,3599,0,2023-03-01T18:58:02.038436,2071581,1415,1749,-876,-1040,-569,-319,-65,151,-281
32648,3600,0,2023-03-01T18:58:02.044069,2071587,1415,1749,-876,-1040,-569,-319,-65,151,-281
32649,3601,0,2023-03-01T18:58:02.049453,2071592,1417,1749,-874,-1039,-566,-326,-65,151,-281
32650,3602,0,2023-03-01T18:58:02.055395,2071599,1417,1749,-874,-1039,-566,-326,-65,151,-281
32651,3603,0,2023-03-01T18:58:02.061004,2071604,1417,1749,-874,-1039,-566,-326,-65,151,-281
32652,3604,0,2023-03-01T18:58:02.066763,2071610,1417,1749,-874,-1039,-566,-326,-65,151,-281
32653,3605,0,2023-03-01T18:58:02.072251,2071615,1416,1753,-880,-1042,-570,-322,-65,151,-281
32654,3606,0,2023-03-01T18:58:02.078082,2071621,1416,1753,-880,-1042,-570,-322,-65,151,-281
32655,3607,0,2023-03-01T18:58:02.084864,2071627,1416,1753,-880,-1042,-570,-322,-65,151,-281
32656,3608,0,2023-03-01T18:58:02.089914,2071632,1415,1750,-878,-1044,-572,-319,-65,151,-281
32657,3609,0,2023-03-01T18:58:02.095821,2071639,1415,1750,-878,-1044,-572,-319,-65,151,-281
32658,3610,0,2023-03-01T18:58:02.101515,2071645,1415,1750,-878,-1044,-572,-319,-65,151,-281
32659,3611,0,2023-03-01T18:58:02.108409,2071651,1416,1750,-883,-1041,-571,-319,-65,151,-281
32660,3612,0,2023-03-01T18:58:02.114247,2071657,1416,1750,-883,-1041,-571,-319,-65,151,-281
32661,3613,0,2023-03-01T18:58:02.120639,2071663,1416,1750,-883,-1041,-571,-319,-65,151,-281
32662,3614,0,2023-03-01T18:58:02.125240,2071668,1416,1750,-883,-1041,-571,-319,-65,151,-281
32663,3615,0,2023-03-01T18:58:02.130306,2071673,1415,1748,-877,-1031,-568,-320,-65,151,-281
32664,3616,0,2023-03-01T18:58:02.135965,2071680,1415,1748,-877,-1031,-568,-320,-65,151,-281
32665,3617,0,2023-03-01T18:58:02.141456,2071685,1415,1748,-877,-1031,-568,-320,-65,151,-281
32666,3618,0,2023-03-01T18:58:02.146973,2071690,1415,1748,-877,-1031,-568,-320,-65,151,-281
32667,3619,0,2023-03-01T18:58:02.151855,2071695,1415,1751,-879,-1037,-574,-321,-70,158,-290
32668,3620,0,2023-03-01T18:58:02.157144,2071700,1415,1751,-879,-1037,-574,-321,-70,158,-290
32669,3621,0,2023-03-01T18:58:02.163227,2071706,1415,1751,-879,-1037,-574,-321,-70,158,-290
32670,3622,0,2023-03-01T18:58:02.168256,2071711,1414,1751,-875,-1028,-579,-317,-70,158,-290
32671,3623,0,2023-03-01T18:58:02.173861,2071716,1414,1751,-875,-1028,-579,-317,-70,158,-290
32672,3624,0,2023-03-01T18:58:02.179182,2071723,1414,1751,-875,-1028,-579,-317,-70,158,-290
32673,3625,0,2023-03-01T18:58:02.185202,2071728,1414,1751,-875,-1028,-579,-317,-70,158,-290
32674,3626,0,2023-03-01T18:58:02.190157,2071733,1416,1752,-882,-1027,-567,-326,-70,158,-290
32675,3627,0,2023-03-01T18:58:02.195550,2071739,1416,1752,-882,-1027,-567,-326,-70,158,-290
32676,3628,0,2023-03-01T18:58:02.200901,2071744,1416,1752,-882,-1027,-567,-326,-70,158,-290
32677,3629,0,2023-03-01T18:58:02.205399,2071748,1416,1752,-882,-1027,-567,-326,-70,158,-290
32678,3630,0,2023-03-01T18:58:02.210857,2071753,1414,1748,-882,-1035,-569,-322,-70,158,-290
32679,3631,0,2023-03-01T18:58:02.216819,2071759,1414,1748,-882,-1035,-569,-322,-70,158,-290
32680,3632,0,2023-03-01T18:58:02.223322,2071766,1414,1748,-882,-1035,-569,-322,-70,158,-290
32681,3633,0,2023-03-01T18:58:02.228267,2071772,1414,1749,-878,-1039,-569,-318,-70,158,-290
32682,3634,0,2023-03-01T18:58:02.233514,2071777,1414,1749,-878,-1039,-569,-318,-70,158,-290
32683,3635,0,2023-03-01T18:58:02.238382,2071781,1414,1749,-878,-1039,-569,-318,-70,158,-290
32684,3636,0,2023-03-01T18:58:02.243951,2071787,1414,1749,-878,-1039,-569,-318,-70,158,-290
32685,3637,0,2023-03-01T18:58:02.248994,2071792,1415,1749,-876,-1036,-576,-320,-70,158,-290
32686,3638,0,2023-03-01T18:58:02.254634,2071798,1415,1749,-876,-1036,-576,-320,-70,158,-290
32687,3639,0,2023-03-01T18:58:02.260221,2071803,1415,1749,-876,-1036,-576,-320,-70,158,-290
32688,3640,0,2023-03-01T18:58:02.265338,2071809,1415,1749,-876,-1036,-576,-320,-70,158,-290
32689,3641,0,2023-03-01T18:58:02.270086,2071814,1414,1752,-881,-1040,-571,-314,-62,146,-292
32690,3642,0,2023-03-01T18:58:02.275188,2071818,1414,1752,-881,-1040,-571,-314,-62,146,-292
32691,3643,0,2023-03-01T18:58:02.281344,2071824,1414,1752,-881,-1040,-571,-314,-62,146,-292
32692,3644,0,2023-03-01T18:58:02.287013,2071830,1414,1752,-881,-1040,-571,-314,-62,146,-292
32693,3645,0,2023-03-01T18:58:02.292038,2071835,1417,1750,-884,-1035,-575,-318,-62,146,-292
32694,3646,0,2023-03-01T18:58:02.297677,2071840,1417,1750,-884,-1035,-575,-318,-62,146,-292
32695,3647,0,2023-03-01T18:58:02.303640,2071846,1417,1750,-884,-1035,-575,-318,-62,146,-292
32696,3648,0,2023-03-01T18:58:02.308452,2071852,1415,1751,-882,-1037,-572,-314,-62,146,-292
32697,3649,0,2023-03-01T18:58:02.313933,2071857,1415,1751,-882,-1037,-572,-314,-62,146,-292
32698,3650,0,2023-03-01T18:58:02.318507,2071862,1415,1751,-882,-1037,-572,-314,-62,146,-292
32699,3651,0,2023-03-01T18:58:02.322899,2071866,1415,1751,-882,-1037,-572,-314,-62,146,-292
32700,3652,0,2023-03-01T18:58:02.331429,2071871,1415,1749,-877,-1032,-567,-325,-62,146,-292
32701,3653,0,2023-03-01T18:58:02.337123,2071880,1415,1749,-877,-1032,-567,-325,-62,146,-292
32702,3654,0,2023-03-01T18:58:02.342008,2071885,1415,1749,-877,-1032,-567,-325,-62,146,-292
32703,3655,0,2023-03-01T18:58:02.346877,2071889,1415,1749,-877,-1032,-567,-325,-62,146,-292
32704,3656,0,2023-03-01T18:58:02.351707,2071895,1418,1751,-883,-1035,-569,-323,-62,146,-292
32705,3657,0,2023-03-01T18:58:02.357556,2071901,1418,1751,-883,-1035,-569,-323,-62,146,-292
32706,3658,0,2023-03-01T18:58:02.363517,2071906,1418,1751,-883,-1035,-569,-323,-62,146,-292
32707,3659,0,2023-03-01T18:58:02.368874,2071912,1415,1749,-879,-1040,-570,-322,-62,146,-292
32708,3660,0,2023-03-01T18:58:02.374565,2071917,1415,1749,-879,-1040,-570,-322,-62,146,-292
32709,3661,0,2023-03-01T18:58:02.380779,2071923,1415,1749,-879,-1040,-570,-322,-62,146,-292
32710,3662,0,2023-03-01T18:58:02.386573,2071929,1415,1749,-879,-1040,-570,-322,-62,146,-292
32711,3663,0,2023-03-01T18:58:02.392029,2071934,1416,1750,-877,-1036,-571,-316,-62,146,-292
32712,3664,0,2023-03-01T18:58:02.397914,2071941,1416,1750,-877,-1036,-571,-316,-62,146,-292
32713,3665,0,2023-03-01T18:58:02.404154,2071947,1416,1750,-877,-1036,-571,-316,-62,146,-292
32714,3666,0,2023-03-01T18:58:02.409552,2071952,1415,1753,-881,-1038,-572,-322,-62,154,-288
32715,3667,0,2023-03-01T18:58:02.415365,2071958,1415,1753,-881,-1038,-572,-322,-62,154,-288
32716,3668,0,2023-03-01T18:58:02.421077,2071963,1415,1753,-881,-1038,-572,-322,-62,154,-288
32717,3669,0,2023-03-01T18:58:02.426908,2071969,1415,1753,-881,-1038,-572,-322,-62,154,-288
32718,3670,0,2023-03-01T18:58:02.431631,2071974,1415,1751,-876,-1036,-570,-316,-62,154,-288
32719,3671,0,2023-03-01T18:58:02.438694,2071981,1415,1751,-876,-1036,-570,-316,-62,154,-288
32720,3672,0,2023-03-01T18:58:02.445551,2071989,1415,1751,-876,-1036,-570,-316,-62,154,-288
32721,3673,0,2023-03-01T18:58:02.450466,2071993,1416,1750,-879,-1034,-569,-317,-62,154,-288
32722,3674,0,2023-03-01T18:58:02.456628,2072000,1416,1750,-879,-1034,-569,-317,-62,154,-288
32723,3675,0,2023-03-01T18:58:02.461231,2072004,1416,1750,-879,-1034,-569,-317,-62,154,-288
32724,3676,0,2023-03-01T18:58:02.466670,2072009,1416,1750,-879,-1034,-569,-317,-62,154,-288
32725,3677,0,2023-03-01T18:58:02.471815,2072014,1417,1751,-879,-1036,-570,-316,-62,154,-288
32726,3678,0,2023-03-01T18:58:02.477680,2072020,1417,1751,-879,-1036,-570,-316,-62,154,-288
32727,3679,0,2023-03-01T18:58:02.483345,2072027,1417,1751,-879,-1036,-570,-316,-62,154,-288
32728,3680,0,2023-03-01T18:58:02.489010,2072031,1417,1748,-881,-1043,-572,-319,-62,154,-288
32729,3681,0,2023-03-01T18:58:02.494632,2072037,1417,1748,-881,-1043,-572,-319,-62,154,-288
32730,3682,0,2023-03-01T18:58:02.500695,2072044,1417,1748,-881,-1043,-572,-319,-62,154,-288
32731,3683,0,2023-03-01T18:58:02.506308,2072049,1417,1748,-881,-1043,-572,-319,-62,154,-288
32732,3684,0,2023-03-01T18:58:02.511452,2072054,1415,1753,-879,-1045,-575,-321,-62,154,-288
32733,3685,0,2023-03-01T18:58:02.516896,2072059,1415,1753,-879,-1045,-575,-321,-62,154,-288
32734,3686,0,2023-03-01T18:58:02.521344,2072065,1415,1753,-879,-1045,-575,-321,-62,154,-288
32735,3687,0,2023-03-01T18:58:02.527018,2072070,1415,1753,-879,-1045,-575,-321,-62,154,-288
32736,3688,0,2023-03-01T18:58:02.531969,2072075,1415,1750,-878,-1039,-581,-325,-61,151,-289
32737,3689,0,2023-03-01T18:58:02.537582,2072081,1415,1750,-878,-1039,-581,-325,-61,151,-289
32738,3690,0,2023-03-01T18:58:02.543420,2072086,1415,1750,-878,-1039,-581,-325,-61,151,-289
32739,3691,0,2023-03-01T18:58:02.548241,2072091,1417,1750,-871,-1032,-568,-319,-61,151,-289
32740,3692,0,2023-03-01T18:58:02.554368,2072097,1417,1750,-871,-1032,-568,-319,-61,151,-289
32741,3693,0,2023-03-01T18:58:02.560496,2072103,1417,1750,-871,-1032,-568,-319,-61,151,-289
32742,3694,0,2023-03-01T18:58:02.566376,2072110,1417,1750,-871,-1032,-568,-319,-61,151,-289
32743,3695,0,2023-03-01T18:58:02.571330,2072114,1417,1748,-880,-1035,-570,-320,-61,151,-289
32744,3696,0,2023-03-01T18:58:02.577491,2072121,1417,1748,-880,-1035,-570,-320,-61,151,-289
32745,3697,0,2023-03-01T18:58:02.583353,2072126,1417,1748,-880,-1035,-570,-320,-61,151,-289
32746,3698,0,2023-03-01T18:58:02.588757,2072131,1416,1751,-881,-1040,-566,-322,-61,151,-289
32747,3699,0,2023-03-01T18:58:02.594373,2072137,1416,1751,-881,-1040,-566,-322,-61,151,-289
32748,3700,0,2023-03-01T18:58:02.599596,2072142,1416,1751,-881,-1040,-566,-322,-61,151,-289
32749,3701,0,2023-03-01T18:58:02.604981,2072147,1416,1751,-881,-1040,-566,-322,-61,151,-289
32750,3702,0,2023-03-01T18:58:02.610091,2072153,1416,1750,-884,-1040,-571,-323,-61,151,-289
32751,3703,0,2023-03-01T18:58:02.615691,2072159,1416,1750,-884,-1040,-571,-323,-61,151,-289
32752,3704,0,2023-03-01T18:58:02.621596,2072165,1416,1750,-884,-1040,-571,-323,-61,151,-289
32753,3705,0,2023-03-01T18:58:02.626216,2072169,1416,1750,-884,-1040,-571,-323,-61,151,-289
32754,3706,0,2023-03-01T18:58:02.631358,2072174,1416,1750,-884,-1040,-571,-323,-61,151,-289
32755,3707,0,2023-03-01T18:58:02.636245,2072179,1416,1750,-884,-1040,-571,-323,-61,151,-289
32756,3708,0,2023-03-01T18:58:02.641411,2072184,1416,1750,-884,-1040,-571,-323,-61,151,-289
32757,3709,0,2023-03-01T18:58:02.646911,2072190,1416,1750,-884,-1040,-571,-323,-61,151,-289
32758,3710,0,2023-03-01T18:58:02.651645,2072195,1415,1750,-880,-1036,-576,-316,-61,151,-289
32759,3711,0,2023-03-01T18:58:02.657504,2072200,1415,1750,-880,-1036,-576,-316,-61,151,-289
32760,3712,0,2023-03-01T18:58:02.663982,2072207,1415,1750,-880,-1036,-576,-316,-61,151,-289
32761,3713,0,2023-03-01T18:58:02.669076,2072212,1418,1753,-876,-1036,-578,-315,-54,150,-290
32762,3714,0,2023-03-01T18:58:02.674370,2072217,1418,1753,-876,-1036,-578,-315,-54,150,-290
32763,3715,0,2023-03-01T18:58:02.680060,2072223,1418,1753,-876,-1036,-578,-315,-54,150,-290
32764,3716,0,2023-03-01T18:58:02.685402,2072228,1418,1753,-876,-1036,-578,-315,-54,150,-290
32765,3717,0,2023-03-01T18:58:02.690412,2072233,1416,1750,-880,-1034,-573,-313,-54,150,-290
32766,3718,0,2023-03-01T18:58:02.696109,2072239,1416,1750,-880,-1034,-573,-313,-54,150,-290
32767,3719,0,2023-03-01T18:58:02.701216,2072244,1416,1750,-880,-1034,-573,-313,-54,150,-290
32768,3720,0,2023-03-01T18:58:02.706671,2072250,1416,1750,-880,-1034,-573,-313,-54,150,-290
32769,3721,0,2023-03-01T18:58:02.711259,2072254,1416,1750,-880,-1034,-573,-313,-54,150,-290
32770,3722,0,2023-03-01T18:58:02.716324,2072259,1416,1750,-880,-1034,-573,-313,-54,150,-290
32771,3723,0,2023-03-01T18:58:02.722580,2072265,1416,1750,-880,-1034,-573,-313,-54,150,-290
32772,3724,0,2023-03-01T18:58:02.726979,2072270,1416,1750,-880,-1034,-573,-313,-54,150,-290
32773,3725,0,2023-03-01T18:58:02.731726,2072274,1409,1749,-883,-1042,-570,-318,-54,150,-290
32774,3726,0,2023-03-01T18:58:02.737062,2072281,1409,1749,-883,-1042,-570,-318,-54,150,-290
32775,3727,0,2023-03-01T18:58:02.742691,2072286,1409,1749,-883,-1042,-570,-318,-54,150,-290
32776,3728,0,2023-03-01T18:58:02.748251,2072291,1409,1749,-883,-1042,-570,-318,-54,150,-290
32777,3729,0,2023-03-01T18:58:02.753288,2072296,1418,1752,-882,-1044,-573,-319,-54,150,-290
32778,3730,0,2023-03-01T18:58:02.759527,2072302,1418,1752,-882,-1044,-573,-319,-54,150,-290
32779,3731,0,2023-03-01T18:58:02.765753,2072309,1418,1752,-882,-1044,-573,-319,-54,150,-290
32780,3732,0,2023-03-01T18:58:02.770718,2072313,1413,1747,-880,-1038,-579,-324,-54,150,-290
32781,3733,0,2023-03-01T18:58:02.775786,2072318,1413,1747,-880,-1038,-579,-324,-54,150,-290
32782,3734,0,2023-03-01T18:58:02.781501,2072325,1413,1747,-880,-1038,-579,-324,-54,150,-290
32783,3735,0,2023-03-01T18:58:02.786702,2072330,1413,1747,-880,-1038,-579,-324,-54,150,-290
32784,3736,0,2023-03-01T18:58:02.791314,2072335,1416,1752,-870,-1033,-569,-318,-64,152,-284
32785,3737,0,2023-03-01T18:58:02.796704,2072340,1416,1752,-870,-1033,-569,-318,-64,152,-284
32786,3738,0,2023-03-01T18:58:02.802472,2072345,1416,1752,-870,-1033,-569,-318,-64,152,-284
32787,3739,0,2023-03-01T18:58:02.808327,2072351,1416,1752,-870,-1033,-569,-318,-64,152,-284
32788,3740,0,2023-03-01T18:58:02.813678,2072356,1414,1748,-880,-1038,-569,-316,-64,152,-284
32789,3741,0,2023-03-01T18:58:02.819590,2072363,1414,1748,-880,-1038,-569,-316,-64,152,-284
32790,3742,0,2023-03-01T18:58:02.824267,2072368,1414,1748,-880,-1038,-569,-316,-64,152,-284
32791,3743,0,2023-03-01T18:58:02.829501,2072373,1412,1751,-877,-1033,-574,-322,-64,152,-284
32792,3744,0,2023-03-01T18:58:02.835929,2072379,1412,1751,-877,-1033,-574,-322,-64,152,-284
32793,3745,0,2023-03-01T18:58:02.840861,2072384,1412,1751,-877,-1033,-574,-322,-64,152,-284
32794,3746,0,2023-03-01T18:58:02.846680,2072389,1412,1751,-877,-1033,-574,-322,-64,152,-284
32795,3747,0,2023-03-01T18:58:02.851953,2072394,1415,1750,-883,-1033,-576,-316,-64,152,-284
32796,3748,0,2023-03-01T18:58:02.858227,2072400,1415,1750,-883,-1033,-576,-316,-64,152,-284
32797,3749,0,2023-03-01T18:58:02.864608,2072408,1415,1750,-883,-1033,-576,-316,-64,152,-284
32798,3750,0,2023-03-01T18:58:02.869613,2072413,1414,1748,-885,-1046,-576,-321,-64,152,-284
32799,3751,0,2023-03-01T18:58:02.875281,2072419,1414,1748,-885,-1046,-576,-321,-64,152,-284
32800,3752,0,2023-03-01T18:58:02.881494,2072424,1414,1748,-885,-1046,-576,-321,-64,152,-284
32801,3753,0,2023-03-01T18:58:02.887458,2072430,1414,1748,-885,-1046,-576,-321,-64,152,-284
32802,3754,0,2023-03-01T18:58:02.893059,2072435,1414,1752,-879,-1044,-574,-318,-64,152,-284
32803,3755,0,2023-03-01T18:58:02.898791,2072441,1414,1752,-879,-1044,-574,-318,-64,152,-284
32804,3756,0,2023-03-01T18:58:02.904815,2072448,1414,1752,-879,-1044,-574,-318,-64,152,-284
32805,3757,0,2023-03-01T18:58:02.910072,2072453,1416,1750,-877,-1040,-575,-309,-64,150,-290
32806,3758,0,2023-03-01T18:58:02.915874,2072459,1416,1750,-877,-1040,-575,-309,-64,150,-290
32807,3759,0,2023-03-01T18:58:02.920859,2072464,1416,1750,-877,-1040,-575,-309,-64,150,-290
32808,3760,0,2023-03-01T18:58:02.926572,2072469,1416,1750,-877,-1040,-575,-309,-64,150,-290
32809,3761,0,2023-03-01T18:58:02.931300,2072474,1416,1748,-881,-1033,-573,-317,-64,150,-290
32810,3762,0,2023-03-01T18:58:02.936995,2072480,1416,1748,-881,-1033,-573,-317,-64,150,-290
32811,3763,0,2023-03-01T18:58:02.941906,2072484,1416,1748,-881,-1033,-573,-317,-64,150,-290
32812,3764,0,2023-03-01T18:58:02.947421,2072489,1416,1748,-881,-1033,-573,-317,-64,150,-290
32813,3765,0,2023-03-01T18:58:02.952440,2072496,1418,1752,-879,-1043,-576,-315,-64,150,-290
32814,3766,0,2023-03-01T18:58:02.958714,2072502,1418,1752,-879,-1043,-576,-315,-64,150,-290
32815,3767,0,2023-03-01T18:58:02.963567,2072507,1418,1752,-879,-1043,-576,-315,-64,150,-290
32816,3768,0,2023-03-01T18:58:02.968844,2072512,1414,1749,-882,-1038,-576,-320,-64,150,-290
32817,3769,0,2023-03-01T18:58:02.974874,2072517,1414,1749,-882,-1038,-576,-320,-64,150,-290
32818,3770,0,2023-03-01T18:58:02.980695,2072523,1414,1749,-882,-1038,-576,-320,-64,150,-290
32819,3771,0,2023-03-01T18:58:02.986281,2072529,1414,1749,-882,-1038,-576,-320,-64,150,-290
32820,3772,0,2023-03-01T18:58:02.993754,2072537,1417,1747,-877,-1036,-572,-319,-64,150,-290
32821,3773,0,2023-03-01T18:58:02.999523,2072543,1417,1747,-877,-1036,-572,-319,-64,150,-290
32822,3774,0,2023-03-01T18:58:03.005548,2072549,1417,1747,-877,-1036,-572,-319,-64,150,-290
32823,3775,0,2023-03-01T18:58:03.010350,2072553,1418,1749,-879,-1034,-572,-316,-64,150,-290
32824,3776,0,2023-03-01T18:58:03.015551,2072559,1418,1749,-879,-1034,-572,-316,-64,150,-290
32825,3777,0,2023-03-01T18:58:03.020586,2072563,1418,1749,-879,-1034,-572,-316,-64,150,-290
32826,3778,0,2023-03-01T18:58:03.026169,2072569,1418,1749,-879,-1034,-572,-316,-64,150,-290
32827,3779,0,2023-03-01T18:58:03.031185,2072574,1415,1750,-885,-1039,-574,-319,-64,150,-290
32828,3780,0,2023-03-01T18:58:03.037342,2072580,1415,1750,-885,-1039,-574,-319,-64,150,-290
32829,3781,0,2023-03-01T18:58:03.042193,2072586,1415,1750,-885,-1039,-574,-319,-64,150,-290
32830,3782,0,2023-03-01T18:58:03.047404,2072590,1415,1750,-885,-1039,-574,-319,-64,150,-290
32831,3783,0,2023-03-01T18:58:03.052603,2072595,1416,1749,-878,-1046,-575,-324,-60,158,-286
32832,3784,0,2023-03-01T18:58:03.058826,2072601,1416,1749,-878,-1046,-575,-324,-60,158,-286
32833,3785,0,2023-03-01T18:58:03.064841,2072607,1416,1749,-878,-1046,-575,-324,-60,158,-286
32834,3786,0,2023-03-01T18:58:03.070152,2072612,1416,1752,-879,-1036,-576,-331,-60,158,-286
32835,3787,0,2023-03-01T18:58:03.076590,2072620,1416,1752,-879,-1036,-576,-331,-60,158,-286
32836,3788,0,2023-03-01T18:58:03.081326,2072625,1416,1752,-879,-1036,-576,-331,-60,158,-286
32837,3789,0,2023-03-01T18:58:03.087144,2072630,1416,1752,-879,-1036,-576,-331,-60,158,-286
32838,3790,0,2023-03-01T18:58:03.092626,2072635,1415,1750,-879,-1028,-566,-324,-60,158,-286
32839,3791,0,2023-03-01T18:58:03.098621,2072641,1415,1750,-879,-1028,-566,-324,-60,158,-286
32840,3792,0,2023-03-01T18:58:03.105715,2072648,1415,1750,-879,-1028,-566,-324,-60,158,-286
32841,3793,0,2023-03-01T18:58:03.110707,2072653,1417,1748,-881,-1039,-568,-330,-60,158,-286
32842,3794,0,2023-03-01T18:58:03.116771,2072659,1417,1748,-881,-1039,-568,-330,-60,158,-286
32843,3795,0,2023-03-01T18:58:03.122278,2072665,1417,1748,-881,-1039,-568,-330,-60,158,-286
32844,3796,0,2023-03-01T18:58:03.128031,2072671,1417,1748,-881,-1039,-568,-330,-60,158,-286
32845,3797,0,2023-03-01T18:58:03.132631,2072676,1416,1750,-880,-1029,-577,-321,-60,158,-286
32846,3798,0,2023-03-01T18:58:03.138470,2072681,1416,1750,-880,-1029,-577,-321,-60,158,-286
32847,3799,0,2023-03-01T18:58:03.144649,2072687,1416,1750,-880,-1029,-577,-321,-60,158,-286
32848,3800,0,2023-03-01T18:58:03.149384,2072692,1415,1752,-885,-1032,-565,-320,-60,158,-286
32849,3801,0,2023-03-01T18:58:03.154466,2072697,1415,1752,-885,-1032,-565,-320,-60,158,-286
32850,3802,0,2023-03-01T18:58:03.159110,2072702,1415,1752,-885,-1032,-565,-320,-60,158,-286
32851,3803,0,2023-03-01T18:58:03.164881,2072708,1415,1752,-885,-1032,-565,-320,-60,158,-286
32852,3804,0,2023-03-01T18:58:03.169621,2072713,1420,1750,-878,-1038,-564,-323,-63,145,-283
32853,3805,0,2023-03-01T18:58:03.175307,2072718,1420,1750,-878,-1038,-564,-323,-63,145,-283
32854,3806,0,2023-03-01T18:58:03.180412,2072724,1420,1750,-878,-1038,-564,-323,-63,145,-283
32855,3807,0,2023-03-01T18:58:03.186199,2072729,1420,1750,-878,-1038,-564,-323,-63,145,-283
32856,3808,0,2023-03-01T18:58:03.191073,2072734,1417,1750,-876,-1042,-568,-317,-63,145,-283
32857,3809,0,2023-03-01T18:58:03.196711,2072739,1417,1750,-876,-1042,-568,-317,-63,145,-283
32858,3810,0,2023-03-01T18:58:03.202045,2072745,1417,1750,-876,-1042,-568,-317,-63,145,-283
32859,3811,0,2023-03-01T18:58:03.208159,2072751,1417,1750,-876,-1042,-568,-317,-63,145,-283
32860,3812,0,2023-03-01T18:58:03.213106,2072757,1415,1748,-878,-1039,-568,-316,-63,145,-283
32861,3813,0,2023-03-01T18:58:03.218596,2072762,1415,1748,-878,-1039,-568,-316,-63,145,-283
32862,3814,0,2023-03-01T18:58:03.224813,2072768,1415,1748,-878,-1039,-568,-316,-63,145,-283
32863,3815,0,2023-03-01T18:58:03.229514,2072772,1417,1751,-877,-1048,-567,-320,-63,145,-283
32864,3816,0,2023-03-01T18:58:03.235026,2072778,1417,1751,-877,-1048,-567,-320,-63,145,-283
32865,3817,0,2023-03-01T18:58:03.239412,2072782,1417,1751,-877,-1048,-567,-320,-63,145,-283
32866,3818,0,2023-03-01T18:58:03.244841,2072787,1417,1751,-877,-1048,-567,-320,-63,145,-283
32867,3819,0,2023-03-01T18:58:03.249853,2072793,1416,1751,-880,-1040,-578,-322,-63,145,-283
32868,3820,0,2023-03-01T18:58:03.255455,2072799,1416,1751,-880,-1040,-578,-322,-63,145,-283
32869,3821,0,2023-03-01T18:58:03.261100,2072804,1416,1751,-880,-1040,-578,-322,-63,145,-283
32870,3822,0,2023-03-01T18:58:03.266618,2072810,1416,1751,-880,-1040,-578,-322,-63,145,-283
32871,3823,0,2023-03-01T18:58:03.272391,2072815,1416,1750,-879,-1041,-583,-319,-63,145,-283
32872,3824,0,2023-03-01T18:58:03.278014,2072821,1416,1750,-879,-1041,-583,-319,-63,145,-283
32873,3825,0,2023-03-01T18:58:03.284245,2072827,1416,1750,-879,-1041,-583,-319,-63,145,-283
32874,3826,0,2023-03-01T18:58:03.288775,2072832,1416,1749,-878,-1047,-572,-315,-63,145,-283
32875,3827,0,2023-03-01T18:58:03.294307,2072838,1416,1749,-878,-1047,-572,-315,-63,145,-283
32876,3828,0,2023-03-01T18:58:03.299742,2072843,1416,1749,-878,-1047,-572,-315,-63,145,-283
32877,3829,0,2023-03-01T18:58:03.305207,2072848,1416,1749,-878,-1047,-572,-315,-63,145,-283
32878,3830,0,2023-03-01T18:58:03.310346,2072853,1416,1749,-876,-1029,-567,-309,-60,150,-284
32879,3831,0,2023-03-01T18:58:03.316482,2072859,1416,1749,-876,-1029,-567,-309,-60,150,-284
32880,3832,0,2023-03-01T18:58:03.321568,2072864,1416,1749,-876,-1029,-567,-309,-60,150,-284
32881,3833,0,2023-03-01T18:58:03.327071,2072870,1416,1749,-876,-1029,-567,-309,-60,150,-284
32882,3834,0,2023-03-01T18:58:03.332075,2072875,1418,1749,-884,-1037,-572,-320,-60,150,-284
32883,3835,0,2023-03-01T18:58:03.338115,2072881,1418,1749,-884,-1037,-572,-320,-60,150,-284
32884,3836,0,2023-03-01T18:58:03.344625,2072888,1418,1749,-884,-1037,-572,-320,-60,150,-284
32885,3837,0,2023-03-01T18:58:03.349539,2072893,1417,1751,-884,-1040,-575,-326,-60,150,-284
32886,3838,0,2023-03-01T18:58:03.355076,2072898,1417,1751,-884,-1040,-575,-326,-60,150,-284
32887,3839,0,2023-03-01T18:58:03.360810,2072903,1417,1751,-884,-1040,-575,-326,-60,150,-284
32888,3840,0,2023-03-01T18:58:03.366481,2072909,1417,1751,-884,-1040,-575,-326,-60,150,-284
32889,3841,0,2023-03-01T18:58:03.371941,2072914,1419,1752,-876,-1034,-573,-327,-60,150,-284
32890,3842,0,2023-03-01T18:58:03.377552,2072921,1419,1752,-876,-1034,-573,-327,-60,150,-284
32891,3843,0,2023-03-01T18:58:03.383457,2072927,1419,1752,-876,-1034,-573,-327,-60,150,-284
32892,3844,0,2023-03-01T18:58:03.388544,2072932,1419,1752,-876,-1034,-573,-327,-60,150,-284
32893,3845,0,2023-03-01T18:58:03.394258,2072937,1414,1749,-879,-1036,-569,-319,-60,150,-284
32894,3846,0,2023-03-01T18:58:03.399864,2072943,1414,1749,-879,-1036,-569,-319,-60,150,-284
32895,3847,0,2023-03-01T18:58:03.405855,2072948,1414,1749,-879,-1036,-569,-319,-60,150,-284
32896,3848,0,2023-03-01T18:58:03.410573,2072953,1416,1747,-882,-1042,-570,-323,-60,150,-284
32897,3849,0,2023-03-01T18:58:03.416244,2072960,1416,1747,-882,-1042,-570,-323,-60,150,-284
32898,3850,0,2023-03-01T18:58:03.421959,2072965,1416,1747,-882,-1042,-570,-323,-60,150,-284
32899,3851,0,2023-03-01T18:58:03.429819,2072973,1414,1749,-875,-1043,-566,-321,-61,159,-287
32900,3852,0,2023-03-01T18:58:03.435877,2072979,1414,1749,-875,-1043,-566,-321,-61,159,-287
32901,3853,0,2023-03-01T18:58:03.441672,2072985,1414,1749,-875,-1043,-566,-321,-61,159,-287
32902,3854,0,2023-03-01T18:58:03.447545,2072990,1414,1749,-875,-1043,-566,-321,-61,159,-287
32903,3855,0,2023-03-01T18:58:03.452566,2072995,1417,1753,-880,-1040,-567,-312,-61,159,-287
32904,3856,0,2023-03-01T18:58:03.458639,2073001,1417,1753,-880,-1040,-567,-312,-61,159,-287
32905,3857,0,2023-03-01T18:58:03.464377,2073008,1417,1753,-880,-1040,-567,-312,-61,159,-287
32906,3858,0,2023-03-01T18:58:03.469428,2073013,1415,1749,-877,-1042,-567,-312,-61,159,-287
32907,3859,0,2023-03-01T18:58:03.475597,2073018,1415,1749,-877,-1042,-567,-312,-61,159,-287
32908,3860,0,2023-03-01T18:58:03.481479,2073024,1415,1749,-877,-1042,-567,-312,-61,159,-287
32909,3861,0,2023-03-01T18:58:03.487486,2073030,1415,1749,-877,-1042,-567,-312,-61,159,-287
32910,3862,0,2023-03-01T18:58:03.492583,2073035,1418,1750,-879,-1036,-568,-322,-61,159,-287
32911,3863,0,2023-03-01T18:58:03.498112,2073041,1418,1750,-879,-1036,-568,-322,-61,159,-287
32912,3864,0,2023-03-01T18:58:03.504296,2073048,1418,1750,-879,-1036,-568,-322,-61,159,-287
32913,3865,0,2023-03-01T18:58:03.509427,2073052,1418,1750,-879,-1036,-568,-322,-61,159,-287
32914,3866,0,2023-03-01T18:58:03.514499,2073058,1416,1751,-877,-1030,-571,-322,-61,159,-287
32915,3867,0,2023-03-01T18:58:03.520369,2073063,1416,1751,-877,-1030,-571,-322,-61,159,-287
32916,3868,0,2023-03-01T18:58:03.525835,2073069,1416,1751,-877,-1030,-571,-322,-61,159,-287
32917,3869,0,2023-03-01T18:58:03.530745,2073073,1416,1748,-885,-1037,-575,-316,-61,159,-287
32918,3870,0,2023-03-01T18:58:03.538699,2073081,1416,1748,-885,-1037,-575,-316,-61,159,-287
32919,3871,0,2023-03-01T18:58:03.544409,2073088,1416,1748,-885,-1037,-575,-316,-61,159,-287
32920,3872,0,2023-03-01T18:58:03.549038,2073093,1416,1748,-885,-1037,-575,-316,-61,159,-287
32921,3873,0,2023-03-01T18:58:03.554142,2073097,1416,1747,-884,-1042,-580,-310,-56,152,-286
32922,3874,0,2023-03-01T18:58:03.560795,2073104,1416,1747,-884,-1042,-580,-310,-56,152,-286
32923,3875,0,2023-03-01T18:58:03.566596,2073110,1416,1747,-884,-1042,-580,-310,-56,152,-286
32924,3876,0,2023-03-01T18:58:03.571339,2073114,1416,1749,-879,-1040,-573,-317,-56,152,-286
32925,3877,0,2023-03-01T18:58:03.576654,2073119,1416,1749,-879,-1040,-573,-317,-56,152,-286
32926,3878,0,2023-03-01T18:58:03.582465,2073125,1416,1749,-879,-1040,-573,-317,-56,152,-286
32927,3879,0,2023-03-01T18:58:03.588393,2073132,1416,1749,-879,-1040,-573,-317,-56,152,-286
32928,3880,0,2023-03-01T18:58:03.593646,2073137,1413,1748,-878,-1037,-569,-319,-56,152,-286
32929,3881,0,2023-03-01T18:58:03.599489,2073143,1413,1748,-878,-1037,-569,-319,-56,152,-286
32930,3882,0,2023-03-01T18:58:03.605108,2073148,1413,1748,-878,-1037,-569,-319,-56,152,-286
32931,3883,0,2023-03-01T18:58:03.610033,2073153,1416,1749,-878,-1037,-571,-320,-56,152,-286
32932,3884,0,2023-03-01T18:58:03.615466,2073159,1416,1749,-878,-1037,-571,-320,-56,152,-286
32933,3885,0,2023-03-01T18:58:03.620236,2073163,1416,1749,-878,-1037,-571,-320,-56,152,-286
32934,3886,0,2023-03-01T18:58:03.626392,2073169,1416,1749,-878,-1037,-571,-320,-56,152,-286
32935,3887,0,2023-03-01T18:58:03.631243,2073175,1415,1750,-877,-1032,-571,-318,-56,152,-286
32936,3888,0,2023-03-01T18:58:03.636632,2073180,1415,1750,-877,-1032,-571,-318,-56,152,-286
32937,3889,0,2023-03-01T18:58:03.641862,2073185,1415,1750,-877,-1032,-571,-318,-56,152,-286
32938,3890,0,2023-03-01T18:58:03.648634,2073192,1415,1750,-877,-1032,-571,-318,-56,152,-286
32939,3891,0,2023-03-01T18:58:03.653739,2073196,1415,1751,-881,-1043,-570,-321,-56,152,-286
32940,3892,0,2023-03-01T18:58:03.659735,2073203,1415,1751,-881,-1043,-570,-321,-56,152,-286
32941,3893,0,2023-03-01T18:58:03.666196,2073209,1415,1751,-881,-1043,-570,-321,-56,152,-286
32942,3894,0,2023-03-01T18:58:03.671208,2073214,1419,1748,-877,-1038,-571,-319,-56,152,-286
32943,3895,0,2023-03-01T18:58:03.676945,2073220,1419,1748,-877,-1038,-571,-319,-56,152,-286
32944,3896,0,2023-03-01T18:58:03.682819,2073226,1419,1748,-877,-1038,-571,-319,-56,152,-286
32945,3897,0,2023-03-01T18:58:03.688384,2073232,1419,1748,-877,-1038,-571,-319,-56,152,-286
32946,3898,0,2023-03-01T18:58:03.693578,2073236,1413,1747,-874,-1042,-580,-323,-50,150,-284
32947,3899,0,2023-03-01T18:58:03.699416,2073242,1413,1747,-874,-1042,-580,-323,-50,150,-284
32948,3900,0,2023-03-01T18:58:03.705010,2073248,1413,1747,-874,-1042,-580,-323,-50,150,-284
32949,3901,0,2023-03-01T18:58:03.710165,2073253,1412,1748,-882,-1040,-573,-322,-50,150,-284
32950,3902,0,2023-03-01T18:58:03.715341,2073259,1412,1748,-882,-1040,-573,-322,-50,150,-284
32951,3903,0,2023-03-01T18:58:03.720891,2073264,1412,1748,-882,-1040,-573,-322,-50,150,-284
32952,3904,0,2023-03-01T18:58:03.726301,2073270,1412,1748,-882,-1040,-573,-322,-50,150,-284
32953,3905,0,2023-03-01T18:58:03.731470,2073274,1416,1749,-884,-1039,-577,-322,-50,150,-284
32954,3906,0,2023-03-01T18:58:03.737508,2073280,1416,1749,-884,-1039,-577,-322,-50,150,-284
32955,3907,0,2023-03-01T18:58:03.744235,2073287,1416,1749,-884,-1039,-577,-322,-50,150,-284
32956,3908,0,2023-03-01T18:58:03.749071,2073292,1416,1749,-884,-1039,-577,-322,-50,150,-284
32957,3909,0,2023-03-01T18:58:03.754209,2073297,1413,1750,-882,-1043,-577,-319,-50,150,-284
32958,3910,0,2023-03-01T18:58:03.760267,2073304,1413,1750,-882,-1043,-577,-319,-50,150,-284
32959,3911,0,2023-03-01T18:58:03.765818,2073309,1413,1750,-882,-1043,-577,-319,-50,150,-284
32960,3912,0,2023-03-01T18:58:03.770784,2073314,1415,1747,-881,-1041,-570,-324,-50,150,-284
32961,3913,0,2023-03-01T18:58:03.776266,2073319,1415,1747,-881,-1041,-570,-324,-50,150,-284
32962,3914,0,2023-03-01T18:58:03.782592,2073325,1415,1747,-881,-1041,-570,-324,-50,150,-284
32963,3915,0,2023-03-01T18:58:03.788104,2073331,1415,1747,-881,-1041,-570,-324,-50,150,-284
32964,3916,0,2023-03-01T18:58:03.792833,2073336,1415,1748,-879,-1031,-570,-319,-50,150,-284
32965,3917,0,2023-03-01T18:58:03.798420,2073341,1415,1748,-879,-1031,-570,-319,-50,150,-284
32966,3918,0,2023-03-01T18:58:03.804498,2073348,1415,1748,-879,-1031,-570,-319,-50,150,-284
32967,3919,0,2023-03-01T18:58:03.810233,2073353,1415,1748,-879,-1031,-570,-319,-50,150,-284
32968,3920,0,2023-03-01T18:58:03.815299,2073359,1415,1749,-880,-1033,-570,-328,-62,150,-288
32969,3921,0,2023-03-01T18:58:03.821651,2073365,1415,1749,-880,-1033,-570,-328,-62,150,-288
32970,3922,0,2023-03-01T18:58:03.827080,2073370,1415,1749,-880,-1033,-570,-328,-62,150,-288
32971,3923,0,2023-03-01T18:58:03.832188,2073375,1417,1749,-881,-1039,-576,-324,-62,150,-288
32972,3924,0,2023-03-01T18:58:03.837665,2073380,1417,1749,-881,-1039,-576,-324,-62,150,-288
32973,3925,0,2023-03-01T18:58:03.843925,2073387,1417,1749,-881,-1039,-576,-324,-62,150,-288
32974,3926,0,2023-03-01T18:58:03.848800,2073392,1417,1749,-881,-1039,-576,-324,-62,150,-288
32975,3927,0,2023-03-01T18:58:03.853694,2073397,1413,1748,-881,-1038,-580,-313,-62,150,-288
32976,3928,0,2023-03-01T18:58:03.860023,2073402,1413,1748,-881,-1038,-580,-313,-62,150,-288
32977,3929,0,2023-03-01T18:58:03.866504,2073409,1413,1748,-881,-1038,-580,-313,-62,150,-288
32978,3930,0,2023-03-01T18:58:03.871561,2073414,1414,1748,-876,-1037,-583,-314,-62,150,-288
32979,3931,0,2023-03-01T18:58:03.877082,2073420,1414,1748,-876,-1037,-583,-314,-62,150,-288
32980,3932,0,2023-03-01T18:58:03.882632,2073425,1414,1748,-876,-1037,-583,-314,-62,150,-288
32981,3933,0,2023-03-01T18:58:03.888373,2073432,1414,1748,-876,-1037,-583,-314,-62,150,-288
32982,3934,0,2023-03-01T18:58:03.893675,2073437,1419,1748,-880,-1029,-572,-319,-62,150,-288
32983,3935,0,2023-03-01T18:58:03.898524,2073442,1419,1748,-880,-1029,-572,-319,-62,150,-288
32984,3936,0,2023-03-01T18:58:03.904228,2073447,1419,1748,-880,-1029,-572,-319,-62,150,-288
32985,3937,0,2023-03-01T18:58:03.909483,2073453,1419,1748,-880,-1029,-572,-319,-62,150,-288
32986,3938,0,2023-03-01T18:58:03.914249,2073457,1415,1751,-882,-1038,-571,-318,-62,150,-288
32987,3939,0,2023-03-01T18:58:03.920194,2073463,1415,1751,-882,-1038,-571,-318,-62,150,-288
32988,3940,0,2023-03-01T18:58:03.926969,2073469,1415,1751,-882,-1038,-571,-318,-62,150,-288
32989,3941,0,2023-03-01T18:58:03.932320,2073476,1416,1751,-880,-1038,-574,-321,-62,150,-288
32990,3942,0,2023-03-01T18:58:03.937826,2073481,1416,1751,-880,-1038,-574,-321,-62,150,-288
32991,3943,0,2023-03-01T18:58:03.944383,2073487,1416,1751,-880,-1038,-574,-321,-62,150,-288
32992,3944,0,2023-03-01T18:58:03.949445,2073492,1416,1751,-880,-1038,-574,-321,-62,150,-288
32993,3945,0,2023-03-01T18:58:03.954290,2073497,1415,1748,-877,-1033,-564,-329,-57,157,-287
32994,3946,0,2023-03-01T18:58:03.960431,2073503,1415,1748,-877,-1033,-564,-329,-57,157,-287
32995,3947,0,2023-03-01T18:58:03.966917,2073510,1415,1748,-877,-1033,-564,-329,-57,157,-287
32996,3948,0,2023-03-01T18:58:03.972139,2073515,1417,1748,-876,-1041,-566,-325,-57,157,-287
32997,3949,0,2023-03-01T18:58:03.978308,2073521,1417,1748,-876,-1041,-566,-325,-57,157,-287
32998,3950,0,2023-03-01T18:58:03.984891,2073528,1417,1748,-876,-1041,-566,-325,-57,157,-287
32999,3951,0,2023-03-01T18:58:03.989894,2073533,1417,1748,-876,-1041,-566,-325,-57,157,-287
33000,3952,0,2023-03-01T18:58:03.995080,2073538,1417,1750,-876,-1042,-569,-322,-57,157,-287
33001,3953,0,2023-03-01T18:58:04.001916,2073545,1417,1750,-876,-1042,-569,-322,-57,157,-287
33002,3954,0,2023-03-01T18:58:04.007672,2073550,1417,1750,-876,-1042,-569,-322,-57,157,-287
33003,3955,0,2023-03-01T18:58:04.012237,2073555,1412,1748,-882,-1043,-571,-320,-57,157,-287
33004,3956,0,2023-03-01T18:58:04.017936,2073561,1412,1748,-882,-1043,-571,-320,-57,157,-287
33005,3957,0,2023-03-01T18:58:04.024308,2073567,1412,1748,-882,-1043,-571,-320,-57,157,-287
33006,3958,0,2023-03-01T18:58:04.028842,2073572,1412,1748,-882,-1043,-571,-320,-57,157,-287
33007,3959,0,2023-03-01T18:58:04.034113,2073577,1415,1750,-877,-1033,-569,-312,-57,157,-287
33008,3960,0,2023-03-01T18:58:04.039936,2073583,1415,1750,-877,-1033,-569,-312,-57,157,-287
33009,3961,0,2023-03-01T18:58:04.046213,2073589,1415,1750,-877,-1033,-569,-312,-57,157,-287
33010,3962,0,2023-03-01T18:58:04.051148,2073594,1415,1748,-880,-1042,-575,-319,-57,157,-287
33011,3963,0,2023-03-01T18:58:04.056761,2073600,1415,1748,-880,-1042,-575,-319,-57,157,-287
33012,3964,0,2023-03-01T18:58:04.062076,2073605,1415,1748,-880,-1042,-575,-319,-57,157,-287
33013,3965,0,2023-03-01T18:58:04.068838,2073612,1415,1748,-880,-1042,-575,-319,-57,157,-287
33014,3966,0,2023-03-01T18:58:04.073638,2073617,1418,1750,-880,-1034,-569,-320,-68,154,-284
33015,3967,0,2023-03-01T18:58:04.080029,2073623,1418,1750,-880,-1034,-569,-320,-68,154,-284
33016,3968,0,2023-03-01T18:58:04.086597,2073629,1418,1750,-880,-1034,-569,-320,-68,154,-284
33017,3969,0,2023-03-01T18:58:04.091721,2073634,1416,1751,-877,-1030,-564,-320,-68,154,-284
33018,3970,0,2023-03-01T18:58:04.096918,2073639,1416,1751,-877,-1030,-564,-320,-68,154,-284
33019,3971,0,2023-03-01T18:58:04.102330,2073646,1416,1751,-877,-1030,-564,-320,-68,154,-284
33020,3972,0,2023-03-01T18:58:04.107776,2073651,1416,1751,-877,-1030,-564,-320,-68,154,-284
33021,3973,0,2023-03-01T18:58:04.112929,2073656,1413,1750,-882,-1033,-574,-317,-68,154,-284
33022,3974,0,2023-03-01T18:58:04.118565,2073662,1413,1750,-882,-1033,-574,-317,-68,154,-284
33023,3975,0,2023-03-01T18:58:04.124768,2073668,1413,1750,-882,-1033,-574,-317,-68,154,-284
33024,3976,0,2023-03-01T18:58:04.129671,2073672,1413,1750,-882,-1033,-574,-317,-68,154,-284
33025,3977,0,2023-03-01T18:58:04.135137,2073678,1415,1748,-882,-1046,-571,-322,-68,154,-284
33026,3978,0,2023-03-01T18:58:04.141483,2073684,1415,1748,-882,-1046,-571,-322,-68,154,-284
33027,3979,0,2023-03-01T18:58:04.147346,2073690,1415,1748,-882,-1046,-571,-322,-68,154,-284
33028,3980,0,2023-03-01T18:58:04.152377,2073696,1416,1750,-880,-1035,-569,-321,-68,154,-284
33029,3981,0,2023-03-01T18:58:04.158539,2073701,1416,1750,-880,-1035,-569,-321,-68,154,-284
33030,3982,0,2023-03-01T18:58:04.165261,2073708,1416,1750,-880,-1035,-569,-321,-68,154,-284
33031,3983,0,2023-03-01T18:58:04.170852,2073713,1414,1750,-880,-1038,-570,-328,-68,154,-284
33032,3984,0,2023-03-01T18:58:04.176644,2073719,1414,1750,-880,-1038,-570,-328,-68,154,-284
33033,3985,0,2023-03-01T18:58:04.182171,2073725,1414,1750,-880,-1038,-570,-328,-68,154,-284
33034,3986,0,2023-03-01T18:58:04.187774,2073731,1414,1750,-880,-1038,-570,-328,-68,154,-284
33035,3987,0,2023-03-01T18:58:04.193534,2073737,1420,1750,-880,-1043,-575,-321,-68,154,-284
33036,3988,0,2023-03-01T18:58:04.199078,2073742,1420,1750,-880,-1043,-575,-321,-68,154,-284
33037,3989,0,2023-03-01T18:58:04.204842,2073748,1420,1750,-880,-1043,-575,-321,-68,154,-284
33038,3990,0,2023-03-01T18:58:04.209449,2073753,1420,1750,-880,-1043,-575,-321,-68,154,-284
33039,3991,0,2023-03-01T18:58:04.214511,2073757,1418,1750,-874,-1043,-572,-321,-61,157,-283
33040,3992,0,2023-03-01T18:58:04.220107,2073763,1418,1750,-874,-1043,-572,-321,-61,157,-283
33041,3993,0,2023-03-01T18:58:04.226020,2073769,1418,1750,-874,-1043,-572,-321,-61,157,-283
33042,3994,0,2023-03-01T18:58:04.230829,2073774,1416,1749,-872,-1039,-571,-322,-61,157,-283
33043,3995,0,2023-03-01T18:58:04.236404,2073780,1416,1749,-872,-1039,-571,-322,-61,157,-283
33044,3996,0,2023-03-01T18:58:04.241476,2073785,1416,1749,-872,-1039,-571,-322,-61,157,-283
33045,3997,0,2023-03-01T18:58:04.246780,2073790,1416,1749,-872,-1039,-571,-322,-61,157,-283
33046,3998,0,2023-03-01T18:58:04.251775,2073795,1415,1752,-880,-1032,-569,-316,-61,157,-283
33047,3999,0,2023-03-01T18:58:04.257022,2073800,1415,1752,-880,-1032,-569,-316,-61,157,-283
33048,4000,0,2023-03-01T18:58:04.262754,2073806,1415,1752,-880,-1032,-569,-316,-61,157,-283
33049,4001,0,2023-03-01T18:58:04.268136,2073811,1415,1752,-880,-1032,-569,-316,-61,157,-283
33050,4002,0,2023-03-01T18:58:04.273246,2073816,1419,1749,-881,-1043,-570,-324,-61,157,-283
33051,4003,0,2023-03-01T18:58:04.279034,2073822,1419,1749,-881,-1043,-570,-324,-61,157,-283
33052,4004,0,2023-03-01T18:58:04.285236,2073829,1419,1749,-881,-1043,-570,-324,-61,157,-283
33053,4005,0,2023-03-01T18:58:04.290099,2073833,1418,1752,-882,-1034,-570,-324,-61,157,-283
33054,4006,0,2023-03-01T18:58:04.296253,2073839,1418,1752,-882,-1034,-570,-324,-61,157,-283
33055,4007,0,2023-03-01T18:58:04.301978,2073845,1418,1752,-882,-1034,-570,-324,-61,157,-283
33056,4008,0,2023-03-01T18:58:04.307959,2073850,1418,1752,-882,-1034,-570,-324,-61,157,-283
33057,4009,0,2023-03-01T18:58:04.313099,2073857,1413,1752,-879,-1038,-565,-332,-61,157,-283
33058,4010,0,2023-03-01T18:58:04.318686,2073862,1413,1752,-879,-1038,-565,-332,-61,157,-283
33059,4011,0,2023-03-01T18:58:04.324977,2073868,1413,1752,-879,-1038,-565,-332,-61,157,-283
33060,4012,0,2023-03-01T18:58:04.329821,2073873,1413,1752,-879,-1038,-565,-332,-61,157,-283
33061,4013,0,2023-03-01T18:58:04.334793,2073878,1416,1751,-875,-1037,-570,-324,-55,159,-285
33062,4014,0,2023-03-01T18:58:04.341277,2073884,1416,1751,-875,-1037,-570,-324,-55,159,-285
33063,4015,0,2023-03-01T18:58:04.346929,2073890,1416,1751,-875,-1037,-570,-324,-55,159,-285
33064,4016,0,2023-03-01T18:58:04.351794,2073894,1413,1748,-876,-1037,-569,-323,-55,159,-285
33065,4017,0,2023-03-01T18:58:04.357371,2073901,1413,1748,-876,-1037,-569,-323,-55,159,-285
33066,4018,0,2023-03-01T18:58:04.362664,2073906,1413,1748,-876,-1037,-569,-323,-55,159,-285
33067,4019,0,2023-03-01T18:58:04.368336,2073912,1413,1748,-876,-1037,-569,-323,-55,159,-285
33068,4020,0,2023-03-01T18:58:04.373199,2073917,1416,1751,-882,-1040,-569,-329,-55,159,-285
33069,4021,0,2023-03-01T18:58:04.378335,2073921,1416,1751,-882,-1040,-569,-329,-55,159,-285
33070,4022,0,2023-03-01T18:58:04.384689,2073927,1416,1751,-882,-1040,-569,-329,-55,159,-285
33071,4023,0,2023-03-01T18:58:04.389787,2073932,1416,1751,-882,-1040,-569,-329,-55,159,-285
33072,4024,0,2023-03-01T18:58:04.395300,2073938,1417,1751,-881,-1041,-576,-329,-55,159,-285
33073,4025,0,2023-03-01T18:58:04.401613,2073945,1417,1751,-881,-1041,-576,-329,-55,159,-285
33074,4026,0,2023-03-01T18:58:04.408512,2073952,1417,1751,-881,-1041,-576,-329,-55,159,-285
33075,4027,0,2023-03-01T18:58:04.413403,2073957,1416,1749,-876,-1030,-572,-324,-55,159,-285
33076,4028,0,2023-03-01T18:58:04.419513,2073962,1416,1749,-876,-1030,-572,-324,-55,159,-285
33077,4029,0,2023-03-01T18:58:04.426393,2073969,1416,1749,-876,-1030,-572,-324,-55,159,-285
33078,4030,0,2023-03-01T18:58:04.431228,2073974,1415,1749,-879,-1053,-581,-321,-55,159,-285
33079,4031,0,2023-03-01T18:58:04.437052,2073980,1415,1749,-879,-1053,-581,-321,-55,159,-285
33080,4032,0,2023-03-01T18:58:04.441839,2073985,1415,1749,-879,-1053,-581,-321,-55,159,-285
33081,4033,0,2023-03-01T18:58:04.447460,2073991,1415,1749,-879,-1053,-581,-321,-55,159,-285
33082,4034,0,2023-03-01T18:58:04.452462,2073996,1415,1752,-887,-1037,-570,-317,-58,154,-290
33083,4035,0,2023-03-01T18:58:04.458422,2074002,1415,1752,-887,-1037,-570,-317,-58,154,-290
33084,4036,0,2023-03-01T18:58:04.464558,2074007,1415,1752,-887,-1037,-570,-317,-58,154,-290
33085,4037,0,2023-03-01T18:58:04.469891,2074013,1415,1752,-887,-1037,-570,-317,-58,154,-290
33086,4038,0,2023-03-01T18:58:04.475235,2074018,1418,1748,-879,-1040,-565,-316,-58,154,-290
33087,4039,0,2023-03-01T18:58:04.481132,2074024,1418,1748,-879,-1040,-565,-316,-58,154,-290
33088,4040,0,2023-03-01T18:58:04.487326,2074031,1418,1748,-879,-1040,-565,-316,-58,154,-290
33089,4041,0,2023-03-01T18:58:04.492598,2074036,1416,1754,-879,-1032,-566,-320,-58,154,-290
33090,4042,0,2023-03-01T18:58:04.498502,2074042,1416,1754,-879,-1032,-566,-320,-58,154,-290
33091,4043,0,2023-03-01T18:58:04.504986,2074048,1416,1754,-879,-1032,-566,-320,-58,154,-290
33092,4044,0,2023-03-01T18:58:04.510321,2074053,1413,1748,-881,-1037,-574,-323,-58,154,-290
33093,4045,0,2023-03-01T18:58:04.516156,2074059,1413,1748,-881,-1037,-574,-323,-58,154,-290
33094,4046,0,2023-03-01T18:58:04.522620,2074065,1413,1748,-881,-1037,-574,-323,-58,154,-290
33095,4047,0,2023-03-01T18:58:04.528781,2074072,1413,1748,-881,-1037,-574,-323,-58,154,-290
33096,4048,0,2023-03-01T18:58:04.534275,2074077,1415,1750,-881,-1039,-570,-328,-58,154,-290
33097,4049,0,2023-03-01T18:58:04.539822,2074083,1415,1750,-881,-1039,-570,-328,-58,154,-290
33098,4050,0,2023-03-01T18:58:04.545543,2074089,1415,1750,-881,-1039,-570,-328,-58,154,-290
33099,4051,0,2023-03-01T18:58:04.550522,2074093,1415,1750,-881,-1039,-570,-328,-58,154,-290
33100,4052,0,2023-03-01T18:58:04.555439,2074098,1415,1753,-885,-1040,-568,-321,-58,154,-290
33101,4053,0,2023-03-01T18:58:04.562571,2074105,1415,1753,-885,-1040,-568,-321,-58,154,-290
33102,4054,0,2023-03-01T18:58:04.568477,2074112,1415,1753,-885,-1040,-568,-321,-58,154,-290
33103,4055,0,2023-03-01T18:58:04.573305,2074117,1416,1748,-883,-1037,-569,-320,-58,154,-290
33104,4056,0,2023-03-01T18:58:04.579415,2074122,1416,1748,-883,-1037,-569,-320,-58,154,-290
33105,4057,0,2023-03-01T18:58:04.586530,2074130,1416,1748,-883,-1037,-569,-320,-58,154,-290
33106,4058,0,2023-03-01T18:58:04.591800,2074135,1415,1750,-874,-1038,-570,-323,-57,155,-291
33107,4059,0,2023-03-01T18:58:04.597154,2074140,1415,1750,-874,-1038,-570,-323,-57,155,-291
33108,4060,0,2023-03-01T18:58:04.602023,2074145,1415,1750,-874,-1038,-570,-323,-57,155,-291
33109,4061,0,2023-03-01T18:58:04.607790,2074150,1415,1750,-874,-1038,-570,-323,-57,155,-291
33110,4062,0,2023-03-01T18:58:04.612636,2074156,1414,1750,-875,-1038,-571,-320,-57,155,-291
33111,4063,0,2023-03-01T18:58:04.618918,2074162,1414,1750,-875,-1038,-571,-320,-57,155,-291
33112,4064,0,2023-03-01T18:58:04.625663,2074169,1414,1750,-875,-1038,-571,-320,-57,155,-291
33113,4065,0,2023-03-01T18:58:04.630803,2074174,1416,1751,-876,-1038,-575,-319,-57,155,-291
33114,4066,0,2023-03-01T18:58:04.636388,2074180,1416,1751,-876,-1038,-575,-319,-57,155,-291
33115,4067,0,2023-03-01T18:58:04.641241,2074184,1416,1751,-876,-1038,-575,-319,-57,155,-291
33116,4068,0,2023-03-01T18:58:04.646070,2074189,1416,1751,-876,-1038,-575,-319,-57,155,-291
33117,4069,0,2023-03-01T18:58:04.651368,2074194,1414,1752,-873,-1049,-575,-321,-57,155,-291
33118,4070,0,2023-03-01T18:58:04.656239,2074200,1414,1752,-873,-1049,-575,-321,-57,155,-291
33119,4071,0,2023-03-01T18:58:04.661010,2074205,1414,1752,-873,-1049,-575,-321,-57,155,-291
33120,4072,0,2023-03-01T18:58:04.666526,2074210,1414,1752,-873,-1049,-575,-321,-57,155,-291
33121,4073,0,2023-03-01T18:58:04.671580,2074215,1416,1750,-882,-1039,-576,-322,-57,155,-291
33122,4074,0,2023-03-01T18:58:04.677561,2074221,1416,1750,-882,-1039,-576,-322,-57,155,-291
33123,4075,0,2023-03-01T18:58:04.684335,2074227,1416,1750,-882,-1039,-576,-322,-57,155,-291
33124,4076,0,2023-03-01T18:58:04.689326,2074232,1416,1750,-882,-1039,-576,-322,-57,155,-291
33125,4077,0,2023-03-01T18:58:04.694979,2074237,1414,1750,-877,-1041,-576,-319,-57,155,-291
33126,4078,0,2023-03-01T18:58:04.700930,2074244,1414,1750,-877,-1041,-576,-319,-57,155,-291
33127,4079,0,2023-03-01T18:58:04.706830,2074250,1414,1750,-877,-1041,-576,-319,-57,155,-291
33128,4080,0,2023-03-01T18:58:04.712032,2074255,1413,1749,-880,-1041,-571,-320,-59,149,-289
33129,4081,0,2023-03-01T18:58:04.717640,2074261,1413,1749,-880,-1041,-571,-320,-59,149,-289
33130,4082,0,2023-03-01T18:58:04.723550,2074266,1413,1749,-880,-1041,-571,-320,-59,149,-289
33131,4083,0,2023-03-01T18:58:04.729511,2074272,1413,1749,-880,-1041,-571,-320,-59,149,-289
33132,4084,0,2023-03-01T18:58:04.734708,2074277,1417,1751,-879,-1034,-567,-324,-59,149,-289
33133,4085,0,2023-03-01T18:58:04.740635,2074284,1417,1751,-879,-1034,-567,-324,-59,149,-289
33134,4086,0,2023-03-01T18:58:04.746750,2074290,1417,1751,-879,-1034,-567,-324,-59,149,-289
33135,4087,0,2023-03-01T18:58:04.751695,2074295,1416,1749,-873,-1040,-572,-318,-59,149,-289
33136,4088,0,2023-03-01T18:58:04.757938,2074301,1416,1749,-873,-1040,-572,-318,-59,149,-289
33137,4089,0,2023-03-01T18:58:04.763897,2074307,1416,1749,-873,-1040,-572,-318,-59,149,-289
33138,4090,0,2023-03-01T18:58:04.769331,2074312,1416,1749,-873,-1040,-572,-318,-59,149,-289
33139,4091,0,2023-03-01T18:58:04.774448,2074317,1416,1750,-876,-1039,-579,-313,-59,149,-289
33140,4092,0,2023-03-01T18:58:04.780165,2074322,1416,1750,-876,-1039,-579,-313,-59,149,-289
33141,4093,0,2023-03-01T18:58:04.786936,2074330,1416,1750,-876,-1039,-579,-313,-59,149,-289
33142,4094,0,2023-03-01T18:58:04.792179,2074336,1416,1752,-883,-1036,-575,-314,-59,149,-289
33143,4095,0,2023-03-01T18:58:04.797512,2074341,1416,1752,-883,-1036,-575,-314,-59,149,-289
33144,4096,0,2023-03-01T18:58:04.803496,2074347,1416,1752,-883,-1036,-575,-314,-59,149,-289
33145,4097,0,2023-03-01T18:58:04.809219,2074352,1416,1752,-883,-1036,-575,-314,-59,149,-289
33146,4098,0,2023-03-01T18:58:04.814584,2074357,1416,1751,-883,-1031,-569,-320,-59,149,-289
33147,4099,0,2023-03-01T18:58:04.820162,2074363,1416,1751,-883,-1031,-569,-320,-59,149,-289
33148,4100,0,2023-03-01T18:58:04.825062,2074369,1416,1751,-883,-1031,-569,-320,-59,149,-289
33149,4101,0,2023-03-01T18:58:04.829599,2074373,1416,1751,-883,-1031,-569,-320,-59,149,-289
33150,4102,0,2023-03-01T18:58:04.835153,2074378,1413,1749,-884,-1035,-575,-317,-59,149,-289
33151,4103,0,2023-03-01T18:58:04.841070,2074384,1413,1749,-884,-1035,-575,-317,-59,149,-289
33152,4104,0,2023-03-01T18:58:04.848139,2074391,1413,1749,-884,-1035,-575,-317,-59,149,-289
33153,4105,0,2023-03-01T18:58:04.853230,2074396,1412,1750,-880,-1038,-567,-318,-63,151,-291
33154,4106,0,2023-03-01T18:58:04.858611,2074402,1412,1750,-880,-1038,-567,-318,-63,151,-291
33155,4107,0,2023-03-01T18:58:04.864037,2074407,1412,1750,-880,-1038,-567,-318,-63,151,-291
33156,4108,0,2023-03-01T18:58:04.869163,2074413,1412,1750,-880,-1038,-567,-318,-63,151,-291
33157,4109,0,2023-03-01T18:58:04.873974,2074418,1416,1749,-880,-1039,-576,-316,-63,151,-291
33158,4110,0,2023-03-01T18:58:04.879199,2074423,1416,1749,-880,-1039,-576,-316,-63,151,-291
33159,4111,0,2023-03-01T18:58:04.884784,2074428,1416,1749,-880,-1039,-576,-316,-63,151,-291
33160,4112,0,2023-03-01T18:58:04.889601,2074433,1416,1749,-880,-1039,-576,-316,-63,151,-291
33161,4113,0,2023-03-01T18:58:04.895404,2074438,1415,1749,-879,-1030,-578,-314,-63,151,-291
33162,4114,0,2023-03-01T18:58:04.901783,2074445,1415,1749,-879,-1030,-578,-314,-63,151,-291
33163,4115,0,2023-03-01T18:58:04.907388,2074450,1415,1749,-879,-1030,-578,-314,-63,151,-291
33164,4116,0,2023-03-01T18:58:04.912268,2074456,1415,1747,-884,-1037,-578,-322,-63,151,-291
33165,4117,0,2023-03-01T18:58:04.918005,2074461,1415,1747,-884,-1037,-578,-322,-63,151,-291
33166,4118,0,2023-03-01T18:58:04.924259,2074468,1415,1747,-884,-1037,-578,-322,-63,151,-291
33167,4119,0,2023-03-01T18:58:04.928993,2074472,1415,1747,-884,-1037,-578,-322,-63,151,-291
33168,4120,0,2023-03-01T18:58:04.933817,2074477,1416,1751,-874,-1046,-576,-321,-63,151,-291
33169,4121,0,2023-03-01T18:58:04.939302,2074482,1416,1751,-874,-1046,-576,-321,-63,151,-291
33170,4122,0,2023-03-01T18:58:04.945151,2074488,1416,1751,-874,-1046,-576,-321,-63,151,-291
33171,4123,0,2023-03-01T18:58:04.950113,2074493,1416,1751,-874,-1046,-576,-321,-63,151,-291
33172,4124,0,2023-03-01T18:58:04.956710,2074500,1410,1750,-882,-1044,-569,-325,-63,151,-291
33173,4125,0,2023-03-01T18:58:04.963259,2074507,1410,1750,-882,-1044,-569,-325,-63,151,-291
33174,4126,0,2023-03-01T18:58:04.968890,2074512,1410,1750,-882,-1044,-569,-325,-63,151,-291
33175,4127,0,2023-03-01T18:58:04.973912,2074517,1414,1752,-876,-1037,-567,-317,-59,157,-283
33176,4128,0,2023-03-01T18:58:04.979827,2074523,1414,1752,-876,-1037,-567,-317,-59,157,-283
33177,4129,0,2023-03-01T18:58:04.986571,2074529,1414,1752,-876,-1037,-567,-317,-59,157,-283
33178,4130,0,2023-03-01T18:58:04.991782,2074534,1415,1749,-877,-1029,-574,-312,-59,157,-283
33179,4131,0,2023-03-01T18:58:04.997537,2074541,1415,1749,-877,-1029,-574,-312,-59,157,-283
33180,4132,0,2023-03-01T18:58:05.002169,2074546,1415,1749,-877,-1029,-574,-312,-59,157,-283
33181,4133,0,2023-03-01T18:58:05.008207,2074551,1415,1749,-877,-1029,-574,-312,-59,157,-283
33182,4134,0,2023-03-01T18:58:05.013212,2074556,1413,1751,-882,-1035,-573,-313,-59,157,-283
33183,4135,0,2023-03-01T18:58:05.019179,2074562,1413,1751,-882,-1035,-573,-313,-59,157,-283
33184,4136,0,2023-03-01T18:58:05.025255,2074568,1413,1751,-882,-1035,-573,-313,-59,157,-283
33185,4137,0,2023-03-01T18:58:05.030508,2074573,1413,1751,-882,-1035,-573,-313,-59,157,-283
33186,4138,0,2023-03-01T18:58:05.036338,2074579,1416,1751,-885,-1041,-579,-311,-59,157,-283
33187,4139,0,2023-03-01T18:58:05.042327,2074586,1416,1751,-885,-1041,-579,-311,-59,157,-283
33188,4140,0,2023-03-01T18:58:05.047897,2074591,1416,1751,-885,-1041,-579,-311,-59,157,-283
33189,4141,0,2023-03-01T18:58:05.052814,2074596,1414,1749,-874,-1043,-572,-317,-59,157,-283
33190,4142,0,2023-03-01T18:58:05.059188,2074602,1414,1749,-874,-1043,-572,-317,-59,157,-283
33191,4143,0,2023-03-01T18:58:05.067025,2074610,1414,1749,-874,-1043,-572,-317,-59,157,-283
33192,4144,0,2023-03-01T18:58:05.072443,2074615,1414,1752,-878,-1044,-568,-316,-59,157,-283
33193,4145,0,2023-03-01T18:58:05.077851,2074621,1414,1752,-878,-1044,-568,-316,-59,157,-283
33194,4146,0,2023-03-01T18:58:05.083109,2074627,1414,1752,-878,-1044,-568,-316,-59,157,-283
33195,4147,0,2023-03-01T18:58:05.088577,2074632,1414,1752,-878,-1044,-568,-316,-59,157,-283
33196,4148,0,2023-03-01T18:58:05.094154,2074637,1416,1752,-881,-1048,-569,-316,-59,157,-283
33197,4149,0,2023-03-01T18:58:05.099748,2074643,1416,1752,-881,-1048,-569,-316,-59,157,-283
33198,4150,0,2023-03-01T18:58:05.105807,2074649,1416,1752,-881,-1048,-569,-316,-59,157,-283
33199,4151,0,2023-03-01T18:58:05.110356,2074654,1416,1752,-881,-1048,-569,-316,-59,157,-283
33200,4152,0,2023-03-01T18:58:05.115604,2074658,1415,1751,-872,-1047,-569,-312,-57,153,-287
33201,4153,0,2023-03-01T18:58:05.121833,2074664,1415,1751,-872,-1047,-569,-312,-57,153,-287
33202,4154,0,2023-03-01T18:58:05.126662,2074670,1415,1751,-872,-1047,-569,-312,-57,153,-287
33203,4155,0,2023-03-01T18:58:05.131989,2074675,1415,1751,-880,-1048,-569,-317,-57,153,-287
33204,4156,0,2023-03-01T18:58:05.137095,2074681,1415,1751,-880,-1048,-569,-317,-57,153,-287
33205,4157,0,2023-03-01T18:58:05.142723,2074686,1415,1751,-880,-1048,-569,-317,-57,153,-287
33206,4158,0,2023-03-01T18:58:05.148820,2074691,1415,1751,-880,-1048,-569,-317,-57,153,-287
33207,4159,0,2023-03-01T18:58:05.154325,2074696,1412,1752,-881,-1042,-569,-318,-57,153,-287
33208,4160,0,2023-03-01T18:58:05.159906,2074703,1412,1752,-881,-1042,-569,-318,-57,153,-287
33209,4161,0,2023-03-01T18:58:05.165730,2074708,1412,1752,-881,-1042,-569,-318,-57,153,-287
33210,4162,0,2023-03-01T18:58:05.172029,2074714,1412,1752,-881,-1042,-569,-318,-57,153,-287
33211,4163,0,2023-03-01T18:58:05.177273,2074720,1413,1749,-882,-1035,-570,-316,-57,153,-287
33212,4164,0,2023-03-01T18:58:05.183988,2074727,1413,1749,-882,-1035,-570,-316,-57,153,-287
33213,4165,0,2023-03-01T18:58:05.189621,2074733,1413,1749,-882,-1035,-570,-316,-57,153,-287
33214,4166,0,2023-03-01T18:58:05.194820,2074737,1415,1747,-881,-1039,-568,-318,-57,153,-287
33215,4167,0,2023-03-01T18:58:05.200542,2074743,1415,1747,-881,-1039,-568,-318,-57,153,-287
33216,4168,0,2023-03-01T18:58:05.207234,2074750,1415,1747,-881,-1039,-568,-318,-57,153,-287
33217,4169,0,2023-03-01T18:58:05.213074,2074756,1415,1750,-884,-1035,-575,-320,-57,153,-287
33218,4170,0,2023-03-01T18:58:05.218782,2074762,1415,1750,-884,-1035,-575,-320,-57,153,-287
33219,4171,0,2023-03-01T18:58:05.223504,2074767,1415,1750,-884,-1035,-575,-320,-57,153,-287
33220,4172,0,2023-03-01T18:58:05.228687,2074772,1415,1750,-884,-1035,-575,-320,-57,153,-287
33221,4173,0,2023-03-01T18:58:05.233322,2074777,1416,1750,-879,-1027,-572,-323,-70,154,-284
33222,4174,0,2023-03-01T18:58:05.239505,2074782,1416,1750,-879,-1027,-572,-323,-70,154,-284
33223,4175,0,2023-03-01T18:58:05.245892,2074789,1416,1750,-879,-1027,-572,-323,-70,154,-284
33224,4176,0,2023-03-01T18:58:05.250849,2074795,1416,1750,-879,-1027,-572,-323,-70,154,-284
33225,4177,0,2023-03-01T18:58:05.255831,2074799,1414,1749,-877,-1034,-570,-319,-70,154,-284
33226,4178,0,2023-03-01T18:58:05.261913,2074805,1414,1749,-877,-1034,-570,-319,-70,154,-284
33227,4179,0,2023-03-01T18:58:05.267701,2074811,1414,1749,-877,-1034,-570,-319,-70,154,-284
33228,4180,0,2023-03-01T18:58:05.272738,2074816,1415,1751,-878,-1032,-566,-318,-70,154,-284
33229,4181,0,2023-03-01T18:58:05.278113,2074821,1415,1751,-878,-1032,-566,-318,-70,154,-284
33230,4182,0,2023-03-01T18:58:05.286448,2074829,1415,1751,-878,-1032,-566,-318,-70,154,-284
33231,4183,0,2023-03-01T18:58:05.291486,2074834,1415,1751,-878,-1032,-566,-318,-70,154,-284
33232,4184,0,2023-03-01T18:58:05.296645,2074840,1414,1750,-884,-1034,-566,-324,-70,154,-284
33233,4185,0,2023-03-01T18:58:05.303179,2074847,1414,1750,-884,-1034,-566,-324,-70,154,-284
33234,4186,0,2023-03-01T18:58:05.308388,2074852,1414,1750,-884,-1034,-566,-324,-70,154,-284
33235,4187,0,2023-03-01T18:58:05.313268,2074856,1416,1750,-876,-1040,-570,-328,-70,154,-284
33236,4188,0,2023-03-01T18:58:05.318706,2074862,1416,1750,-876,-1040,-570,-328,-70,154,-284
33237,4189,0,2023-03-01T18:58:05.324567,2074867,1416,1750,-876,-1040,-570,-328,-70,154,-284
33238,4190,0,2023-03-01T18:58:05.329120,2074872,1416,1750,-876,-1040,-570,-328,-70,154,-284
33239,4191,0,2023-03-01T18:58:05.333864,2074877,1417,1752,-879,-1033,-566,-322,-70,154,-284
33240,4192,0,2023-03-01T18:58:05.339208,2074883,1417,1752,-879,-1033,-566,-322,-70,154,-284
33241,4193,0,2023-03-01T18:58:05.345462,2074889,1417,1752,-879,-1033,-566,-322,-70,154,-284
33242,4194,0,2023-03-01T18:58:05.350800,2074894,1417,1752,-879,-1033,-566,-322,-70,154,-284
33243,4195,0,2023-03-01T18:58:05.355688,2074899,1414,1749,-878,-1040,-579,-317,-57,155,-285
33244,4196,0,2023-03-01T18:58:05.361924,2074905,1414,1749,-878,-1040,-579,-317,-57,155,-285
33245,4197,0,2023-03-01T18:58:05.367616,2074911,1414,1749,-878,-1040,-579,-317,-57,155,-285
33246,4198,0,2023-03-01T18:58:05.372789,2074915,1416,1751,-879,-1038,-578,-318,-57,155,-285
33247,4199,0,2023-03-01T18:58:05.378710,2074921,1416,1751,-879,-1038,-578,-318,-57,155,-285
33248,4200,0,2023-03-01T18:58:05.385167,2074929,1416,1751,-879,-1038,-578,-318,-57,155,-285
33249,4201,0,2023-03-01T18:58:05.389858,2074933,1416,1751,-879,-1038,-578,-318,-57,155,-285
33250,4202,0,2023-03-01T18:58:05.394647,2074938,1415,1748,-886,-1039,-574,-312,-57,155,-285
33251,4203,0,2023-03-01T18:58:05.400403,2074944,1415,1748,-886,-1039,-574,-312,-57,155,-285
33252,4204,0,2023-03-01T18:58:05.406320,2074949,1415,1748,-886,-1039,-574,-312,-57,155,-285
33253,4205,0,2023-03-01T18:58:05.411632,2074954,1415,1748,-886,-1039,-574,-312,-57,155,-285
33254,4206,0,2023-03-01T18:58:05.416847,2074959,1415,1749,-885,-1043,-575,-316,-57,155,-285
33255,4207,0,2023-03-01T18:58:05.422761,2074966,1415,1749,-885,-1043,-575,-316,-57,155,-285
33256,4208,0,2023-03-01T18:58:05.428258,2074972,1415,1749,-885,-1043,-575,-316,-57,155,-285
33257,4209,0,2023-03-01T18:58:05.433389,2074977,1416,1750,-877,-1046,-571,-318,-57,155,-285
33258,4210,0,2023-03-01T18:58:05.438941,2074982,1416,1750,-877,-1046,-571,-318,-57,155,-285
33259,4211,0,2023-03-01T18:58:05.444595,2074988,1416,1750,-877,-1046,-571,-318,-57,155,-285
33260,4212,0,2023-03-01T18:58:05.449135,2074992,1416,1750,-877,-1046,-571,-318,-57,155,-285
33261,4213,0,2023-03-01T18:58:05.454228,2074997,1417,1751,-879,-1053,-576,-323,-57,155,-285
33262,4214,0,2023-03-01T18:58:05.459590,2075002,1417,1751,-879,-1053,-576,-323,-57,155,-285
33263,4215,0,2023-03-01T18:58:05.465358,2075009,1417,1751,-879,-1053,-576,-323,-57,155,-285
33264,4216,0,2023-03-01T18:58:05.470481,2075014,1417,1751,-879,-1053,-576,-323,-57,155,-285
33265,4217,0,2023-03-01T18:58:05.474949,2075019,1416,1748,-876,-1045,-575,-317,-57,155,-285
33266,4218,0,2023-03-01T18:58:05.480543,2075024,1416,1748,-876,-1045,-575,-317,-57,155,-285
33267,4219,0,2023-03-01T18:58:05.486535,2075030,1416,1748,-876,-1045,-575,-317,-57,155,-285
33268,4220,0,2023-03-01T18:58:05.491851,2075034,1416,1748,-876,-1045,-575,-317,-57,155,-285
33269,4221,0,2023-03-01T18:58:05.496786,2075040,1414,1749,-874,-1035,-568,-324,-62,154,-290
33270,4222,0,2023-03-01T18:58:05.504822,2075047,1414,1749,-874,-1035,-568,-324,-62,154,-290
33271,4223,0,2023-03-01T18:58:05.510288,2075054,1414,1749,-874,-1035,-568,-324,-62,154,-290
33272,4224,0,2023-03-01T18:58:05.515385,2075059,1413,1749,-876,-1036,-572,-317,-62,154,-290
33273,4225,0,2023-03-01T18:58:05.521224,2075064,1413,1749,-876,-1036,-572,-317,-62,154,-290
33274,4226,0,2023-03-01T18:58:05.527887,2075071,1413,1749,-876,-1036,-572,-317,-62,154,-290
33275,4227,0,2023-03-01T18:58:05.532847,2075076,1416,1749,-877,-1035,-570,-324,-62,154,-290
33276,4228,0,2023-03-01T18:58:05.538490,2075081,1416,1749,-877,-1035,-570,-324,-62,154,-290
33277,4229,0,2023-03-01T18:58:05.544458,2075087,1416,1749,-877,-1035,-570,-324,-62,154,-290
33278,4230,0,2023-03-01T18:58:05.549851,2075094,1416,1749,-877,-1035,-570,-324,-62,154,-290
33279,4231,0,2023-03-01T18:58:05.555224,2075098,1415,1748,-880,-1040,-573,-325,-62,154,-290
33280,4232,0,2023-03-01T18:58:05.561283,2075105,1415,1748,-880,-1040,-573,-325,-62,154,-290
33281,4233,0,2023-03-01T18:58:05.567469,2075110,1415,1748,-880,-1040,-573,-325,-62,154,-290
33282,4234,0,2023-03-01T18:58:05.572644,2075115,1415,1751,-880,-1039,-576,-320,-62,154,-290
33283,4235,0,2023-03-01T18:58:05.578817,2075122,1415,1751,-880,-1039,-576,-320,-62,154,-290
33284,4236,0,2023-03-01T18:58:05.584852,2075128,1415,1751,-880,-1039,-576,-320,-62,154,-290
33285,4237,0,2023-03-01T18:58:05.589734,2075133,1415,1751,-880,-1039,-576,-320,-62,154,-290
33286,4238,0,2023-03-01T18:58:05.595476,2075138,1415,1751,-880,-1039,-576,-320,-62,154,-290
33287,4239,0,2023-03-01T18:58:05.600637,2075144,1415,1751,-880,-1039,-576,-320,-62,154,-290
33288,4240,0,2023-03-01T18:58:05.607791,2075150,1415,1751,-880,-1039,-576,-320,-62,154,-290
33289,4241,0,2023-03-01T18:58:05.614367,2075157,1413,1749,-878,-1044,-575,-315,-65,153,-289
33290,4242,0,2023-03-01T18:58:05.620246,2075163,1413,1749,-878,-1044,-575,-315,-65,153,-289
33291,4243,0,2023-03-01T18:58:05.625456,2075168,1413,1749,-878,-1044,-575,-315,-65,153,-289
33292,4244,0,2023-03-01T18:58:05.630624,2075173,1413,1749,-878,-1044,-575,-315,-65,153,-289
33293,4245,0,2023-03-01T18:58:05.635797,2075179,1412,1751,-875,-1045,-576,-325,-65,153,-289
33294,4246,0,2023-03-01T18:58:05.641405,2075185,1412,1751,-875,-1045,-576,-325,-65,153,-289
33295,4247,0,2023-03-01T18:58:05.646622,2075190,1412,1751,-875,-1045,-576,-325,-65,153,-289
33296,4248,0,2023-03-01T18:58:05.652042,2075195,1412,1751,-875,-1045,-576,-325,-65,153,-289
33297,4249,0,2023-03-01T18:58:05.656883,2075200,1415,1747,-879,-1039,-570,-325,-65,153,-289
33298,4250,0,2023-03-01T18:58:05.662938,2075206,1415,1747,-879,-1039,-570,-325,-65,153,-289
33299,4251,0,2023-03-01T18:58:05.686218,2075211,1415,1747,-879,-1039,-570,-325,-65,153,-289
33300,4252,0,2023-03-01T18:58:05.691633,2075235,1412,1750,-884,-1035,-578,-313,-65,153,-289
33301,4253,0,2023-03-01T18:58:05.696546,2075240,1415,1750,-877,-1032,-577,-317,-65,153,-289
33302,4254,0,2023-03-01T18:58:05.702679,2075246,1415,1750,-877,-1032,-577,-317,-65,153,-289
33303,4255,0,2023-03-01T18:58:05.708027,2075251,1415,1750,-877,-1032,-577,-317,-65,153,-289
33304,4256,0,2023-03-01T18:58:05.713073,2075256,1415,1750,-881,-1037,-566,-327,-65,153,-289
33305,4257,0,2023-03-01T18:58:05.719038,2075262,1415,1750,-881,-1037,-566,-327,-65,153,-289
33306,4258,0,2023-03-01T18:58:05.725375,2075269,1415,1750,-881,-1037,-566,-327,-65,153,-289
33307,4259,0,2023-03-01T18:58:05.730214,2075274,1415,1750,-881,-1037,-566,-327,-65,153,-289
33308,4260,0,2023-03-01T18:58:05.735222,2075278,1414,1749,-879,-1038,-577,-324,-65,153,-289
33309,4261,0,2023-03-01T18:58:05.740823,2075284,1414,1749,-879,-1038,-577,-324,-65,153,-289
33310,4262,0,2023-03-01T18:58:05.746882,2075290,1414,1749,-879,-1038,-577,-324,-65,153,-289
33311,4263,0,2023-03-01T18:58:05.751944,2075295,1414,1749,-879,-1038,-577,-324,-65,153,-289
33312,4264,0,2023-03-01T18:58:05.756662,2075299,1414,1749,-877,-1043,-579,-312,-66,160,-290
33313,4265,0,2023-03-01T18:58:05.762619,2075305,1414,1749,-877,-1043,-579,-312,-66,160,-290
33314,4266,0,2023-03-01T18:58:05.767452,2075311,1414,1749,-877,-1043,-579,-312,-66,160,-290
33315,4267,0,2023-03-01T18:58:05.772298,2075316,1416,1749,-879,-1040,-583,-320,-66,160,-290
33316,4268,0,2023-03-01T18:58:05.777923,2075321,1416,1749,-879,-1040,-583,-320,-66,160,-290
33317,4269,0,2023-03-01T18:58:05.782757,2075326,1416,1749,-879,-1040,-583,-320,-66,160,-290
33318,4270,0,2023-03-01T18:58:05.788547,2075331,1416,1749,-879,-1040,-583,-320,-66,160,-290
33319,4271,0,2023-03-01T18:58:05.793166,2075336,1423,1749,-875,-1045,-572,-321,-66,160,-290
33320,4272,0,2023-03-01T18:58:05.798824,2075341,1423,1749,-875,-1045,-572,-321,-66,160,-290
33321,4273,0,2023-03-01T18:58:05.804633,2075347,1423,1749,-875,-1045,-572,-321,-66,160,-290
33322,4274,0,2023-03-01T18:58:05.809487,2075353,1423,1749,-875,-1045,-572,-321,-66,160,-290
33323,4275,0,2023-03-01T18:58:05.814224,2075358,1419,1753,-880,-1041,-578,-320,-66,160,-290
33324,4276,0,2023-03-01T18:58:05.819512,2075363,1419,1753,-880,-1041,-578,-320,-66,160,-290
33325,4277,0,2023-03-01T18:58:05.825177,2075368,1419,1753,-880,-1041,-578,-320,-66,160,-290
33326,4278,0,2023-03-01T18:58:05.831202,2075373,1419,1753,-880,-1041,-578,-320,-66,160,-290
33327,4279,0,2023-03-01T18:58:05.836139,2075379,1413,1749,-877,-1036,-573,-312,-66,160,-290
33328,4280,0,2023-03-01T18:58:05.841996,2075385,1413,1749,-877,-1036,-573,-312,-66,160,-290
33329,4281,0,2023-03-01T18:58:05.847173,2075390,1413,1749,-877,-1036,-573,-312,-66,160,-290
33330,4282,0,2023-03-01T18:58:05.852114,2075396,1413,1749,-877,-1036,-573,-312,-66,160,-290
33331,4283,0,2023-03-01T18:58:05.857123,2075401,1415,1748,-881,-1039,-577,-317,-66,160,-290
33332,4284,0,2023-03-01T18:58:05.863271,2075407,1415,1748,-881,-1039,-577,-317,-66,160,-290
33333,4285,0,2023-03-01T18:58:05.868621,2075412,1415,1748,-881,-1039,-577,-317,-66,160,-290
33334,4286,0,2023-03-01T18:58:05.873616,2075416,1415,1750,-882,-1037,-579,-318,-62,158,-284
33335,4287,0,2023-03-01T18:58:05.879310,2075422,1415,1750,-882,-1037,-579,-318,-62,158,-284
33336,4288,0,2023-03-01T18:58:05.885362,2075428,1415,1750,-882,-1037,-579,-318,-62,158,-284
33337,4289,0,2023-03-01T18:58:05.890025,2075433,1415,1750,-882,-1037,-579,-318,-62,158,-284
33338,4290,0,2023-03-01T18:58:05.895041,2075438,1414,1749,-875,-1042,-577,-311,-62,158,-284
33339,4291,0,2023-03-01T18:58:05.900767,2075444,1414,1749,-875,-1042,-577,-311,-62,158,-284
33340,4292,0,2023-03-01T18:58:05.906205,2075449,1414,1749,-875,-1042,-577,-311,-62,158,-284
33341,4293,0,2023-03-01T18:58:05.911468,2075454,1414,1749,-875,-1042,-577,-311,-62,158,-284
33342,4294,0,2023-03-01T18:58:05.916366,2075460,1414,1751,-883,-1042,-570,-319,-62,158,-284
33343,4295,0,2023-03-01T18:58:05.922194,2075465,1414,1751,-883,-1042,-570,-319,-62,158,-284
33344,4296,0,2023-03-01T18:58:05.927160,2075470,1414,1751,-883,-1042,-570,-319,-62,158,-284
33345,4297,0,2023-03-01T18:58:05.931677,2075475,1414,1751,-883,-1042,-570,-319,-62,158,-284
33346,4298,0,2023-03-01T18:58:05.936493,2075480,1416,1750,-882,-1040,-579,-323,-62,158,-284
33347,4299,0,2023-03-01T18:58:05.942496,2075485,1416,1750,-882,-1040,-579,-323,-62,158,-284
33348,4300,0,2023-03-01T18:58:05.948905,2075492,1416,1750,-882,-1040,-579,-323,-62,158,-284
33349,4301,0,2023-03-01T18:58:05.954061,2075497,1415,1750,-873,-1033,-572,-319,-62,158,-284
33350,4302,0,2023-03-01T18:58:05.959763,2075503,1415,1750,-873,-1033,-572,-319,-62,158,-284
33351,4303,0,2023-03-01T18:58:05.965654,2075508,1415,1750,-873,-1033,-572,-319,-62,158,-284
33352,4304,0,2023-03-01T18:58:05.970689,2075513,1415,1750,-873,-1033,-572,-319,-62,158,-284
33353,4305,0,2023-03-01T18:58:05.975786,2075518,1417,1754,-879,-1036,-575,-316,-62,158,-284
33354,4306,0,2023-03-01T18:58:05.980914,2075525,1417,1754,-879,-1036,-575,-316,-62,158,-284
33355,4307,0,2023-03-01T18:58:05.986960,2075530,1417,1754,-879,-1036,-575,-316,-62,158,-284
33356,4308,0,2023-03-01T18:58:05.991923,2075535,1417,1754,-879,-1036,-575,-316,-62,158,-284
33357,4309,0,2023-03-01T18:58:05.996916,2075540,1415,1749,-880,-1041,-575,-322,-62,158,-284
33358,4310,0,2023-03-01T18:58:06.002772,2075546,1415,1749,-880,-1041,-575,-322,-62,158,-284
33359,4311,0,2023-03-01T18:58:06.008526,2075551,1415,1749,-880,-1041,-575,-322,-62,158,-284
33360,4312,0,2023-03-01T18:58:06.013366,2075556,1413,1748,-875,-1043,-578,-321,-58,156,-286
33361,4313,0,2023-03-01T18:58:06.019695,2075563,1413,1748,-875,-1043,-578,-321,-58,156,-286
33362,4314,0,2023-03-01T18:58:06.026056,2075569,1413,1748,-875,-1043,-578,-321,-58,156,-286
33363,4315,0,2023-03-01T18:58:06.031362,2075575,1413,1748,-875,-1043,-578,-321,-58,156,-286
33364,4316,0,2023-03-01T18:58:06.036397,2075580,1413,1749,-880,-1042,-578,-314,-58,156,-286
33365,4317,0,2023-03-01T18:58:06.042782,2075586,1413,1749,-880,-1042,-578,-314,-58,156,-286
33366,4318,0,2023-03-01T18:58:06.050499,2075593,1413,1749,-880,-1042,-578,-314,-58,156,-286
33367,4319,0,2023-03-01T18:58:06.055958,2075599,1413,1752,-880,-1038,-579,-312,-58,156,-286
33368,4320,0,2023-03-01T18:58:06.061866,2075604,1413,1752,-880,-1038,-579,-312,-58,156,-286
33369,4321,0,2023-03-01T18:58:06.068438,2075611,1413,1752,-880,-1038,-579,-312,-58,156,-286
33370,4322,0,2023-03-01T18:58:06.073354,2075617,1414,1749,-875,-1037,-575,-321,-58,156,-286
33371,4323,0,2023-03-01T18:58:06.078258,2075621,1414,1749,-875,-1037,-575,-321,-58,156,-286
33372,4324,0,2023-03-01T18:58:06.083841,2075627,1414,1749,-875,-1037,-575,-321,-58,156,-286
33373,4325,0,2023-03-01T18:58:06.089298,2075632,1414,1749,-875,-1037,-575,-321,-58,156,-286
33374,4326,0,2023-03-01T18:58:06.094329,2075637,1415,1747,-879,-1041,-575,-320,-58,156,-286
33375,4327,0,2023-03-01T18:58:06.100372,2075643,1415,1747,-879,-1041,-575,-320,-58,156,-286
33376,4328,0,2023-03-01T18:58:06.106903,2075650,1415,1747,-879,-1041,-575,-320,-58,156,-286
33377,4329,0,2023-03-01T18:58:06.112138,2075655,1415,1747,-879,-1041,-575,-320,-58,156,-286
33378,4330,0,2023-03-01T18:58:06.117476,2075661,1415,1749,-878,-1032,-573,-326,-58,156,-286
33379,4331,0,2023-03-01T18:58:06.123236,2075666,1415,1749,-878,-1032,-573,-326,-58,156,-286
33380,4332,0,2023-03-01T18:58:06.128705,2075672,1415,1749,-878,-1032,-573,-326,-58,156,-286
33381,4333,0,2023-03-01T18:58:06.133693,2075677,1415,1748,-879,-1037,-576,-328,-59,153,-293
33382,4334,0,2023-03-01T18:58:06.139926,2075683,1415,1748,-879,-1037,-576,-328,-59,153,-293
33383,4335,0,2023-03-01T18:58:06.146382,2075689,1415,1748,-879,-1037,-576,-328,-59,153,-293
33384,4336,0,2023-03-01T18:58:06.151188,2075695,1415,1748,-879,-1037,-576,-328,-59,153,-293
33385,4337,0,2023-03-01T18:58:06.156981,2075700,1413,1750,-883,-1039,-581,-317,-59,153,-293
33386,4338,0,2023-03-01T18:58:06.165456,2075708,1413,1750,-883,-1039,-581,-317,-59,153,-293
33387,4339,0,2023-03-01T18:58:06.171474,2075714,1413,1750,-883,-1039,-581,-317,-59,153,-293
33388,4340,0,2023-03-01T18:58:06.176648,2075719,1415,1750,-878,-1035,-565,-321,-59,153,-293
33389,4341,0,2023-03-01T18:58:06.182889,2075725,1415,1750,-878,-1035,-565,-321,-59,153,-293
33390,4342,0,2023-03-01T18:58:06.189250,2075731,1415,1750,-878,-1035,-565,-321,-59,153,-293
33391,4343,0,2023-03-01T18:58:06.194871,2075738,1416,1752,-878,-1033,-572,-316,-59,153,-293
33392,4344,0,2023-03-01T18:58:06.200862,2075744,1416,1752,-878,-1033,-572,-316,-59,153,-293
33393,4345,0,2023-03-01T18:58:06.206676,2075750,1416,1752,-878,-1033,-572,-316,-59,153,-293
33394,4346,0,2023-03-01T18:58:06.211797,2075755,1416,1752,-878,-1033,-572,-316,-59,153,-293
33395,4347,0,2023-03-01T18:58:06.216536,2075760,1416,1751,-884,-1030,-575,-316,-59,153,-293
33396,4348,0,2023-03-01T18:58:06.222740,2075765,1416,1751,-884,-1030,-575,-316,-59,153,-293
33397,4349,0,2023-03-01T18:58:06.229030,2075771,1416,1751,-884,-1030,-575,-316,-59,153,-293
33398,4350,0,2023-03-01T18:58:06.233949,2075778,1417,1752,-882,-1035,-576,-317,-59,153,-293
33399,4351,0,2023-03-01T18:58:06.239834,2075783,1417,1752,-882,-1035,-576,-317,-59,153,-293
33400,4352,0,2023-03-01T18:58:06.244738,2075788,1417,1752,-882,-1035,-576,-317,-59,153,-293
33401,4353,0,2023-03-01T18:58:06.250312,2075793,1417,1752,-882,-1035,-576,-317,-59,153,-293
33402,4354,0,2023-03-01T18:58:06.255285,2075798,1414,1750,-879,-1035,-573,-318,-60,150,-284
33403,4355,0,2023-03-01T18:58:06.260591,2075804,1414,1750,-879,-1035,-573,-318,-60,150,-284
33404,4356,0,2023-03-01T18:58:06.267189,2075809,1414,1750,-879,-1035,-573,-318,-60,150,-284
33405,4357,0,2023-03-01T18:58:06.273781,2075816,1415,1750,-873,-1035,-574,-320,-60,150,-284
33406,4358,0,2023-03-01T18:58:06.279386,2075823,1415,1750,-873,-1035,-574,-320,-60,150,-284
33407,4359,0,2023-03-01T18:58:06.285139,2075829,1415,1750,-873,-1035,-574,-320,-60,150,-284
33408,4360,0,2023-03-01T18:58:06.289637,2075833,1415,1750,-873,-1035,-574,-320,-60,150,-284
33409,4361,0,2023-03-01T18:58:06.294282,2075837,1413,1752,-880,-1037,-580,-320,-60,150,-284
33410,4362,0,2023-03-01T18:58:06.299586,2075842,1413,1752,-880,-1037,-580,-320,-60,150,-284
33411,4363,0,2023-03-01T18:58:06.305185,2075848,1413,1752,-880,-1037,-580,-320,-60,150,-284
33412,4364,0,2023-03-01T18:58:06.310083,2075853,1413,1752,-880,-1037,-580,-320,-60,150,-284
33413,4365,0,2023-03-01T18:58:06.314663,2075858,1417,1749,-876,-1039,-569,-322,-60,150,-284
33414,4366,0,2023-03-01T18:58:06.320175,2075864,1417,1749,-876,-1039,-569,-322,-60,150,-284
33415,4367,0,2023-03-01T18:58:06.325795,2075869,1417,1749,-876,-1039,-569,-322,-60,150,-284
33416,4368,0,2023-03-01T18:58:06.330850,2075874,1417,1749,-876,-1039,-569,-322,-60,150,-284
33417,4369,0,2023-03-01T18:58:06.335404,2075879,1415,1750,-881,-1045,-566,-322,-60,150,-284
33418,4370,0,2023-03-01T18:58:06.340949,2075884,1415,1750,-881,-1045,-566,-322,-60,150,-284
33419,4371,0,2023-03-01T18:58:06.347543,2075890,1415,1750,-881,-1045,-566,-322,-60,150,-284
33420,4372,0,2023-03-01T18:58:06.352470,2075895,1415,1750,-881,-1045,-566,-322,-60,150,-284
33421,4373,0,2023-03-01T18:58:06.357824,2075900,1415,1753,-881,-1044,-567,-319,-60,150,-284
33422,4374,0,2023-03-01T18:58:06.364195,2075908,1415,1753,-881,-1044,-567,-319,-60,150,-284
33423,4375,0,2023-03-01T18:58:06.369423,2075913,1415,1753,-881,-1044,-567,-319,-60,150,-284
33424,4376,0,2023-03-01T18:58:06.374165,2075918,1414,1752,-877,-1040,-571,-321,-60,150,-284
33425,4377,0,2023-03-01T18:58:06.379727,2075923,1414,1752,-877,-1040,-571,-321,-60,150,-284
33426,4378,0,2023-03-01T18:58:06.385954,2075929,1414,1752,-877,-1040,-571,-321,-60,150,-284
33427,4379,0,2023-03-01T18:58:06.390524,2075933,1414,1752,-877,-1040,-571,-321,-60,150,-284
33428,4380,0,2023-03-01T18:58:06.395335,2075938,1418,1753,-876,-1040,-576,-326,-62,152,-288
33429,4381,0,2023-03-01T18:58:06.400762,2075944,1418,1753,-876,-1040,-576,-326,-62,152,-288
33430,4382,0,2023-03-01T18:58:06.406754,2075950,1418,1753,-876,-1040,-576,-326,-62,152,-288
33431,4383,0,2023-03-01T18:58:06.411569,2075955,1418,1753,-876,-1040,-576,-326,-62,152,-288
33432,4384,0,2023-03-01T18:58:06.417104,2075960,1415,1750,-881,-1042,-579,-326,-62,152,-288
33433,4385,0,2023-03-01T18:58:06.424145,2075967,1415,1750,-881,-1042,-579,-326,-62,152,-288
33434,4386,0,2023-03-01T18:58:06.429323,2075973,1415,1750,-881,-1042,-579,-326,-62,152,-288
33435,4387,0,2023-03-01T18:58:06.433948,2075977,1412,1752,-884,-1043,-572,-326,-62,152,-288
33436,4388,0,2023-03-01T18:58:06.439851,2075982,1412,1752,-884,-1043,-572,-326,-62,152,-288
33437,4389,0,2023-03-01T18:58:06.446073,2075988,1412,1752,-884,-1043,-572,-326,-62,152,-288
33438,4390,0,2023-03-01T18:58:06.451148,2075995,1412,1752,-884,-1043,-572,-326,-62,152,-288
33439,4391,0,2023-03-01T18:58:06.456134,2076000,1412,1750,-877,-1040,-575,-328,-62,152,-288
33440,4392,0,2023-03-01T18:58:06.461610,2076005,1412,1750,-877,-1040,-575,-328,-62,152,-288
33441,4393,0,2023-03-01T18:58:06.467181,2076010,1412,1750,-877,-1040,-575,-328,-62,152,-288
33442,4394,0,2023-03-01T18:58:06.472545,2076015,1412,1750,-877,-1040,-575,-328,-62,152,-288
33443,4395,0,2023-03-01T18:58:06.477303,2076020,1415,1751,-877,-1034,-566,-326,-62,152,-288
33444,4396,0,2023-03-01T18:58:06.483679,2076027,1415,1751,-877,-1034,-566,-326,-62,152,-288
33445,4397,0,2023-03-01T18:58:06.489343,2076033,1415,1751,-877,-1034,-566,-326,-62,152,-288
33446,4398,0,2023-03-01T18:58:06.494402,2076038,1416,1751,-884,-1038,-568,-318,-62,152,-288
33447,4399,0,2023-03-01T18:58:06.500312,2076044,1416,1751,-884,-1038,-568,-318,-62,152,-288
33448,4400,0,2023-03-01T18:58:06.505646,2076049,1416,1751,-884,-1038,-568,-318,-62,152,-288
33449,4401,0,2023-03-01T18:58:06.510967,2076054,1416,1751,-884,-1038,-568,-318,-62,152,-288
33450,4402,0,2023-03-01T18:58:06.515667,2076059,1416,1750,-876,-1049,-575,-322,-55,153,-285
33451,4403,0,2023-03-01T18:58:06.521271,2076064,1416,1750,-876,-1049,-575,-322,-55,153,-285
33452,4404,0,2023-03-01T18:58:06.525897,2076069,1416,1750,-876,-1049,-575,-322,-55,153,-285
33453,4405,0,2023-03-01T18:58:06.530543,2076073,1416,1750,-876,-1049,-575,-322,-55,153,-285
33454,4406,0,2023-03-01T18:58:06.535444,2076079,1416,1751,-878,-1044,-570,-310,-55,153,-285
33455,4407,0,2023-03-01T18:58:06.541246,2076085,1416,1751,-878,-1044,-570,-310,-55,153,-285
33456,4408,0,2023-03-01T18:58:06.547747,2076091,1416,1751,-878,-1044,-570,-310,-55,153,-285
33457,4409,0,2023-03-01T18:58:06.552776,2076096,1416,1751,-878,-1044,-570,-310,-55,153,-285
33458,4410,0,2023-03-01T18:58:06.557940,2076101,1413,1750,-875,-1033,-568,-317,-55,153,-285
33459,4411,0,2023-03-01T18:58:06.565622,2076107,1413,1750,-875,-1033,-568,-317,-55,153,-285
33460,4412,0,2023-03-01T18:58:06.570743,2076113,1413,1750,-875,-1033,-568,-317,-55,153,-285
33461,4413,0,2023-03-01T18:58:06.575913,2076119,1415,1750,-879,-1037,-572,-320,-55,153,-285
33462,4414,0,2023-03-01T18:58:06.581660,2076125,1415,1750,-879,-1037,-572,-320,-55,153,-285
33463,4415,0,2023-03-01T18:58:06.588165,2076131,1415,1750,-879,-1037,-572,-320,-55,153,-285
33464,4416,0,2023-03-01T18:58:06.593213,2076136,1414,1745,-884,-1032,-579,-319,-55,153,-285
33465,4417,0,2023-03-01T18:58:06.599020,2076142,1414,1745,-884,-1032,-579,-319,-55,153,-285
33466,4418,0,2023-03-01T18:58:06.605604,2076149,1414,1745,-884,-1032,-579,-319,-55,153,-285
33467,4419,0,2023-03-01T18:58:06.611261,2076153,1414,1745,-884,-1032,-579,-319,-55,153,-285
33468,4420,0,2023-03-01T18:58:06.616493,2076160,1412,1748,-881,-1033,-576,-324,-55,153,-285
33469,4421,0,2023-03-01T18:58:06.623095,2076166,1412,1748,-881,-1033,-576,-324,-55,153,-285
33470,4422,0,2023-03-01T18:58:06.629341,2076173,1412,1748,-881,-1033,-576,-324,-55,153,-285
33471,4423,0,2023-03-01T18:58:06.634746,2076178,1415,1750,-882,-1039,-571,-317,-55,153,-285
33472,4424,0,2023-03-01T18:58:06.640008,2076183,1415,1750,-882,-1039,-571,-317,-55,153,-285
33473,4425,0,2023-03-01T18:58:06.645560,2076188,1415,1750,-882,-1039,-571,-317,-55,153,-285
33474,4426,0,2023-03-01T18:58:06.650870,2076193,1415,1750,-882,-1039,-571,-317,-55,153,-285
33475,4427,0,2023-03-01T18:58:06.656054,2076199,1416,1748,-878,-1038,-574,-322,-62,152,-286
33476,4428,0,2023-03-01T18:58:06.662374,2076205,1416,1748,-878,-1038,-574,-322,-62,152,-286
33477,4429,0,2023-03-01T18:58:06.668122,2076211,1416,1748,-878,-1038,-574,-322,-62,152,-286
33478,4430,0,2023-03-01T18:58:06.673244,2076217,1415,1746,-875,-1033,-575,-320,-62,152,-286
33479,4431,0,2023-03-01T18:58:06.679447,2076222,1415,1746,-875,-1033,-575,-320,-62,152,-286
33480,4432,0,2023-03-01T18:58:06.685980,2076229,1415,1746,-875,-1033,-575,-320,-62,152,-286
33481,4433,0,2023-03-01T18:58:06.691234,2076234,1415,1746,-875,-1033,-575,-320,-62,152,-286
33482,4434,0,2023-03-01T18:58:06.696969,2076240,1416,1753,-877,-1035,-574,-317,-62,152,-286
33483,4435,0,2023-03-01T18:58:06.703622,2076247,1416,1753,-877,-1035,-574,-317,-62,152,-286
33484,4436,0,2023-03-01T18:58:06.709278,2076253,1416,1753,-877,-1035,-574,-317,-62,152,-286
33485,4437,0,2023-03-01T18:58:06.714582,2076258,1413,1751,-877,-1040,-575,-319,-62,152,-286
33486,4438,0,2023-03-01T18:58:06.720317,2076263,1413,1751,-877,-1040,-575,-319,-62,152,-286
33487,4439,0,2023-03-01T18:58:06.727660,2076270,1413,1751,-877,-1040,-575,-319,-62,152,-286
33488,4440,0,2023-03-01T18:58:06.732581,2076276,1413,1751,-877,-1040,-575,-319,-62,152,-286
33489,4441,0,2023-03-01T18:58:06.737494,2076280,1414,1750,-879,-1036,-576,-315,-62,152,-286
33490,4442,0,2023-03-01T18:58:06.743528,2076286,1414,1750,-879,-1036,-576,-315,-62,152,-286
33491,4443,0,2023-03-01T18:58:06.749311,2076293,1414,1750,-879,-1036,-576,-315,-62,152,-286
33492,4444,0,2023-03-01T18:58:06.754293,2076298,1413,1752,-881,-1041,-570,-319,-62,152,-286
33493,4445,0,2023-03-01T18:58:06.760517,2076304,1413,1752,-881,-1041,-570,-319,-62,152,-286
33494,4446,0,2023-03-01T18:58:06.766138,2076309,1413,1752,-881,-1041,-570,-319,-62,152,-286
33495,4447,0,2023-03-01T18:58:06.771212,2076314,1413,1752,-881,-1041,-570,-319,-62,152,-286
33496,4448,0,2023-03-01T18:58:06.776158,2076319,1417,1750,-877,-1044,-574,-325,-66,152,-290
33497,4449,0,2023-03-01T18:58:06.781566,2076324,1417,1750,-877,-1044,-574,-325,-66,152,-290
33498,4450,0,2023-03-01T18:58:06.788021,2076332,1417,1750,-877,-1044,-574,-325,-66,152,-290
33499,4451,0,2023-03-01T18:58:06.793722,2076337,1413,1748,-882,-1044,-575,-325,-66,152,-290
33500,4452,0,2023-03-01T18:58:06.799504,2076343,1413,1748,-882,-1044,-575,-325,-66,152,-290
33501,4453,0,2023-03-01T18:58:06.805457,2076349,1413,1748,-882,-1044,-575,-325,-66,152,-290
33502,4454,0,2023-03-01T18:58:06.810261,2076353,1413,1748,-882,-1044,-575,-325,-66,152,-290
33503,4455,0,2023-03-01T18:58:06.815163,2076358,1415,1749,-878,-1042,-566,-325,-66,152,-290
33504,4456,0,2023-03-01T18:58:06.820768,2076364,1415,1749,-878,-1042,-566,-325,-66,152,-290
33505,4457,0,2023-03-01T18:58:06.827130,2076370,1415,1749,-878,-1042,-566,-325,-66,152,-290
33506,4458,0,2023-03-01T18:58:06.832011,2076376,1415,1749,-878,-1042,-566,-325,-66,152,-290
33507,4459,0,2023-03-01T18:58:06.837023,2076380,1415,1749,-878,-1032,-566,-326,-66,152,-290
33508,4460,0,2023-03-01T18:58:06.843448,2076387,1415,1749,-878,-1032,-566,-326,-66,152,-290
33509,4461,0,2023-03-01T18:58:06.849449,2076393,1415,1749,-878,-1032,-566,-326,-66,152,-290
33510,4462,0,2023-03-01T18:58:06.854214,2076397,1414,1750,-883,-1037,-575,-320,-66,152,-290
33511,4463,0,2023-03-01T18:58:06.859506,2076403,1414,1750,-883,-1037,-575,-320,-66,152,-290
33512,4464,0,2023-03-01T18:58:06.865648,2076408,1414,1750,-883,-1037,-575,-320,-66,152,-290
33513,4465,0,2023-03-01T18:58:06.871205,2076414,1414,1750,-883,-1037,-575,-320,-66,152,-290
33514,4466,0,2023-03-01T18:58:06.875880,2076420,1416,1749,-884,-1040,-564,-321,-66,152,-290
33515,4467,0,2023-03-01T18:58:06.881315,2076425,1416,1749,-884,-1040,-564,-321,-66,152,-290
33516,4468,0,2023-03-01T18:58:06.886990,2076430,1416,1749,-884,-1040,-564,-321,-66,152,-290
33517,4469,0,2023-03-01T18:58:06.891861,2076435,1416,1749,-884,-1040,-564,-321,-66,152,-290
33518,4470,0,2023-03-01T18:58:06.897017,2076440,1411,1752,-886,-1037,-564,-320,-66,152,-290
33519,4471,0,2023-03-01T18:58:06.902425,2076445,1411,1752,-886,-1037,-564,-320,-66,152,-290
33520,4472,0,2023-03-01T18:58:06.908232,2076451,1411,1752,-886,-1037,-564,-320,-66,152,-290
33521,4473,0,2023-03-01T18:58:06.913644,2076456,1411,1752,-886,-1037,-564,-320,-66,152,-290
33522,4474,0,2023-03-01T18:58:06.918325,2076462,1415,1750,-873,-1040,-569,-321,-69,151,-289
33523,4475,0,2023-03-01T18:58:06.924629,2076468,1415,1750,-873,-1040,-569,-321,-69,151,-289
33524,4476,0,2023-03-01T18:58:06.930773,2076473,1415,1750,-873,-1040,-569,-321,-69,151,-289
33525,4477,0,2023-03-01T18:58:06.936302,2076480,1414,1751,-876,-1030,-577,-326,-69,151,-289
33526,4478,0,2023-03-01T18:58:06.941888,2076485,1414,1751,-876,-1030,-577,-326,-69,151,-289
33527,4479,0,2023-03-01T18:58:06.948045,2076491,1414,1751,-876,-1030,-577,-326,-69,151,-289
33528,4480,0,2023-03-01T18:58:06.953090,2076496,1414,1751,-876,-1030,-577,-326,-69,151,-289
33529,4481,0,2023-03-01T18:58:06.958292,2076502,1413,1749,-878,-1030,-570,-314,-69,151,-289
33530,4482,0,2023-03-01T18:58:06.964372,2076508,1413,1749,-878,-1030,-570,-314,-69,151,-289
33531,4483,0,2023-03-01T18:58:06.970315,2076514,1413,1749,-878,-1030,-570,-314,-69,151,-289
33532,4484,0,2023-03-01T18:58:06.975648,2076519,1414,1750,-879,-1036,-572,-319,-69,151,-289
33533,4485,0,2023-03-01T18:58:06.981005,2076524,1414,1750,-879,-1036,-572,-319,-69,151,-289
33534,4486,0,2023-03-01T18:58:06.986375,2076529,1414,1750,-879,-1036,-572,-319,-69,151,-289
33535,4487,0,2023-03-01T18:58:06.991176,2076534,1414,1750,-879,-1036,-572,-319,-69,151,-289
33536,4488,0,2023-03-01T18:58:06.996066,2076539,1414,1747,-880,-1043,-579,-321,-69,151,-289
33537,4489,0,2023-03-01T18:58:07.002015,2076545,1414,1747,-880,-1043,-579,-321,-69,151,-289
33538,4490,0,2023-03-01T18:58:07.008408,2076552,1414,1747,-880,-1043,-579,-321,-69,151,-289
33539,4491,0,2023-03-01T18:58:07.013572,2076557,1414,1747,-880,-1043,-579,-321,-69,151,-289
33540,4492,0,2023-03-01T18:58:07.018330,2076562,1416,1751,-883,-1036,-570,-317,-69,151,-289
33541,4493,0,2023-03-01T18:58:07.023932,2076567,1416,1751,-883,-1036,-570,-317,-69,151,-289
33542,4494,0,2023-03-01T18:58:07.028789,2076572,1416,1751,-883,-1036,-570,-317,-69,151,-289
33543,4495,0,2023-03-01T18:58:07.034095,2076577,1418,1748,-878,-1038,-565,-321,-60,148,-282
33544,4496,0,2023-03-01T18:58:07.040437,2076583,1418,1748,-878,-1038,-565,-321,-60,148,-282
33545,4497,0,2023-03-01T18:58:07.047161,2076591,1418,1748,-878,-1038,-565,-321,-60,148,-282
