,imu,server_time,arduino_time,ax,ay,az,gx,gy,gz,mx,my,mz
894,0,2023-03-01T18:49:49.747507,1579264,140,497,1835,-268,-882,-20,58,268,-106
895,0,2023-03-01T18:49:49.752328,1579269,140,497,1835,-268,-882,-20,58,268,-106
896,0,2023-03-01T18:49:49.757777,1579274,349,767,1428,-419,-884,-64,58,268,-106
897,0,2023-03-01T18:49:49.764482,1579280,349,767,1428,-419,-884,-64,58,268,-106
898,0,2023-03-01T18:49:49.769671,1579285,349,767,1428,-419,-884,-64,58,268,-106
899,0,2023-03-01T18:49:49.775692,1579291,349,767,1428,-419,-884,-64,58,268,-106
900,0,2023-03-01T18:49:49.780969,1579296,262,750,1615,-872,-477,95,58,268,-106
901,0,2023-03-01T18:49:49.787526,1579303,262,750,1615,-872,-477,95,58,268,-106
902,0,2023-03-01T18:49:49.793111,1579309,262,750,1615,-872,-477,95,58,268,-106
903,0,2023-03-01T18:49:49.798990,1579315,166,634,1733,-1318,-331,-321,58,268,-106
904,0,2023-03-01T18:49:49.804663,1579321,166,634,1733,-1318,-331,-321,58,268,-106
905,0,2023-03-01T18:49:49.809835,1579326,166,634,1733,-1318,-331,-321,58,268,-106
906,0,2023-03-01T18:49:49.815766,1579331,166,634,1733,-1318,-331,-321,58,268,-106
907,0,2023-03-01T18:49:49.821144,1579336,167,454,1560,-1642,-442,-532,59,269,-119
908,0,2023-03-01T18:49:49.827181,1579343,167,454,1560,-1642,-442,-532,59,269,-119
909,0,2023-03-01T18:49:49.832020,1579347,167,454,1560,-1642,-442,-532,59,269,-119
910,0,2023-03-01T18:49:49.837298,1579354,167,454,1560,-1642,-442,-532,59,269,-119
911,0,2023-03-01T18:49:49.842463,1579359,112,300,1684,-1445,-508,-481,59,269,-119
912,0,2023-03-01T18:49:49.847963,1579364,112,300,1684,-1445,-508,-481,59,269,-119
913,0,2023-03-01T18:49:49.852997,1579369,112,300,1684,-1445,-508,-481,59,269,-119
914,0,2023-03-01T18:49:49.858606,1579374,132,343,1738,-1038,-601,-528,59,269,-119
915,0,2023-03-01T18:49:49.864129,1579380,132,343,1738,-1038,-601,-528,59,269,-119
916,0,2023-03-01T18:49:49.869340,1579385,132,343,1738,-1038,-601,-528,59,269,-119
917,0,2023-03-01T18:49:49.874163,1579389,132,343,1738,-1038,-601,-528,59,269,-119
918,0,2023-03-01T18:49:49.878996,1579395,183,440,1580,-648,-754,-221,59,269,-119
919,0,2023-03-01T18:49:49.885300,1579401,183,440,1580,-648,-754,-221,59,269,-119
920,0,2023-03-01T18:49:49.890231,1579406,183,440,1580,-648,-754,-221,59,269,-119
921,0,2023-03-01T18:49:49.895790,1579412,183,440,1580,-648,-754,-221,59,269,-119
922,0,2023-03-01T18:49:49.901583,1579416,257,661,1638,-573,-687,-251,59,269,-119
923,0,2023-03-01T18:49:49.908732,1579424,257,661,1638,-573,-687,-251,59,269,-119
924,0,2023-03-01T18:49:49.914569,1579430,257,661,1638,-573,-687,-251,59,269,-119
925,0,2023-03-01T18:49:49.920671,1579437,229,678,1647,-823,-574,-200,59,269,-119
926,0,2023-03-01T18:49:49.926953,1579442,229,678,1647,-823,-574,-200,59,269,-119
927,0,2023-03-01T18:49:49.932946,1579448,229,678,1647,-823,-574,-200,59,269,-119
928,0,2023-03-01T18:49:49.939130,1579455,223,634,1584,-1156,-512,-316,60,268,-112
929,0,2023-03-01T18:49:49.945065,1579461,223,634,1584,-1156,-512,-316,60,268,-112
930,0,2023-03-01T18:49:49.950631,1579466,223,634,1584,-1156,-512,-316,60,268,-112
931,0,2023-03-01T18:49:49.956104,1579472,223,634,1584,-1156,-512,-316,60,268,-112
932,0,2023-03-01T18:49:49.961463,1579478,172,515,1652,-1388,-423,-421,60,268,-112
933,0,2023-03-01T18:49:49.967326,1579484,172,515,1652,-1388,-423,-421,60,268,-112
934,0,2023-03-01T18:49:49.972320,1579488,172,515,1652,-1388,-423,-421,60,268,-112
935,0,2023-03-01T18:49:49.977847,1579494,124,372,1675,-1344,-500,-360,60,268,-112
936,0,2023-03-01T18:49:49.983354,1579499,124,372,1675,-1344,-500,-360,60,268,-112
937,0,2023-03-01T18:49:49.988259,1579504,124,372,1675,-1344,-500,-360,60,268,-112
938,0,2023-03-01T18:49:49.993342,1579509,124,372,1675,-1344,-500,-360,60,268,-112
939,0,2023-03-01T18:49:49.998965,1579514,161,386,1641,-1109,-602,-373,60,268,-112
940,0,2023-03-01T18:49:50.004306,1579521,161,386,1641,-1109,-602,-373,60,268,-112
941,0,2023-03-01T18:49:50.009245,1579526,161,386,1641,-1109,-602,-373,60,268,-112
942,0,2023-03-01T18:49:50.014742,1579531,161,386,1641,-1109,-602,-373,60,268,-112
943,0,2023-03-01T18:49:50.019866,1579536,174,461,1653,-793,-653,-262,60,268,-112
944,0,2023-03-01T18:49:50.025407,1579541,174,461,1653,-793,-653,-262,60,268,-112
945,0,2023-03-01T18:49:50.030220,1579546,174,461,1653,-793,-653,-262,60,268,-112
946,0,2023-03-01T18:49:50.035585,1579551,174,461,1653,-793,-653,-262,60,268,-112
947,0,2023-03-01T18:49:50.040802,1579556,213,579,1648,-721,-667,-253,60,268,-112
948,0,2023-03-01T18:49:50.047341,1579563,213,579,1648,-721,-667,-253,60,268,-112
949,0,2023-03-01T18:49:50.052785,1579569,213,579,1648,-721,-667,-253,60,268,-112
950,0,2023-03-01T18:49:50.058589,1579575,238,645,1602,-858,-607,-280,60,268,-112
951,0,2023-03-01T18:49:50.063958,1579580,238,645,1602,-858,-607,-280,60,268,-112
952,0,2023-03-01T18:49:50.068713,1579585,238,645,1602,-858,-607,-280,60,268,-112
953,0,2023-03-01T18:49:50.073978,1579589,238,645,1602,-858,-607,-280,60,268,-112
954,0,2023-03-01T18:49:50.080085,1579595,211,609,1628,-1105,-522,-334,50,268,-116
955,0,2023-03-01T18:49:50.085363,1579601,211,609,1628,-1105,-522,-334,50,268,-116
956,0,2023-03-01T18:49:50.090588,1579607,211,609,1628,-1105,-522,-334,50,268,-116
957,0,2023-03-01T18:49:50.096625,1579613,211,609,1628,-1105,-522,-334,50,268,-116
958,0,2023-03-01T18:49:50.102273,1579618,171,517,1657,-1281,-472,-370,50,268,-116
959,0,2023-03-01T18:49:50.108691,1579624,171,517,1657,-1281,-472,-370,50,268,-116
960,0,2023-03-01T18:49:50.114059,1579629,171,517,1657,-1281,-472,-370,50,268,-116
961,0,2023-03-01T18:49:50.120373,1579635,152,425,1639,-1271,-513,-367,50,268,-116
962,0,2023-03-01T18:49:50.126350,1579642,152,425,1639,-1271,-513,-367,50,268,-116
963,0,2023-03-01T18:49:50.131384,1579648,152,425,1639,-1271,-513,-367,50,268,-116
964,0,2023-03-01T18:49:50.136990,1579653,152,425,1639,-1271,-513,-367,50,268,-116
965,0,2023-03-01T18:49:50.141756,1579658,157,413,1651,-1089,-581,-339,50,268,-116
966,0,2023-03-01T18:49:50.148172,1579664,157,413,1651,-1089,-581,-339,50,268,-116
967,0,2023-03-01T18:49:50.153800,1579669,157,413,1651,-1089,-581,-339,50,268,-116
968,0,2023-03-01T18:49:50.160240,1579676,180,477,1660,-862,-630,-294,50,268,-116
969,0,2023-03-01T18:49:50.165777,1579681,180,477,1660,-862,-630,-294,50,268,-116
970,0,2023-03-01T18:49:50.170689,1579686,180,477,1660,-862,-630,-294,50,268,-116
971,0,2023-03-01T18:49:50.176042,1579692,180,477,1660,-862,-630,-294,50,268,-116
972,0,2023-03-01T18:49:50.180933,1579697,212,563,1623,-801,-646,-289,50,268,-116
973,0,2023-03-01T18:49:50.186538,1579703,212,563,1623,-801,-646,-289,50,268,-116
974,0,2023-03-01T18:49:50.191290,1579707,212,563,1623,-801,-646,-289,50,268,-116
975,0,2023-03-01T18:49:50.196509,1579712,212,563,1623,-801,-646,-289,50,268,-116
976,0,2023-03-01T18:49:50.201159,1579717,220,610,1625,-901,-589,-303,57,273,-107
977,0,2023-03-01T18:49:50.207026,1579723,220,610,1625,-901,-589,-303,57,273,-107
978,0,2023-03-01T18:49:50.212001,1579727,220,610,1625,-901,-589,-303,57,273,-107
979,0,2023-03-01T18:49:50.218268,1579734,220,610,1625,-901,-589,-303,57,273,-107
980,0,2023-03-01T18:49:50.223607,1579740,201,583,1639,-1087,-525,-332,57,273,-107
981,0,2023-03-01T18:49:50.229847,1579746,201,583,1639,-1087,-525,-332,57,273,-107
982,0,2023-03-01T18:49:50.235100,1579751,201,583,1639,-1087,-525,-332,57,273,-107
983,0,2023-03-01T18:49:50.240236,1579756,175,510,1634,-1220,-507,-353,57,273,-107
984,0,2023-03-01T18:49:50.245326,1579761,175,510,1634,-1220,-507,-353,57,273,-107
985,0,2023-03-01T18:49:50.250811,1579767,175,510,1634,-1220,-507,-353,57,273,-107
986,0,2023-03-01T18:49:50.256259,1579772,175,510,1634,-1220,-507,-353,57,273,-107
987,0,2023-03-01T18:49:50.261313,1579778,163,449,1649,-1202,-526,-353,57,273,-107
988,0,2023-03-01T18:49:50.267691,1579784,163,449,1649,-1202,-526,-353,57,273,-107
989,0,2023-03-01T18:49:50.272619,1579789,163,449,1649,-1202,-526,-353,57,273,-107
990,0,2023-03-01T18:49:50.277936,1579794,163,439,1661,-1058,-572,-325,57,273,-107
991,0,2023-03-01T18:49:50.283480,1579799,163,439,1661,-1058,-572,-325,57,273,-107
992,0,2023-03-01T18:49:50.289025,1579805,163,439,1661,-1058,-572,-325,57,273,-107
993,0,2023-03-01T18:49:50.294161,1579810,163,439,1661,-1058,-572,-325,57,273,-107
994,0,2023-03-01T18:49:50.299505,1579815,188,492,1640,-918,-623,-298,57,273,-107
995,0,2023-03-01T18:49:50.304545,1579821,188,492,1640,-918,-623,-298,57,273,-107
996,0,2023-03-01T18:49:50.309412,1579826,188,492,1640,-918,-623,-298,57,273,-107
997,0,2023-03-01T18:49:50.315462,1579831,188,492,1640,-918,-623,-298,57,273,-107
998,0,2023-03-01T18:49:50.320514,1579836,188,492,1640,-918,-623,-298,57,273,-107
999,0,2023-03-01T18:49:50.325392,1579841,188,492,1640,-918,-623,-298,57,273,-107
1000,0,2023-03-01T18:49:50.330233,1579846,188,492,1640,-918,-623,-298,57,273,-107
1001,0,2023-03-01T18:49:50.335665,1579851,188,492,1640,-918,-623,-298,57,273,-107
1002,0,2023-03-01T18:49:50.340804,1579856,188,492,1640,-918,-623,-298,44,266,-112
1003,0,2023-03-01T18:49:50.345616,1579862,188,492,1640,-918,-623,-298,44,266,-112
1004,0,2023-03-01T18:49:50.350358,1579867,188,492,1640,-918,-623,-298,44,266,-112
1005,0,2023-03-01T18:49:50.355556,1579872,188,492,1640,-918,-623,-298,44,266,-112
1006,0,2023-03-01T18:49:50.360258,1579876,201,562,1635,-1088,-543,-338,44,266,-112
1007,0,2023-03-01T18:49:50.365798,1579882,201,562,1635,-1088,-543,-338,44,266,-112
1008,0,2023-03-01T18:49:50.371476,1579887,201,562,1635,-1088,-543,-338,44,266,-112
1009,0,2023-03-01T18:49:50.377393,1579893,201,562,1635,-1088,-543,-338,44,266,-112
1010,0,2023-03-01T18:49:50.382605,1579898,180,509,1636,-1176,-524,-354,44,266,-112
1011,0,2023-03-01T18:49:50.387917,1579904,180,509,1636,-1176,-524,-354,44,266,-112
1012,0,2023-03-01T18:49:50.392852,1579909,180,509,1636,-1176,-524,-354,44,266,-112
1013,0,2023-03-01T18:49:50.398281,1579914,167,460,1646,-1155,-548,-344,44,266,-112
1014,0,2023-03-01T18:49:50.404386,1579920,167,460,1646,-1155,-548,-344,44,266,-112
1015,0,2023-03-01T18:49:50.409973,1579926,167,460,1646,-1155,-548,-344,44,266,-112
1016,0,2023-03-01T18:49:50.415404,1579931,167,460,1646,-1155,-548,-344,44,266,-112
1017,0,2023-03-01T18:49:50.420700,1579936,169,459,1650,-1037,-579,-328,44,266,-112
1018,0,2023-03-01T18:49:50.426442,1579942,169,459,1650,-1037,-579,-328,44,266,-112
1019,0,2023-03-01T18:49:50.431223,1579948,169,459,1650,-1037,-579,-328,44,266,-112
1020,0,2023-03-01T18:49:50.436573,1579953,169,459,1650,-1037,-579,-328,44,266,-112
1021,0,2023-03-01T18:49:50.441587,1579958,191,503,1643,-931,-609,-303,44,266,-112
1022,0,2023-03-01T18:49:50.447504,1579964,191,503,1643,-931,-609,-303,44,266,-112
1023,0,2023-03-01T18:49:50.452834,1579969,191,503,1643,-931,-609,-303,44,266,-112
1024,0,2023-03-01T18:49:50.458673,1579974,203,555,1647,-913,-611,-295,56,272,-110
1025,0,2023-03-01T18:49:50.464326,1579980,203,555,1647,-913,-611,-295,56,272,-110
1026,0,2023-03-01T18:49:50.469510,1579985,203,555,1647,-913,-611,-295,56,272,-110
1027,0,2023-03-01T18:49:50.474582,1579991,203,555,1647,-913,-611,-295,56,272,-110
1028,0,2023-03-01T18:49:50.479605,1579996,207,570,1635,-989,-580,-317,56,272,-110
1029,0,2023-03-01T18:49:50.485130,1580001,207,570,1635,-989,-580,-317,56,272,-110
1030,0,2023-03-01T18:49:50.490781,1580006,207,570,1635,-989,-580,-317,56,272,-110
1031,0,2023-03-01T18:49:50.496046,1580012,207,570,1635,-989,-580,-317,56,272,-110
1032,0,2023-03-01T18:49:50.501522,1580017,194,546,1636,-1091,-545,-337,56,272,-110
1033,0,2023-03-01T18:49:50.507684,1580023,194,546,1636,-1091,-545,-337,56,272,-110
1034,0,2023-03-01T18:49:50.512460,1580028,194,546,1636,-1091,-545,-337,56,272,-110
1035,0,2023-03-01T18:49:50.519129,1580035,176,499,1641,-1139,-517,-347,56,272,-110
1036,0,2023-03-01T18:49:50.524884,1580041,176,499,1641,-1139,-517,-347,56,272,-110
1037,0,2023-03-01T18:49:50.530417,1580046,176,499,1641,-1139,-517,-347,56,272,-110
1038,0,2023-03-01T18:49:50.536369,1580052,176,499,1641,-1139,-517,-347,56,272,-110
1039,0,2023-03-01T18:49:50.541342,1580057,169,469,1648,-1115,-553,-332,56,272,-110
1040,0,2023-03-01T18:49:50.547033,1580063,169,469,1648,-1115,-553,-332,56,272,-110
1041,0,2023-03-01T18:49:50.552297,1580067,169,469,1648,-1115,-553,-332,56,272,-110
1042,0,2023-03-01T18:49:50.557538,1580073,169,469,1648,-1115,-553,-332,56,272,-110
1043,0,2023-03-01T18:49:50.562733,1580079,177,479,1646,-1023,-580,-322,56,272,-110
1044,0,2023-03-01T18:49:50.568597,1580085,177,479,1646,-1023,-580,-322,56,272,-110
1045,0,2023-03-01T18:49:50.573379,1580090,177,479,1646,-1023,-580,-322,56,272,-110
1046,0,2023-03-01T18:49:50.578558,1580095,189,515,1640,-945,-607,-301,56,272,-110
1047,0,2023-03-01T18:49:50.583880,1580100,189,515,1640,-945,-607,-301,56,272,-110
1048,0,2023-03-01T18:49:50.589396,1580105,189,515,1640,-945,-607,-301,56,272,-110
1049,0,2023-03-01T18:49:50.594785,1580111,189,515,1640,-945,-607,-301,56,272,-110
1050,0,2023-03-01T18:49:50.599441,1580115,202,549,1640,-946,-599,-308,52,270,-112
1051,0,2023-03-01T18:49:50.605404,1580122,202,549,1640,-946,-599,-308,52,270,-112
1052,0,2023-03-01T18:49:50.609921,1580126,202,549,1640,-946,-599,-308,52,270,-112
1053,0,2023-03-01T18:49:50.615342,1580131,202,549,1640,-946,-599,-308,52,270,-112
1054,0,2023-03-01T18:49:50.620228,1580136,205,553,1634,-1008,-568,-318,52,270,-112
1055,0,2023-03-01T18:49:50.625879,1580142,205,553,1634,-1008,-568,-318,52,270,-112
1056,0,2023-03-01T18:49:50.630761,1580146,205,553,1634,-1008,-568,-318,52,270,-112
1057,0,2023-03-01T18:49:50.635978,1580152,205,553,1634,-1008,-568,-318,52,270,-112
1058,0,2023-03-01T18:49:50.640894,1580156,192,530,1639,-1088,-542,-330,52,270,-112
1059,0,2023-03-01T18:49:50.646566,1580163,192,530,1639,-1088,-542,-330,52,270,-112
1060,0,2023-03-01T18:49:50.652753,1580169,192,530,1639,-1088,-542,-330,52,270,-112
1061,0,2023-03-01T18:49:50.658569,1580174,192,530,1639,-1088,-542,-330,52,270,-112
1062,0,2023-03-01T18:49:50.663735,1580179,177,496,1649,-1115,-531,-336,52,270,-112
1063,0,2023-03-01T18:49:50.669788,1580186,177,496,1649,-1115,-531,-336,52,270,-112
1064,0,2023-03-01T18:49:50.675064,1580190,177,496,1649,-1115,-531,-336,52,270,-112
1065,0,2023-03-01T18:49:50.679731,1580195,173,479,1651,-1082,-559,-330,52,270,-112
1066,0,2023-03-01T18:49:50.685458,1580201,173,479,1651,-1082,-559,-330,52,270,-112
1067,0,2023-03-01T18:49:50.691186,1580207,173,479,1651,-1082,-559,-330,52,270,-112
1068,0,2023-03-01T18:49:50.697202,1580213,173,479,1651,-1082,-559,-330,52,270,-112
1069,0,2023-03-01T18:49:50.702685,1580218,178,491,1644,-1011,-589,-315,52,270,-112
1070,0,2023-03-01T18:49:50.708774,1580225,178,491,1644,-1011,-589,-315,52,270,-112
1071,0,2023-03-01T18:49:50.713549,1580229,178,491,1644,-1011,-589,-315,52,270,-112
1072,0,2023-03-01T18:49:50.719848,1580235,191,525,1648,-960,-595,-306,55,271,-107
1073,0,2023-03-01T18:49:50.726417,1580241,191,525,1648,-960,-595,-306,55,271,-107
1074,0,2023-03-01T18:49:50.732192,1580248,191,525,1648,-960,-595,-306,55,271,-107
1075,0,2023-03-01T18:49:50.737857,1580254,191,525,1648,-960,-595,-306,55,271,-107
1076,0,2023-03-01T18:49:50.742805,1580259,197,546,1642,-977,-589,-304,55,271,-107
1077,0,2023-03-01T18:49:50.748540,1580265,197,546,1642,-977,-589,-304,55,271,-107
1078,0,2023-03-01T18:49:50.753748,1580269,197,546,1642,-977,-589,-304,55,271,-107
1079,0,2023-03-01T18:49:50.760167,1580276,197,544,1642,-1036,-559,-319,55,271,-107
1080,0,2023-03-01T18:49:50.765890,1580281,197,544,1642,-1036,-559,-319,55,271,-107
1081,0,2023-03-01T18:49:50.771499,1580288,197,544,1642,-1036,-559,-319,55,271,-107
1082,0,2023-03-01T18:49:50.777289,1580293,197,544,1642,-1036,-559,-319,55,271,-107
1083,0,2023-03-01T18:49:50.782574,1580298,186,520,1646,-1087,-546,-334,55,271,-107
1084,0,2023-03-01T18:49:50.788565,1580305,186,520,1646,-1087,-546,-334,55,271,-107
1085,0,2023-03-01T18:49:50.793303,1580309,186,520,1646,-1087,-546,-334,55,271,-107
1086,0,2023-03-01T18:49:50.798961,1580315,178,499,1644,-1096,-550,-334,55,271,-107
1087,0,2023-03-01T18:49:50.804455,1580320,178,499,1644,-1096,-550,-334,55,271,-107
1088,0,2023-03-01T18:49:50.810272,1580326,178,499,1644,-1096,-550,-334,55,271,-107
1089,0,2023-03-01T18:49:50.816070,1580332,178,499,1644,-1096,-550,-334,55,271,-107
1090,0,2023-03-01T18:49:50.821165,1580338,174,488,1643,-1052,-562,-322,55,271,-107
1091,0,2023-03-01T18:49:50.826539,1580343,174,488,1643,-1052,-562,-322,55,271,-107
1092,0,2023-03-01T18:49:50.831377,1580347,174,488,1643,-1052,-562,-322,55,271,-107
1093,0,2023-03-01T18:49:50.837321,1580353,174,488,1643,-1052,-562,-322,55,271,-107
1094,0,2023-03-01T18:49:50.842583,1580358,185,503,1643,-994,-583,-312,56,268,-114
1095,0,2023-03-01T18:49:50.848744,1580364,185,503,1643,-994,-583,-312,56,268,-114
1096,0,2023-03-01T18:49:50.853540,1580369,185,503,1643,-994,-583,-312,56,268,-114
1097,0,2023-03-01T18:49:50.859210,1580376,193,528,1639,-971,-591,-305,56,268,-114
1098,0,2023-03-01T18:49:50.865414,1580381,193,528,1639,-971,-591,-305,56,268,-114
1099,0,2023-03-01T18:49:50.871411,1580387,193,528,1639,-971,-591,-305,56,268,-114
1100,0,2023-03-01T18:49:50.877415,1580393,193,528,1639,-971,-591,-305,56,268,-114
1101,0,2023-03-01T18:49:50.883454,1580398,197,539,1637,-1002,-582,-315,56,268,-114
1102,0,2023-03-01T18:49:50.889839,1580405,197,539,1637,-1002,-582,-315,56,268,-114
1103,0,2023-03-01T18:49:50.895628,1580411,197,539,1637,-1002,-582,-315,56,268,-114
1104,0,2023-03-01T18:49:50.900431,1580417,193,531,1640,-1047,-561,-326,56,268,-114
1105,0,2023-03-01T18:49:50.905691,1580422,193,531,1640,-1047,-561,-326,56,268,-114
1106,0,2023-03-01T18:49:50.912524,1580427,193,531,1640,-1047,-561,-326,56,268,-114
1107,0,2023-03-01T18:49:50.919536,1580435,188,513,1639,-1081,-553,-329,56,268,-114
1108,0,2023-03-01T18:49:50.925146,1580441,188,513,1639,-1081,-553,-329,56,268,-114
1109,0,2023-03-01T18:49:50.930778,1580447,188,513,1639,-1081,-553,-329,56,268,-114
1110,0,2023-03-01T18:49:50.936265,1580452,188,513,1639,-1081,-553,-329,56,268,-114
1111,0,2023-03-01T18:49:50.941415,1580457,180,496,1643,-1075,-560,-328,56,268,-114
1112,0,2023-03-01T18:49:50.947628,1580464,180,496,1643,-1075,-560,-328,56,268,-114
1113,0,2023-03-01T18:49:50.952880,1580469,180,496,1643,-1075,-560,-328,56,268,-114
1114,0,2023-03-01T18:49:50.958213,1580474,180,496,1643,-1075,-560,-328,56,268,-114
1115,0,2023-03-01T18:49:50.963367,1580479,181,496,1650,-1041,-573,-328,56,268,-114
1116,0,2023-03-01T18:49:50.969910,1580486,181,496,1650,-1041,-573,-328,56,268,-114
1117,0,2023-03-01T18:49:50.975589,1580491,181,496,1650,-1041,-573,-328,56,268,-114
1118,0,2023-03-01T18:49:50.980418,1580496,190,511,1652,-1010,-582,-318,62,272,-110
1119,0,2023-03-01T18:49:50.985696,1580502,190,511,1652,-1010,-582,-318,62,272,-110
1120,0,2023-03-01T18:49:50.990810,1580507,190,511,1652,-1010,-582,-318,62,272,-110
1121,0,2023-03-01T18:49:50.996876,1580513,190,511,1652,-1010,-582,-318,62,272,-110
1122,0,2023-03-01T18:49:51.002597,1580518,194,524,1642,-1000,-586,-318,62,272,-110
1123,0,2023-03-01T18:49:51.009163,1580525,194,524,1642,-1000,-586,-318,62,272,-110
1124,0,2023-03-01T18:49:51.014169,1580530,194,524,1642,-1000,-586,-318,62,272,-110
1125,0,2023-03-01T18:49:51.019715,1580535,195,535,1644,-1028,-575,-321,62,272,-110
1126,0,2023-03-01T18:49:51.025592,1580541,195,535,1644,-1028,-575,-321,62,272,-110
1127,0,2023-03-01T18:49:51.031663,1580548,195,535,1644,-1028,-575,-321,62,272,-110
1128,0,2023-03-01T18:49:51.037099,1580553,195,535,1644,-1028,-575,-321,62,272,-110
1129,0,2023-03-01T18:49:51.042051,1580558,188,529,1638,-1055,-558,-322,62,272,-110
1130,0,2023-03-01T18:49:51.047211,1580563,188,529,1638,-1055,-558,-322,62,272,-110
1131,0,2023-03-01T18:49:51.051942,1580568,188,529,1638,-1055,-558,-322,62,272,-110
1132,0,2023-03-01T18:49:51.057834,1580573,188,529,1638,-1055,-558,-322,62,272,-110
1133,0,2023-03-01T18:49:51.062901,1580579,187,512,1643,-1080,-555,-326,62,272,-110
1134,0,2023-03-01T18:49:51.068798,1580584,187,512,1643,-1080,-555,-326,62,272,-110
1135,0,2023-03-01T18:49:51.073705,1580590,187,512,1643,-1080,-555,-326,62,272,-110
1136,0,2023-03-01T18:49:51.079121,1580595,181,501,1642,-1054,-566,-324,62,272,-110
1137,0,2023-03-01T18:49:51.084624,1580601,181,501,1642,-1054,-566,-324,62,272,-110
1138,0,2023-03-01T18:49:51.089674,1580605,181,501,1642,-1054,-566,-324,62,272,-110
1139,0,2023-03-01T18:49:51.094379,1580610,181,501,1642,-1054,-566,-324,62,272,-110
1140,0,2023-03-01T18:49:51.099625,1580616,183,503,1648,-1019,-575,-311,57,269,-113
1141,0,2023-03-01T18:49:51.104779,1580620,183,503,1648,-1019,-575,-311,57,269,-113
1142,0,2023-03-01T18:49:51.110230,1580626,183,503,1648,-1019,-575,-311,57,269,-113
1143,0,2023-03-01T18:49:51.115974,1580632,183,503,1648,-1019,-575,-311,57,269,-113
1144,0,2023-03-01T18:49:51.120750,1580637,189,517,1646,-1000,-581,-306,57,269,-113
1145,0,2023-03-01T18:49:51.126400,1580643,189,517,1646,-1000,-581,-306,57,269,-113
1146,0,2023-03-01T18:49:51.131517,1580648,189,517,1646,-1000,-581,-306,57,269,-113
1147,0,2023-03-01T18:49:51.136704,1580653,189,517,1646,-1000,-581,-306,57,269,-113
1148,0,2023-03-01T18:49:51.141613,1580657,196,530,1640,-1012,-578,-312,57,269,-113
1149,0,2023-03-01T18:49:51.147171,1580663,196,530,1640,-1012,-578,-312,57,269,-113
1150,0,2023-03-01T18:49:51.152578,1580668,196,530,1640,-1012,-578,-312,57,269,-113
1151,0,2023-03-01T18:49:51.158313,1580675,196,530,1640,-1012,-578,-312,57,269,-113
1152,0,2023-03-01T18:49:51.163194,1580679,198,528,1641,-1037,-571,-318,57,269,-113
1153,0,2023-03-01T18:49:51.169620,1580686,198,528,1641,-1037,-571,-318,57,269,-113
1154,0,2023-03-01T18:49:51.174546,1580691,198,528,1641,-1037,-571,-318,57,269,-113
1155,0,2023-03-01T18:49:51.179852,1580696,190,517,1644,-1058,-568,-332,57,269,-113
1156,0,2023-03-01T18:49:51.185526,1580701,190,517,1644,-1058,-568,-332,57,269,-113
1157,0,2023-03-01T18:49:51.190181,1580706,190,517,1644,-1058,-568,-332,57,269,-113
1158,0,2023-03-01T18:49:51.195325,1580711,190,517,1644,-1058,-568,-332,57,269,-113
1159,0,2023-03-01T18:49:51.199921,1580716,190,504,1639,-1059,-558,-329,57,269,-113
1160,0,2023-03-01T18:49:51.205563,1580722,190,504,1639,-1059,-558,-329,57,269,-113
1161,0,2023-03-01T18:49:51.211307,1580727,190,504,1639,-1059,-558,-329,57,269,-113
1162,0,2023-03-01T18:49:51.216396,1580733,190,504,1639,-1059,-558,-329,57,269,-113
1163,0,2023-03-01T18:49:51.221314,1580737,179,503,1640,-1050,-571,-326,57,269,-113
1164,0,2023-03-01T18:49:51.227244,1580743,179,503,1640,-1050,-571,-326,57,269,-113
1165,0,2023-03-01T18:49:51.233060,1580749,179,503,1640,-1050,-571,-326,57,269,-113
1166,0,2023-03-01T18:49:51.238108,1580754,179,503,1640,-1050,-571,-326,57,269,-113
1167,0,2023-03-01T18:49:51.243344,1580759,184,508,1643,-1023,-584,-312,47,273,-115
1168,0,2023-03-01T18:49:51.249230,1580766,184,508,1643,-1023,-584,-312,47,273,-115
1169,0,2023-03-01T18:49:51.254045,1580770,184,508,1643,-1023,-584,-312,47,273,-115
1170,0,2023-03-01T18:49:51.259558,1580775,188,521,1640,-1015,-585,-310,47,273,-115
1171,0,2023-03-01T18:49:51.265334,1580781,188,521,1640,-1015,-585,-310,47,273,-115
1172,0,2023-03-01T18:49:51.270131,1580786,188,521,1640,-1015,-585,-310,47,273,-115
1173,0,2023-03-01T18:49:51.275588,1580791,188,521,1640,-1015,-585,-310,47,273,-115
1174,0,2023-03-01T18:49:51.280176,1580796,193,528,1643,-1023,-573,-307,47,273,-115
1175,0,2023-03-01T18:49:51.285453,1580802,193,528,1643,-1023,-573,-307,47,273,-115
1176,0,2023-03-01T18:49:51.290344,1580807,193,528,1643,-1023,-573,-307,47,273,-115
1177,0,2023-03-01T18:49:51.296123,1580812,193,528,1643,-1023,-573,-307,47,273,-115
1178,0,2023-03-01T18:49:51.300806,1580817,190,526,1643,-1038,-568,-325,47,273,-115
1179,0,2023-03-01T18:49:51.306072,1580822,190,526,1643,-1038,-568,-325,47,273,-115
1180,0,2023-03-01T18:49:51.311498,1580827,190,526,1643,-1038,-568,-325,47,273,-115
1181,0,2023-03-01T18:49:51.317306,1580833,190,526,1643,-1038,-568,-325,47,273,-115
1182,0,2023-03-01T18:49:51.322378,1580838,186,514,1642,-1059,-554,-325,47,273,-115
1183,0,2023-03-01T18:49:51.327871,1580844,186,514,1642,-1059,-554,-325,47,273,-115
1184,0,2023-03-01T18:49:51.333075,1580849,186,514,1642,-1059,-554,-325,47,273,-115
1185,0,2023-03-01T18:49:51.338993,1580855,186,514,1642,-1059,-554,-325,47,273,-115
1186,0,2023-03-01T18:49:51.344102,1580860,183,505,1641,-1048,-558,-326,47,273,-115
1187,0,2023-03-01T18:49:51.350144,1580866,183,505,1641,-1048,-558,-326,47,273,-115
1188,0,2023-03-01T18:49:51.355486,1580871,183,505,1641,-1048,-558,-326,47,273,-115
1189,0,2023-03-01T18:49:51.360453,1580876,184,508,1650,-1031,-565,-323,55,269,-113
1190,0,2023-03-01T18:49:51.366107,1580881,184,508,1650,-1031,-565,-323,55,269,-113
1191,0,2023-03-01T18:49:51.371339,1580888,184,508,1650,-1031,-565,-323,55,269,-113
1192,0,2023-03-01T18:49:51.376552,1580893,184,508,1650,-1031,-565,-323,55,269,-113
1193,0,2023-03-01T18:49:51.381615,1580898,184,515,1644,-1021,-580,-315,55,269,-113
1194,0,2023-03-01T18:49:51.387265,1580903,184,515,1644,-1021,-580,-315,55,269,-113
1195,0,2023-03-01T18:49:51.392411,1580908,184,515,1644,-1021,-580,-315,55,269,-113
1196,0,2023-03-01T18:49:51.399092,1580914,184,515,1644,-1021,-580,-315,55,269,-113
1197,0,2023-03-01T18:49:51.403898,1580920,189,522,1641,-1014,-577,-315,55,269,-113
1198,0,2023-03-01T18:49:51.409853,1580925,189,522,1641,-1014,-577,-315,55,269,-113
1199,0,2023-03-01T18:49:51.414853,1580931,189,522,1641,-1014,-577,-315,55,269,-113
1200,0,2023-03-01T18:49:51.419534,1580936,192,523,1639,-1031,-567,-324,55,269,-113
1201,0,2023-03-01T18:49:51.425575,1580941,192,523,1639,-1031,-567,-324,55,269,-113
1202,0,2023-03-01T18:49:51.431725,1580948,192,523,1639,-1031,-567,-324,55,269,-113
1203,0,2023-03-01T18:49:51.436801,1580953,192,523,1639,-1031,-567,-324,55,269,-113
1204,0,2023-03-01T18:49:51.441604,1580957,189,517,1641,-1048,-559,-319,55,269,-113
1205,0,2023-03-01T18:49:51.446990,1580963,189,517,1641,-1048,-559,-319,55,269,-113
1206,0,2023-03-01T18:49:51.452108,1580967,189,517,1641,-1048,-559,-319,55,269,-113
1207,0,2023-03-01T18:49:51.458038,1580974,189,517,1641,-1048,-559,-319,55,269,-113
1208,0,2023-03-01T18:49:51.462737,1580979,186,510,1640,-1057,-559,-323,55,269,-113
1209,0,2023-03-01T18:49:51.469461,1580985,186,510,1640,-1057,-559,-323,55,269,-113
1210,0,2023-03-01T18:49:51.474253,1580990,186,510,1640,-1057,-559,-323,55,269,-113
1211,0,2023-03-01T18:49:51.479442,1580995,186,510,1640,-1057,-559,-323,55,269,-113
1212,0,2023-03-01T18:49:51.484526,1581000,184,507,1644,-1049,-568,-326,55,269,-113
1213,0,2023-03-01T18:49:51.490445,1581006,184,507,1644,-1049,-568,-326,55,269,-113
1214,0,2023-03-01T18:49:51.495697,1581011,184,507,1644,-1049,-568,-326,55,269,-113
1215,0,2023-03-01T18:49:51.500323,1581017,188,511,1642,-1030,-572,-326,54,270,-112
1216,0,2023-03-01T18:49:51.505983,1581022,188,511,1642,-1030,-572,-326,54,270,-112
1217,0,2023-03-01T18:49:51.511577,1581028,188,511,1642,-1030,-572,-326,54,270,-112
1218,0,2023-03-01T18:49:51.517308,1581033,188,511,1642,-1030,-572,-326,54,270,-112
1219,0,2023-03-01T18:49:51.522496,1581038,189,519,1643,-1014,-579,-319,54,270,-112
1220,0,2023-03-01T18:49:51.528759,1581044,189,519,1643,-1014,-579,-319,54,270,-112
1221,0,2023-03-01T18:49:51.533444,1581049,189,519,1643,-1014,-579,-319,54,270,-112
1222,0,2023-03-01T18:49:51.539477,1581056,189,519,1643,-1014,-579,-319,54,270,-112
1223,0,2023-03-01T18:49:51.544807,1581061,193,524,1641,-1033,-576,-312,54,270,-112
1224,0,2023-03-01T18:49:51.550648,1581067,193,524,1641,-1033,-576,-312,54,270,-112
1225,0,2023-03-01T18:49:51.556218,1581072,193,524,1641,-1033,-576,-312,54,270,-112
1226,0,2023-03-01T18:49:51.561229,1581077,190,525,1649,-1040,-565,-315,54,270,-112
1227,0,2023-03-01T18:49:51.567116,1581083,190,525,1649,-1040,-565,-315,54,270,-112
1228,0,2023-03-01T18:49:51.572995,1581089,190,525,1649,-1040,-565,-315,54,270,-112
1229,0,2023-03-01T18:49:51.578292,1581094,190,525,1649,-1040,-565,-315,54,270,-112
1230,0,2023-03-01T18:49:51.583059,1581099,190,525,1649,-1040,-565,-315,54,270,-112
1231,0,2023-03-01T18:49:51.588766,1581105,190,525,1649,-1040,-565,-315,54,270,-112
1232,0,2023-03-01T18:49:51.593746,1581110,190,525,1649,-1040,-565,-315,54,270,-112
1233,0,2023-03-01T18:49:51.599393,1581115,190,525,1649,-1040,-565,-315,54,270,-112
1234,0,2023-03-01T18:49:51.604091,1581120,185,505,1642,-1050,-569,-322,54,270,-112
1235,0,2023-03-01T18:49:51.610835,1581126,185,505,1642,-1050,-569,-322,54,270,-112
1236,0,2023-03-01T18:49:51.616539,1581132,185,505,1642,-1050,-569,-322,54,270,-112
1237,0,2023-03-01T18:49:51.622058,1581137,186,516,1653,-1034,-574,-331,53,277,-109
1238,0,2023-03-01T18:49:51.627559,1581144,186,516,1653,-1034,-574,-331,53,277,-109
1239,0,2023-03-01T18:49:51.633218,1581150,186,516,1653,-1034,-574,-331,53,277,-109
1240,0,2023-03-01T18:49:51.639372,1581155,186,516,1653,-1034,-574,-331,53,277,-109
1241,0,2023-03-01T18:49:51.644502,1581160,186,510,1642,-1032,-578,-309,53,277,-109
1242,0,2023-03-01T18:49:51.651344,1581167,186,510,1642,-1032,-578,-309,53,277,-109
1243,0,2023-03-01T18:49:51.656901,1581173,186,510,1642,-1032,-578,-309,53,277,-109
1244,0,2023-03-01T18:49:51.661334,1581177,191,523,1642,-1027,-569,-298,53,277,-109
1245,0,2023-03-01T18:49:51.666769,1581182,191,523,1642,-1027,-569,-298,53,277,-109
1246,0,2023-03-01T18:49:51.672602,1581189,191,523,1642,-1027,-569,-298,53,277,-109
1247,0,2023-03-01T18:49:51.678178,1581194,191,523,1642,-1027,-569,-298,53,277,-109
1248,0,2023-03-01T18:49:51.683282,1581199,192,524,1635,-1029,-557,-270,53,277,-109
1249,0,2023-03-01T18:49:51.689664,1581206,192,524,1635,-1029,-557,-270,53,277,-109
1250,0,2023-03-01T18:49:51.694389,1581210,192,524,1635,-1029,-557,-270,53,277,-109
1251,0,2023-03-01T18:49:51.700103,1581216,186,506,1641,-1048,-550,-222,53,277,-109
1252,0,2023-03-01T18:49:51.705803,1581221,186,506,1641,-1048,-550,-222,53,277,-109
1253,0,2023-03-01T18:49:51.711603,1581228,186,506,1641,-1048,-550,-222,53,277,-109
1254,0,2023-03-01T18:49:51.717190,1581233,186,506,1641,-1048,-550,-222,53,277,-109
1255,0,2023-03-01T18:49:51.721883,1581238,192,518,1649,-1028,-549,-249,53,277,-109
1256,0,2023-03-01T18:49:51.727303,1581243,192,518,1649,-1028,-549,-249,53,277,-109
1257,0,2023-03-01T18:49:51.733540,1581249,192,518,1649,-1028,-549,-249,53,277,-109
1258,0,2023-03-01T18:49:51.739053,1581255,192,518,1649,-1028,-549,-249,53,277,-109
1259,0,2023-03-01T18:49:51.743970,1581260,192,513,1643,-1046,-543,-231,56,272,-114
1260,0,2023-03-01T18:49:51.749895,1581265,192,513,1643,-1046,-543,-231,56,272,-114
1261,0,2023-03-01T18:49:51.755591,1581272,192,513,1643,-1046,-543,-231,56,272,-114
1262,0,2023-03-01T18:49:51.760485,1581277,183,510,1656,-1030,-533,-153,56,272,-114
1263,0,2023-03-01T18:49:51.766274,1581282,183,510,1656,-1030,-533,-153,56,272,-114
1264,0,2023-03-01T18:49:51.771649,1581288,183,510,1656,-1030,-533,-153,56,272,-114
1265,0,2023-03-01T18:49:51.777038,1581293,183,510,1656,-1030,-533,-153,56,272,-114
1266,0,2023-03-01T18:49:51.781905,1581298,183,514,1645,-1021,-546,-183,56,272,-114
1267,0,2023-03-01T18:49:51.787317,1581303,183,514,1645,-1021,-546,-183,56,272,-114
1268,0,2023-03-01T18:49:51.792018,1581308,183,514,1645,-1021,-546,-183,56,272,-114
1269,0,2023-03-01T18:49:51.797658,1581314,183,514,1645,-1021,-546,-183,56,272,-114
1270,0,2023-03-01T18:49:51.802593,1581319,188,512,1633,-1020,-556,-196,56,272,-114
1271,0,2023-03-01T18:49:51.808135,1581324,188,512,1633,-1020,-556,-196,56,272,-114
1272,0,2023-03-01T18:49:51.812994,1581329,188,512,1633,-1020,-556,-196,56,272,-114
1273,0,2023-03-01T18:49:51.818432,1581334,188,512,1633,-1020,-556,-196,56,272,-114
1274,0,2023-03-01T18:49:51.823289,1581339,192,525,1642,-1002,-556,-183,56,272,-114
1275,0,2023-03-01T18:49:51.829142,1581345,192,525,1642,-1002,-556,-183,56,272,-114
1276,0,2023-03-01T18:49:51.833633,1581349,192,525,1642,-1002,-556,-183,56,272,-114
1277,0,2023-03-01T18:49:51.839169,1581356,192,525,1642,-1002,-556,-183,56,272,-114
1278,0,2023-03-01T18:49:51.843782,1581360,188,516,1639,-1007,-568,-197,56,272,-114
1279,0,2023-03-01T18:49:51.849491,1581365,188,516,1639,-1007,-568,-197,56,272,-114
1280,0,2023-03-01T18:49:51.854585,1581371,188,516,1639,-1007,-568,-197,56,272,-114
1281,0,2023-03-01T18:49:51.860115,1581376,195,517,1638,-932,-620,-196,56,272,-114
1282,0,2023-03-01T18:49:51.865760,1581382,195,517,1638,-932,-620,-196,56,272,-114
1283,0,2023-03-01T18:49:51.871719,1581387,195,517,1638,-932,-620,-196,56,272,-114
1284,0,2023-03-01T18:49:51.877833,1581393,195,517,1638,-932,-620,-196,56,272,-114
1285,0,2023-03-01T18:49:51.882932,1581399,179,506,1646,-904,-622,-174,53,261,-111
1286,0,2023-03-01T18:49:51.889040,1581405,179,506,1646,-904,-622,-174,53,261,-111
1287,0,2023-03-01T18:49:51.894011,1581410,179,506,1646,-904,-622,-174,53,261,-111
1288,0,2023-03-01T18:49:51.899785,1581416,179,506,1646,-904,-622,-174,53,261,-111
1289,0,2023-03-01T18:49:51.904904,1581421,196,529,1640,-948,-598,-208,53,261,-111
1290,0,2023-03-01T18:49:51.911300,1581427,196,529,1640,-948,-598,-208,53,261,-111
1291,0,2023-03-01T18:49:51.916965,1581432,196,529,1640,-948,-598,-208,53,261,-111
1292,0,2023-03-01T18:49:51.922290,1581438,180,507,1640,-934,-602,-171,53,261,-111
1293,0,2023-03-01T18:49:51.928219,1581444,180,507,1640,-934,-602,-171,53,261,-111
1294,0,2023-03-01T18:49:51.934612,1581451,180,507,1640,-934,-602,-171,53,261,-111
1295,0,2023-03-01T18:49:51.940222,1581456,196,529,1644,-944,-603,-189,53,261,-111
1296,0,2023-03-01T18:49:51.945625,1581461,196,529,1644,-944,-603,-189,53,261,-111
1297,0,2023-03-01T18:49:51.950798,1581466,196,529,1644,-944,-603,-189,53,261,-111
1298,0,2023-03-01T18:49:51.956864,1581472,196,529,1644,-944,-603,-189,53,261,-111
1299,0,2023-03-01T18:49:51.962102,1581477,186,517,1640,-924,-603,-169,53,261,-111
1300,0,2023-03-01T18:49:51.967921,1581484,186,517,1640,-924,-603,-169,53,261,-111
1301,0,2023-03-01T18:49:51.973496,1581490,186,517,1640,-924,-603,-169,53,261,-111
1302,0,2023-03-01T18:49:51.979661,1581496,186,517,1640,-924,-603,-169,53,261,-111
1303,0,2023-03-01T18:49:51.984544,1581501,195,523,1639,-945,-597,-172,53,261,-111
1304,0,2023-03-01T18:49:51.990308,1581506,195,523,1639,-945,-597,-172,53,261,-111
1305,0,2023-03-01T18:49:51.995563,1581511,195,523,1639,-945,-597,-172,53,261,-111
1306,0,2023-03-01T18:49:52.000760,1581516,190,516,1645,-942,-603,-174,49,273,-111
1307,0,2023-03-01T18:49:52.006182,1581522,190,516,1645,-942,-603,-174,49,273,-125
1308,0,2023-03-01T18:49:52.011979,1581528,190,516,1645,-942,-603,-174,49,273,-125
1309,0,2023-03-01T18:49:52.018418,1581534,190,516,1645,-942,-603,-174,49,273,-125
1310,0,2023-03-01T18:49:52.023509,1581540,194,519,1642,-940,-591,-176,49,273,-125
1311,0,2023-03-01T18:49:52.029541,1581546,194,519,1642,-940,-591,-176,49,273,-125
1312,0,2023-03-01T18:49:52.034489,1581550,194,519,1642,-940,-591,-176,49,273,-125
1313,0,2023-03-01T18:49:52.040292,1581556,194,519,1642,-940,-591,-176,49,273,-125
1314,0,2023-03-01T18:49:52.044927,1581561,192,523,1640,-931,-596,-170,49,273,-125
1315,0,2023-03-01T18:49:52.051188,1581568,192,523,1640,-931,-596,-170,49,273,-125
1316,0,2023-03-01T18:49:52.056654,1581573,192,523,1640,-931,-596,-170,49,273,-125
1317,0,2023-03-01T18:49:52.061551,1581578,193,527,1643,-926,-607,-172,49,273,-125
1318,0,2023-03-01T18:49:52.067163,1581583,193,527,1643,-926,-607,-172,49,273,-125
1319,0,2023-03-01T18:49:52.072369,1581588,193,527,1643,-926,-607,-172,49,273,-125
1320,0,2023-03-01T18:49:52.077628,1581594,193,527,1643,-926,-607,-172,49,273,-125
1321,0,2023-03-01T18:49:52.082364,1581598,190,525,1638,-908,-616,-164,49,273,-125
1322,0,2023-03-01T18:49:52.087558,1581603,190,525,1638,-908,-616,-164,49,273,-125
1323,0,2023-03-01T18:49:52.092280,1581608,190,525,1638,-908,-616,-164,49,273,-125
1324,0,2023-03-01T18:49:52.097899,1581614,190,525,1638,-908,-616,-164,49,273,-125
1325,0,2023-03-01T18:49:52.102998,1581619,199,526,1631,-932,-610,-163,49,273,-125
1326,0,2023-03-01T18:49:52.109139,1581625,199,526,1631,-932,-610,-163,49,273,-125
1327,0,2023-03-01T18:49:52.113935,1581630,199,526,1631,-932,-610,-163,49,273,-125
1328,0,2023-03-01T18:49:52.119594,1581635,199,526,1631,-932,-610,-163,49,273,-125
1329,0,2023-03-01T18:49:52.124651,1581640,195,521,1634,-928,-603,-164,49,273,-125
1330,0,2023-03-01T18:49:52.130354,1581646,195,521,1634,-928,-603,-164,49,273,-125
1331,0,2023-03-01T18:49:52.135962,1581652,195,521,1634,-928,-603,-164,49,273,-125
1332,0,2023-03-01T18:49:52.141037,1581657,198,526,1647,-926,-616,-176,49,263,-117
1333,0,2023-03-01T18:49:52.146540,1581663,198,526,1647,-926,-616,-176,49,263,-117
1334,0,2023-03-01T18:49:52.151389,1581668,198,526,1647,-926,-616,-176,49,263,-117
1335,0,2023-03-01T18:49:52.156805,1581673,198,526,1647,-926,-616,-176,49,263,-117
1336,0,2023-03-01T18:49:52.162135,1581678,193,528,1645,-921,-597,-170,49,263,-117
1337,0,2023-03-01T18:49:52.167291,1581683,193,528,1645,-921,-597,-170,49,263,-117
1338,0,2023-03-01T18:49:52.171831,1581688,193,528,1645,-921,-597,-170,49,263,-117
1339,0,2023-03-01T18:49:52.177065,1581693,193,528,1645,-921,-597,-170,49,263,-117
1340,0,2023-03-01T18:49:52.182071,1581699,191,523,1637,-927,-610,-155,49,263,-117
1341,0,2023-03-01T18:49:52.188068,1581704,191,523,1637,-927,-610,-155,49,263,-117
1342,0,2023-03-01T18:49:52.192671,1581709,191,523,1637,-927,-610,-155,49,263,-117
1343,0,2023-03-01T18:49:52.198396,1581714,191,523,1637,-927,-610,-155,49,263,-117
1344,0,2023-03-01T18:49:52.203392,1581719,197,532,1640,-914,-609,-154,49,263,-117
1345,0,2023-03-01T18:49:52.209351,1581725,197,532,1640,-914,-609,-154,49,263,-117
1346,0,2023-03-01T18:49:52.213962,1581730,197,532,1640,-914,-609,-154,49,263,-117
1347,0,2023-03-01T18:49:52.219342,1581735,197,532,1640,-914,-609,-154,49,263,-117
1348,0,2023-03-01T18:49:52.224292,1581741,197,534,1639,-917,-608,-148,49,263,-117
1349,0,2023-03-01T18:49:52.229643,1581746,197,534,1639,-917,-608,-148,49,263,-117
1350,0,2023-03-01T18:49:52.234549,1581751,197,534,1639,-917,-608,-148,49,263,-117
1351,0,2023-03-01T18:49:52.240190,1581756,197,534,1639,-917,-608,-148,49,263,-117
1352,0,2023-03-01T18:49:52.244930,1581761,194,526,1640,-920,-606,-141,49,263,-117
1353,0,2023-03-01T18:49:52.250804,1581767,194,526,1640,-920,-606,-141,49,263,-117
1354,0,2023-03-01T18:49:52.256206,1581772,194,526,1640,-920,-606,-141,49,263,-117
1355,0,2023-03-01T18:49:52.261336,1581777,202,536,1644,-916,-611,-154,50,266,-110
1356,0,2023-03-01T18:49:52.266933,1581783,202,536,1644,-916,-611,-154,50,266,-110
1357,0,2023-03-01T18:49:52.272646,1581789,202,536,1644,-916,-611,-154,50,266,-110
1358,0,2023-03-01T18:49:52.279369,1581796,202,536,1644,-916,-611,-154,50,266,-110
1359,0,2023-03-01T18:49:52.283801,1581800,191,523,1645,-909,-614,-134,50,266,-110
1360,0,2023-03-01T18:49:52.289498,1581806,191,523,1645,-909,-614,-134,50,266,-110
1361,0,2023-03-01T18:49:52.294317,1581810,191,523,1645,-909,-614,-134,50,266,-110
1362,0,2023-03-01T18:49:52.300004,1581816,191,523,1645,-909,-614,-134,50,266,-110
1363,0,2023-03-01T18:49:52.304826,1581821,191,523,1645,-909,-614,-134,50,266,-110
1364,0,2023-03-01T18:49:52.309681,1581826,191,523,1645,-909,-614,-134,50,266,-110
1365,0,2023-03-01T18:49:52.314515,1581831,191,523,1645,-909,-614,-134,50,266,-110
1366,0,2023-03-01T18:49:52.320175,1581836,191,523,1645,-909,-614,-134,50,266,-110
1367,0,2023-03-01T18:49:52.326084,1581841,196,530,1641,-910,-620,-151,50,266,-110
1368,0,2023-03-01T18:49:52.331912,1581848,196,530,1641,-910,-620,-151,50,266,-110
1369,0,2023-03-01T18:49:52.337546,1581853,196,530,1641,-910,-620,-151,50,266,-110
1370,0,2023-03-01T18:49:52.342526,1581858,196,525,1643,-907,-609,-136,50,266,-110
1371,0,2023-03-01T18:49:52.348141,1581864,196,525,1643,-907,-609,-136,50,266,-110
1372,0,2023-03-01T18:49:52.354262,1581870,196,525,1643,-907,-609,-136,50,266,-110
1373,0,2023-03-01T18:49:52.359744,1581876,196,525,1643,-907,-609,-136,50,266,-110
1374,0,2023-03-01T18:49:52.364828,1581881,201,532,1640,-903,-614,-148,50,266,-110
1375,0,2023-03-01T18:49:52.370380,1581886,201,532,1640,-903,-614,-148,50,266,-110
1376,0,2023-03-01T18:49:52.375895,1581892,201,532,1640,-903,-614,-148,50,266,-110
1377,0,2023-03-01T18:49:52.381656,1581897,194,526,1629,-905,-622,-129,50,266,-110
1378,0,2023-03-01T18:49:52.387501,1581903,194,526,1629,-905,-622,-129,50,266,-110
1379,0,2023-03-01T18:49:52.392521,1581908,194,526,1629,-905,-622,-129,50,266,-110
1380,0,2023-03-01T18:49:52.398055,1581914,194,526,1629,-905,-622,-129,50,266,-110
1381,0,2023-03-01T18:49:52.403170,1581919,196,538,1644,-911,-613,-130,50,266,-110
1382,0,2023-03-01T18:49:52.408925,1581925,196,538,1644,-911,-613,-130,50,266,-110
1383,0,2023-03-01T18:49:52.413924,1581930,196,538,1644,-911,-613,-130,50,266,-110
1384,0,2023-03-01T18:49:52.419609,1581935,196,538,1644,-911,-613,-130,50,266,-110
1385,0,2023-03-01T18:49:52.424696,1581940,202,536,1640,-911,-614,-139,50,266,-110
1386,0,2023-03-01T18:49:52.431238,1581947,202,536,1640,-911,-614,-139,50,266,-110
1387,0,2023-03-01T18:49:52.437128,1581953,202,536,1640,-911,-614,-139,50,266,-110
1388,0,2023-03-01T18:49:52.441963,1581958,197,532,1642,-903,-618,-146,50,266,-110
1389,0,2023-03-01T18:49:52.447796,1581964,197,532,1642,-903,-618,-146,50,266,-110
1390,0,2023-03-01T18:49:52.453436,1581969,197,532,1642,-903,-618,-146,50,266,-110
1391,0,2023-03-01T18:49:52.459480,1581975,197,532,1642,-903,-618,-146,50,266,-110
1392,0,2023-03-01T18:49:52.464858,1581980,199,539,1642,-910,-615,-147,50,266,-110
1393,0,2023-03-01T18:49:52.471494,1581987,199,539,1642,-910,-615,-147,50,266,-110
1394,0,2023-03-01T18:49:52.476876,1581992,199,539,1642,-910,-615,-147,50,266,-110
1395,0,2023-03-01T18:49:52.482070,1581998,201,537,1630,-906,-614,-146,50,266,-110
1396,0,2023-03-01T18:49:52.487693,1582004,201,537,1630,-906,-614,-146,50,266,-110
1397,0,2023-03-01T18:49:52.493881,1582009,201,537,1630,-906,-614,-146,50,266,-110
1398,0,2023-03-01T18:49:52.499386,1582016,201,537,1630,-906,-614,-146,50,266,-110
1399,0,2023-03-01T18:49:52.504362,1582020,203,541,1639,-897,-606,-131,50,266,-110
1400,0,2023-03-01T18:49:52.510462,1582026,203,541,1639,-897,-606,-131,50,266,-110
1401,0,2023-03-01T18:49:52.515822,1582031,203,541,1639,-897,-606,-131,50,266,-110
1402,0,2023-03-01T18:49:52.521137,1582036,198,538,1640,-900,-620,-139,55,267,-115
1403,0,2023-03-01T18:49:52.526714,1582043,198,538,1640,-900,-620,-139,55,267,-115
1404,0,2023-03-01T18:49:52.531548,1582048,198,538,1640,-900,-620,-139,55,267,-115
1405,0,2023-03-01T18:49:52.536200,1582052,198,538,1640,-900,-620,-139,55,267,-115
1406,0,2023-03-01T18:49:52.541082,1582057,199,534,1638,-906,-617,-136,55,267,-115
1407,0,2023-03-01T18:49:52.546530,1582062,199,534,1638,-906,-617,-136,55,267,-115
1408,0,2023-03-01T18:49:52.552593,1582068,199,534,1638,-906,-617,-136,55,267,-115
1409,0,2023-03-01T18:49:52.558540,1582073,199,534,1638,-906,-617,-136,55,267,-115
1410,0,2023-03-01T18:49:52.563533,1582080,205,538,1640,-892,-613,-136,55,267,-115
1411,0,2023-03-01T18:49:52.569459,1582086,205,538,1640,-892,-613,-136,55,267,-115
1412,0,2023-03-01T18:49:52.574317,1582091,205,538,1640,-892,-613,-136,55,267,-115
1413,0,2023-03-01T18:49:52.579928,1582096,205,538,1640,-892,-613,-136,55,267,-115
1414,0,2023-03-01T18:49:52.584364,1582101,206,541,1645,-899,-621,-137,55,267,-115
1415,0,2023-03-01T18:49:52.590300,1582106,206,541,1645,-899,-621,-137,55,267,-115
1416,0,2023-03-01T18:49:52.595526,1582111,206,541,1645,-899,-621,-137,55,267,-115
1417,0,2023-03-01T18:49:52.600477,1582116,206,541,1645,-899,-621,-137,55,267,-115
1418,0,2023-03-01T18:49:52.605498,1582121,198,540,1635,-905,-615,-117,55,267,-115
1419,0,2023-03-01T18:49:52.610998,1582128,198,540,1635,-905,-615,-117,55,267,-115
1420,0,2023-03-01T18:49:52.616159,1582133,198,540,1635,-905,-615,-117,55,267,-115
1421,0,2023-03-01T18:49:52.620816,1582137,207,543,1633,-894,-614,-125,55,267,-115
1422,0,2023-03-01T18:49:52.627036,1582142,207,543,1633,-894,-614,-125,55,267,-115
1423,0,2023-03-01T18:49:52.632055,1582148,207,543,1633,-894,-614,-125,55,267,-115
1424,0,2023-03-01T18:49:52.637686,1582154,207,543,1633,-894,-614,-125,55,267,-115
1425,0,2023-03-01T18:49:52.642682,1582158,201,537,1639,-901,-621,-128,61,271,-119
1426,0,2023-03-01T18:49:52.648216,1582163,201,537,1639,-901,-621,-128,61,271,-119
1427,0,2023-03-01T18:49:52.653211,1582170,201,537,1639,-901,-621,-128,61,271,-119
1428,0,2023-03-01T18:49:52.659197,1582175,201,537,1639,-901,-621,-128,61,271,-119
1429,0,2023-03-01T18:49:52.664519,1582181,202,544,1640,-897,-609,-106,61,271,-119
1430,0,2023-03-01T18:49:52.670762,1582187,202,544,1640,-897,-609,-106,61,271,-119
1431,0,2023-03-01T18:49:52.676615,1582192,202,544,1640,-897,-609,-106,61,271,-119
1432,0,2023-03-01T18:49:52.681165,1582197,205,547,1636,-902,-605,-127,61,271,-119
1433,0,2023-03-01T18:49:52.686794,1582202,205,547,1636,-902,-605,-127,61,271,-119
1434,0,2023-03-01T18:49:52.691815,1582208,205,547,1636,-902,-605,-127,61,271,-119
1435,0,2023-03-01T18:49:52.697057,1582214,205,547,1636,-902,-605,-127,61,271,-119
1436,0,2023-03-01T18:49:52.701884,1582218,204,542,1636,-906,-617,-127,61,271,-119
1437,0,2023-03-01T18:49:52.706832,1582223,204,542,1636,-906,-617,-127,61,271,-119
1438,0,2023-03-01T18:49:52.711878,1582228,204,542,1636,-906,-617,-127,61,271,-119
1439,0,2023-03-01T18:49:52.717362,1582233,204,542,1636,-906,-617,-127,61,271,-119
1440,0,2023-03-01T18:49:52.722324,1582238,208,547,1633,-876,-620,-127,61,271,-119
1441,0,2023-03-01T18:49:52.727533,1582243,208,547,1633,-876,-620,-127,61,271,-119
1442,0,2023-03-01T18:49:52.732612,1582248,208,547,1633,-876,-620,-127,61,271,-119
1443,0,2023-03-01T18:49:52.738198,1582254,208,547,1633,-876,-620,-127,61,271,-119
1444,0,2023-03-01T18:49:52.743741,1582260,206,544,1629,-873,-630,-127,61,271,-119
1445,0,2023-03-01T18:49:52.749750,1582266,206,544,1629,-873,-630,-127,61,271,-119
1446,0,2023-03-01T18:49:52.754463,1582271,206,544,1629,-873,-630,-127,61,271,-119
1447,0,2023-03-01T18:49:52.760055,1582276,206,544,1629,-873,-630,-127,61,271,-119
1448,0,2023-03-01T18:49:52.764876,1582281,204,546,1630,-872,-633,-120,61,271,-119
1449,0,2023-03-01T18:49:52.771098,1582287,204,546,1630,-872,-633,-120,61,271,-119
1450,0,2023-03-01T18:49:52.776448,1582292,204,546,1630,-872,-633,-120,61,271,-119
1451,0,2023-03-01T18:49:52.781238,1582298,203,549,1643,-870,-637,-126,58,260,-122
1452,0,2023-03-01T18:49:52.786286,1582303,203,549,1643,-870,-637,-126,58,260,-122
1453,0,2023-03-01T18:49:52.790908,1582307,203,549,1643,-870,-637,-126,58,260,-122
1454,0,2023-03-01T18:49:52.796230,1582312,203,549,1643,-870,-637,-126,58,260,-122
1455,0,2023-03-01T18:49:52.801403,1582317,209,552,1638,-888,-623,-122,58,260,-122
1456,0,2023-03-01T18:49:52.806783,1582323,209,552,1638,-888,-623,-122,58,260,-122
1457,0,2023-03-01T18:49:52.812103,1582328,209,552,1638,-888,-623,-122,58,260,-122
1458,0,2023-03-01T18:49:52.817975,1582333,209,552,1638,-888,-623,-122,58,260,-122
1459,0,2023-03-01T18:49:52.822869,1582339,213,544,1633,-882,-631,-135,58,260,-122
1460,0,2023-03-01T18:49:52.828119,1582345,213,544,1633,-882,-631,-135,58,260,-122
1461,0,2023-03-01T18:49:52.833010,1582349,213,544,1633,-882,-631,-135,58,260,-122
1462,0,2023-03-01T18:49:52.838766,1582354,213,544,1633,-882,-631,-135,58,260,-122
1463,0,2023-03-01T18:49:52.843790,1582360,211,553,1642,-878,-621,-148,58,260,-122
1464,0,2023-03-01T18:49:52.850112,1582366,211,553,1642,-878,-621,-148,58,260,-122
1465,0,2023-03-01T18:49:52.854843,1582371,211,553,1642,-878,-621,-148,58,260,-122
1466,0,2023-03-01T18:49:52.860020,1582376,211,553,1642,-878,-621,-148,58,260,-122
1467,0,2023-03-01T18:49:52.865039,1582381,209,551,1632,-886,-623,-129,58,260,-122
1468,0,2023-03-01T18:49:52.871128,1582388,209,551,1632,-886,-623,-129,58,260,-122
1469,0,2023-03-01T18:49:52.876660,1582393,209,551,1632,-886,-623,-129,58,260,-122
1470,0,2023-03-01T18:49:52.881581,1582398,211,552,1628,-900,-617,-119,58,260,-122
1471,0,2023-03-01T18:49:52.887156,1582403,211,552,1628,-900,-617,-119,58,260,-122
1472,0,2023-03-01T18:49:52.891897,1582408,211,552,1628,-900,-617,-119,58,260,-122
1473,0,2023-03-01T18:49:52.897470,1582413,211,552,1628,-900,-617,-119,58,260,-122
1474,0,2023-03-01T18:49:52.902363,1582418,205,550,1636,-876,-613,-92,55,271,-117
1475,0,2023-03-01T18:49:52.908024,1582424,205,550,1636,-876,-613,-92,55,271,-117
1476,0,2023-03-01T18:49:52.912802,1582429,205,550,1636,-876,-613,-92,55,271,-117
1477,0,2023-03-01T18:49:52.919351,1582436,205,550,1636,-876,-613,-92,55,271,-117
1478,0,2023-03-01T18:49:52.924208,1582440,208,548,1632,-876,-629,-115,55,271,-117
1479,0,2023-03-01T18:49:52.930333,1582446,208,548,1632,-876,-629,-115,55,271,-117
1480,0,2023-03-01T18:49:52.935399,1582451,208,548,1632,-876,-629,-115,55,271,-117
1481,0,2023-03-01T18:49:52.940967,1582457,208,548,1632,-876,-629,-115,55,271,-117
1482,0,2023-03-01T18:49:52.945889,1582461,214,552,1631,-875,-620,-110,55,271,-117
1483,0,2023-03-01T18:49:52.951885,1582468,214,552,1631,-875,-620,-110,55,271,-117
1484,0,2023-03-01T18:49:52.957886,1582474,214,552,1631,-875,-620,-110,55,271,-117
1485,0,2023-03-01T18:49:52.963216,1582480,212,559,1635,-866,-624,-113,55,271,-117
1486,0,2023-03-01T18:49:52.968750,1582485,212,559,1635,-866,-624,-113,55,271,-117
1487,0,2023-03-01T18:49:52.973666,1582490,212,559,1635,-866,-624,-113,55,271,-117
1488,0,2023-03-01T18:49:52.980446,1582496,212,559,1635,-866,-624,-113,55,271,-117
1489,0,2023-03-01T18:49:52.985745,1582501,216,560,1631,-877,-617,-115,55,271,-117
1490,0,2023-03-01T18:49:52.992452,1582509,216,560,1631,-877,-617,-115,55,271,-117
1491,0,2023-03-01T18:49:52.998652,1582515,216,560,1631,-877,-617,-115,55,271,-117
1492,0,2023-03-01T18:49:53.003532,1582520,210,554,1638,-877,-618,-113,55,271,-117
1493,0,2023-03-01T18:49:53.009897,1582526,210,554,1638,-877,-618,-113,55,271,-117
1494,0,2023-03-01T18:49:53.014765,1582531,210,554,1638,-877,-618,-113,55,271,-117
1495,0,2023-03-01T18:49:53.020196,1582536,210,554,1638,-877,-618,-113,55,271,-117
1496,0,2023-03-01T18:49:53.025439,1582541,213,557,1632,-889,-614,-129,55,271,-117
1497,0,2023-03-01T18:49:53.031499,1582547,213,557,1632,-889,-614,-129,55,271,-117
1498,0,2023-03-01T18:49:53.037167,1582553,213,557,1632,-889,-614,-129,55,271,-117
1499,0,2023-03-01T18:49:53.042796,1582559,211,552,1637,-889,-607,-119,54,258,-108
1500,0,2023-03-01T18:49:53.048618,1582565,211,552,1637,-889,-607,-119,54,258,-108
1501,0,2023-03-01T18:49:53.054446,1582570,211,552,1637,-889,-607,-119,54,258,-108
1502,0,2023-03-01T18:49:53.059913,1582576,211,552,1637,-889,-607,-119,54,258,-108
1503,0,2023-03-01T18:49:53.065109,1582581,215,560,1633,-880,-617,-119,54,258,-108
1504,0,2023-03-01T18:49:53.071937,1582587,215,560,1633,-880,-617,-119,54,258,-108
1505,0,2023-03-01T18:49:53.077560,1582594,215,560,1633,-880,-617,-119,54,258,-108
1506,0,2023-03-01T18:49:53.082298,1582599,213,564,1635,-879,-621,-99,54,258,-108
1507,0,2023-03-01T18:49:53.087894,1582604,213,564,1635,-879,-621,-99,54,258,-108
1508,0,2023-03-01T18:49:53.093145,1582609,213,564,1635,-879,-621,-99,54,258,-108
1509,0,2023-03-01T18:49:53.098620,1582615,213,564,1635,-879,-621,-99,54,258,-108
1510,0,2023-03-01T18:49:53.103536,1582619,213,562,1636,-882,-625,-93,54,258,-108
1511,0,2023-03-01T18:49:53.109389,1582625,213,562,1636,-882,-625,-93,54,258,-108
1512,0,2023-03-01T18:49:53.114060,1582630,213,562,1636,-882,-625,-93,54,258,-108
1513,0,2023-03-01T18:49:53.119138,1582636,213,562,1636,-882,-625,-93,54,258,-108
1514,0,2023-03-01T18:49:53.124117,1582640,214,563,1633,-883,-620,-92,54,258,-108
1515,0,2023-03-01T18:49:53.130461,1582647,214,563,1633,-883,-620,-92,54,258,-108
1516,0,2023-03-01T18:49:53.135157,1582651,214,563,1633,-883,-620,-92,54,258,-108
1517,0,2023-03-01T18:49:53.139916,1582656,214,563,1633,-883,-620,-92,54,258,-108
1518,0,2023-03-01T18:49:53.145671,1582661,211,553,1634,-892,-608,-99,54,258,-108
1519,0,2023-03-01T18:49:53.151501,1582667,211,553,1634,-892,-608,-99,54,258,-108
1520,0,2023-03-01T18:49:53.157108,1582673,211,553,1634,-892,-608,-99,54,258,-108
1521,0,2023-03-01T18:49:53.162101,1582679,227,576,1624,-910,-612,-123,46,264,-112
1522,0,2023-03-01T18:49:53.167375,1582684,227,576,1624,-910,-612,-123,46,264,-112
1523,0,2023-03-01T18:49:53.172178,1582688,227,576,1624,-910,-612,-123,46,264,-112
1524,0,2023-03-01T18:49:53.177480,1582694,227,576,1624,-910,-612,-123,46,264,-112
1525,0,2023-03-01T18:49:53.182115,1582698,205,542,1637,-898,-606,-93,46,264,-112
1526,0,2023-03-01T18:49:53.187570,1582703,205,542,1637,-898,-606,-93,46,264,-112
1527,0,2023-03-01T18:49:53.193333,1582709,205,542,1637,-898,-606,-93,46,264,-112
1528,0,2023-03-01T18:49:53.198634,1582714,205,542,1637,-898,-606,-93,46,264,-112
1529,0,2023-03-01T18:49:53.203056,1582720,212,563,1639,-881,-629,-124,46,264,-112
1530,0,2023-03-01T18:49:53.208207,1582725,212,563,1639,-881,-629,-124,46,264,-112
1531,0,2023-03-01T18:49:53.213839,1582730,212,563,1639,-881,-629,-124,46,264,-112
1532,0,2023-03-01T18:49:53.219384,1582736,212,563,1639,-881,-629,-124,46,264,-112
1533,0,2023-03-01T18:49:53.224393,1582740,235,583,1619,-898,-615,-128,46,264,-112
1534,0,2023-03-01T18:49:53.229858,1582746,235,583,1619,-898,-615,-128,46,264,-112
1535,0,2023-03-01T18:49:53.234823,1582751,235,583,1619,-898,-615,-128,46,264,-112
1536,0,2023-03-01T18:49:53.240942,1582756,235,583,1619,-898,-615,-128,46,264,-112
1537,0,2023-03-01T18:49:53.245864,1582761,201,546,1631,-856,-630,-60,46,264,-112
1538,0,2023-03-01T18:49:53.251201,1582768,201,546,1631,-856,-630,-60,46,264,-112
1539,0,2023-03-01T18:49:53.256389,1582773,201,546,1631,-856,-630,-60,46,264,-112
1540,0,2023-03-01T18:49:53.261226,1582778,201,546,1631,-856,-630,-60,46,264,-112
1541,0,2023-03-01T18:49:53.265960,1582782,247,603,1632,-915,-599,-141,46,264,-112
1542,0,2023-03-01T18:49:53.271352,1582787,247,603,1632,-915,-599,-141,46,264,-112
1543,0,2023-03-01T18:49:53.277824,1582793,247,603,1632,-915,-599,-141,46,264,-112
1544,0,2023-03-01T18:49:53.282672,1582798,200,538,1634,-867,-632,-61,55,267,-115
1545,0,2023-03-01T18:49:53.288026,1582804,200,538,1634,-867,-632,-61,55,267,-115
1546,0,2023-03-01T18:49:53.293762,1582810,200,538,1634,-867,-632,-61,55,267,-115
1547,0,2023-03-01T18:49:53.299258,1582816,200,538,1634,-867,-632,-61,55,267,-115
1548,0,2023-03-01T18:49:53.304148,1582820,246,604,1632,-915,-599,-132,55,267,-115
1549,0,2023-03-01T18:49:53.310043,1582826,246,604,1632,-915,-599,-132,55,267,-115
1550,0,2023-03-01T18:49:53.315246,1582831,246,604,1632,-915,-599,-132,55,267,-115
1551,0,2023-03-01T18:49:53.320940,1582837,246,604,1632,-915,-599,-132,55,267,-115
1552,0,2023-03-01T18:49:53.326186,1582842,203,545,1636,-868,-622,-63,55,267,-115
1553,0,2023-03-01T18:49:53.332555,1582849,203,545,1636,-868,-622,-63,55,267,-115
1554,0,2023-03-01T18:49:53.337786,1582854,203,545,1636,-868,-622,-63,55,267,-115
1555,0,2023-03-01T18:49:53.342513,1582859,247,604,1622,-915,-606,-123,55,267,-115
1556,0,2023-03-01T18:49:53.348348,1582864,247,604,1622,-915,-606,-123,55,267,-115
1557,0,2023-03-01T18:49:53.353220,1582869,247,604,1622,-915,-606,-123,55,267,-115
1558,0,2023-03-01T18:49:53.358533,1582875,247,604,1622,-915,-606,-123,55,267,-115
1559,0,2023-03-01T18:49:53.364063,1582879,203,548,1647,-875,-620,-62,55,267,-115
1560,0,2023-03-01T18:49:53.369728,1582885,203,548,1647,-875,-620,-62,55,267,-115
1561,0,2023-03-01T18:49:53.374747,1582891,203,548,1647,-875,-620,-62,55,267,-115
1562,0,2023-03-01T18:49:53.380323,1582897,203,548,1647,-875,-620,-62,55,267,-115
1563,0,2023-03-01T18:49:53.384992,1582901,243,602,1625,-927,-597,-140,55,267,-115
1564,0,2023-03-01T18:49:53.390722,1582907,243,602,1625,-927,-597,-140,55,267,-115
1565,0,2023-03-01T18:49:53.396011,1582912,243,602,1625,-927,-597,-140,55,267,-115
1566,0,2023-03-01T18:49:53.401061,1582917,243,602,1625,-927,-597,-140,55,267,-115
1567,0,2023-03-01T18:49:53.406282,1582922,205,549,1636,-850,-635,-72,55,267,-115
1568,0,2023-03-01T18:49:53.412516,1582928,205,549,1636,-850,-635,-72,55,267,-115
1569,0,2023-03-01T18:49:53.418152,1582935,205,549,1636,-850,-635,-72,55,267,-115
1570,0,2023-03-01T18:49:53.422829,1582939,229,577,1630,-936,-580,-134,45,273,-119
1571,0,2023-03-01T18:49:53.428246,1582945,229,577,1630,-936,-580,-134,45,273,-119
1572,0,2023-03-01T18:49:53.433866,1582950,229,577,1630,-936,-580,-134,45,273,-119
1573,0,2023-03-01T18:49:53.439884,1582956,229,577,1630,-936,-580,-134,45,273,-119
1574,0,2023-03-01T18:49:53.444866,1582961,216,562,1636,-856,-640,-109,45,273,-119
1575,0,2023-03-01T18:49:53.450017,1582966,216,562,1636,-856,-640,-109,45,273,-119
1576,0,2023-03-01T18:49:53.454830,1582971,216,562,1636,-856,-640,-109,45,273,-119
1577,0,2023-03-01T18:49:53.460250,1582977,216,562,1636,-856,-640,-109,45,273,-119
1578,0,2023-03-01T18:49:53.465170,1582982,223,567,1632,-921,-600,-102,45,273,-119
1579,0,2023-03-01T18:49:53.470815,1582987,223,567,1632,-921,-600,-102,45,273,-119
1580,0,2023-03-01T18:49:53.476336,1582992,223,567,1632,-921,-600,-102,45,273,-119
1581,0,2023-03-01T18:49:53.481482,1582997,223,567,1632,-921,-600,-102,45,273,-119
1582,0,2023-03-01T18:49:53.486106,1583002,226,577,1636,-890,-621,-145,45,273,-119
1583,0,2023-03-01T18:49:53.491923,1583008,226,577,1636,-890,-621,-145,45,273,-119
1584,0,2023-03-01T18:49:53.497627,1583013,226,577,1636,-890,-621,-145,45,273,-119
1585,0,2023-03-01T18:49:53.502637,1583019,223,573,1625,-903,-614,-99,45,273,-119
1586,0,2023-03-01T18:49:53.508556,1583025,223,573,1625,-903,-614,-99,45,273,-119
1587,0,2023-03-01T18:49:53.514424,1583031,223,573,1625,-903,-614,-99,45,273,-119
1588,0,2023-03-01T18:49:53.520166,1583036,223,573,1625,-903,-614,-99,45,273,-119
1589,0,2023-03-01T18:49:53.525293,1583041,228,585,1623,-887,-613,-128,45,273,-119
1590,0,2023-03-01T18:49:53.531518,1583047,228,585,1623,-887,-613,-128,45,273,-119
1591,0,2023-03-01T18:49:53.536193,1583052,228,585,1623,-887,-613,-128,45,273,-119
1592,0,2023-03-01T18:49:53.540765,1583057,228,585,1623,-887,-613,-128,45,273,-119
1593,0,2023-03-01T18:49:53.545522,1583062,224,572,1637,-873,-623,-82,47,269,-117
1594,0,2023-03-01T18:49:53.552026,1583068,224,572,1637,-873,-623,-82,47,269,-117
1595,0,2023-03-01T18:49:53.557616,1583074,224,572,1637,-873,-623,-82,47,269,-117
1596,0,2023-03-01T18:49:53.562505,1583079,238,595,1625,-938,-589,-144,47,269,-117
1597,0,2023-03-01T18:49:53.568159,1583084,238,595,1625,-938,-589,-144,47,269,-117
1598,0,2023-03-01T18:49:53.574001,1583090,238,595,1625,-938,-589,-144,47,269,-117
1599,0,2023-03-01T18:49:53.579446,1583095,238,595,1625,-938,-589,-144,47,269,-117
1600,0,2023-03-01T18:49:53.584130,1583100,211,562,1648,-748,-695,-57,47,269,-117
1601,0,2023-03-01T18:49:53.590226,1583107,211,562,1648,-748,-695,-57,47,269,-117
1602,0,2023-03-01T18:49:53.595304,1583112,211,562,1648,-748,-695,-57,47,269,-117
1603,0,2023-03-01T18:49:53.600423,1583116,211,562,1648,-748,-695,-57,47,269,-117
1604,0,2023-03-01T18:49:53.605561,1583121,229,578,1622,-927,-599,-85,47,269,-117
1605,0,2023-03-01T18:49:53.611461,1583127,229,578,1622,-927,-599,-85,47,269,-117
1606,0,2023-03-01T18:49:53.616740,1583133,229,578,1622,-927,-599,-85,47,269,-117
1607,0,2023-03-01T18:49:53.621500,1583137,229,578,1622,-927,-599,-85,47,269,-117
1608,0,2023-03-01T18:49:53.626250,1583142,227,585,1624,-1004,-554,-217,47,269,-117
1609,0,2023-03-01T18:49:53.631759,1583148,227,585,1624,-1004,-554,-217,47,269,-117
1610,0,2023-03-01T18:49:53.638087,1583154,227,585,1624,-1004,-554,-217,47,269,-117
1611,0,2023-03-01T18:49:53.642846,1583159,220,575,1636,-764,-693,-54,47,269,-117
1612,0,2023-03-01T18:49:53.648318,1583164,220,575,1636,-764,-693,-54,47,269,-117
1613,0,2023-03-01T18:49:53.653791,1583170,220,575,1636,-764,-693,-54,47,269,-117
1614,0,2023-03-01T18:49:53.659462,1583175,220,575,1636,-764,-693,-54,47,269,-117
1615,0,2023-03-01T18:49:53.665174,1583181,231,578,1618,-874,-614,-72,47,269,-117
1616,0,2023-03-01T18:49:53.670785,1583186,231,578,1618,-874,-614,-72,47,269,-117
1617,0,2023-03-01T18:49:53.676132,1583193,231,578,1618,-874,-614,-72,47,269,-117
1618,0,2023-03-01T18:49:53.680836,1583197,231,578,1618,-874,-614,-72,47,269,-117
1619,0,2023-03-01T18:49:53.685556,1583202,217,569,1638,-1014,-543,-188,50,272,-114
1620,0,2023-03-01T18:49:53.691436,1583208,217,569,1638,-1014,-543,-188,50,272,-114
1621,0,2023-03-01T18:49:53.698558,1583215,217,569,1638,-1014,-543,-188,50,272,-114
1622,0,2023-03-01T18:49:53.703041,1583219,245,605,1638,-834,-654,-114,50,272,-114
1623,0,2023-03-01T18:49:53.708616,1583224,245,605,1638,-834,-654,-114,50,272,-114
1624,0,2023-03-01T18:49:53.714526,1583230,245,605,1638,-834,-654,-114,50,272,-114
1625,0,2023-03-01T18:49:53.720146,1583237,245,605,1638,-834,-654,-114,50,272,-114
1626,0,2023-03-01T18:49:53.724880,1583241,215,556,1612,-887,-604,-43,50,272,-114
1627,0,2023-03-01T18:49:53.730697,1583247,215,556,1612,-887,-604,-43,50,272,-114
1628,0,2023-03-01T18:49:53.735685,1583252,215,556,1612,-887,-604,-43,50,272,-114
1629,0,2023-03-01T18:49:53.740531,1583257,215,556,1612,-887,-604,-43,50,272,-114
1630,0,2023-03-01T18:49:53.745393,1583261,249,617,1628,-931,-600,-204,50,272,-114
1631,0,2023-03-01T18:49:53.751749,1583267,249,617,1628,-931,-600,-204,50,272,-114
1632,0,2023-03-01T18:49:53.756899,1583273,249,617,1628,-931,-600,-204,50,272,-114
1633,0,2023-03-01T18:49:53.761658,1583278,249,617,1628,-931,-600,-204,50,272,-114
1634,0,2023-03-01T18:49:53.766770,1583283,217,567,1644,-815,-666,-38,50,272,-114
1635,0,2023-03-01T18:49:53.772656,1583289,217,567,1644,-815,-666,-38,50,272,-114
1636,0,2023-03-01T18:49:53.778163,1583294,217,567,1644,-815,-666,-38,50,272,-114
1637,0,2023-03-01T18:49:53.782892,1583299,222,571,1612,-960,-568,-115,50,272,-114
1638,0,2023-03-01T18:49:53.788566,1583304,222,571,1612,-960,-568,-115,50,272,-114
1639,0,2023-03-01T18:49:53.793404,1583309,222,571,1612,-960,-568,-115,50,272,-114
1640,0,2023-03-01T18:49:53.799274,1583315,222,571,1612,-960,-568,-115,50,272,-114
1641,0,2023-03-01T18:49:53.804229,1583321,244,607,1627,-813,-674,-160,53,267,-111
1642,0,2023-03-01T18:49:53.809912,1583326,244,607,1627,-813,-674,-160,53,267,-111
1643,0,2023-03-01T18:49:53.815039,1583331,244,607,1627,-813,-674,-160,53,267,-111
1644,0,2023-03-01T18:49:53.819836,1583336,244,607,1627,-813,-674,-160,53,267,-111
1645,0,2023-03-01T18:49:53.824728,1583341,224,575,1633,-845,-638,-32,53,267,-111
1646,0,2023-03-01T18:49:53.830192,1583346,224,575,1633,-845,-638,-32,53,267,-111
1647,0,2023-03-01T18:49:53.835330,1583351,224,575,1633,-845,-638,-32,53,267,-111
1648,0,2023-03-01T18:49:53.841213,1583357,224,575,1633,-845,-638,-32,53,267,-111
1649,0,2023-03-01T18:49:53.846167,1583362,229,583,1630,-906,-618,-141,53,267,-111
1650,0,2023-03-01T18:49:53.851952,1583368,229,583,1630,-906,-618,-141,53,267,-111
1651,0,2023-03-01T18:49:53.857856,1583374,229,583,1630,-906,-618,-141,53,267,-111
1652,0,2023-03-01T18:49:53.862643,1583379,243,603,1628,-866,-647,-123,53,267,-111
1653,0,2023-03-01T18:49:53.868504,1583384,243,603,1628,-866,-647,-123,53,267,-111
1654,0,2023-03-01T18:49:53.873874,1583390,243,603,1628,-866,-647,-123,53,267,-111
1655,0,2023-03-01T18:49:53.878971,1583395,243,603,1628,-866,-647,-123,53,267,-111
1656,0,2023-03-01T18:49:53.883817,1583399,226,578,1626,-869,-630,-65,53,267,-111
1657,0,2023-03-01T18:49:53.889403,1583406,226,578,1626,-869,-630,-65,53,267,-111
1658,0,2023-03-01T18:49:53.894288,1583411,226,578,1626,-869,-630,-65,53,267,-111
1659,0,2023-03-01T18:49:53.899728,1583416,226,578,1626,-869,-630,-65,53,267,-111
1660,0,2023-03-01T18:49:53.904428,1583421,238,600,1629,-870,-636,-129,53,267,-111
1661,0,2023-03-01T18:49:53.910905,1583427,238,600,1629,-870,-636,-129,53,267,-111
1662,0,2023-03-01T18:49:53.916330,1583432,238,600,1629,-870,-636,-129,53,267,-111
1663,0,2023-03-01T18:49:53.921444,1583437,238,600,1629,-870,-636,-129,53,267,-111
1664,0,2023-03-01T18:49:53.926365,1583442,232,588,1625,-889,-625,-100,53,267,-111
1665,0,2023-03-01T18:49:53.932399,1583449,232,588,1625,-889,-625,-100,53,267,-111
1666,0,2023-03-01T18:49:53.937724,1583454,232,588,1625,-889,-625,-100,53,267,-111
1667,0,2023-03-01T18:49:53.942500,1583459,238,593,1626,-888,-617,-114,51,267,-111
1668,0,2023-03-01T18:49:53.948523,1583465,238,593,1626,-888,-617,-114,51,265,-119
1669,0,2023-03-01T18:49:53.953141,1583469,238,593,1626,-888,-617,-114,51,265,-119
1670,0,2023-03-01T18:49:53.958784,1583475,238,593,1626,-888,-617,-114,51,265,-119
1671,0,2023-03-01T18:49:53.964316,1583480,235,592,1633,-878,-623,-114,51,265,-119
1672,0,2023-03-01T18:49:53.969689,1583485,235,592,1633,-878,-623,-114,51,265,-119
1673,0,2023-03-01T18:49:53.974875,1583491,235,592,1633,-878,-623,-114,51,265,-119
1674,0,2023-03-01T18:49:53.980451,1583497,235,592,1633,-878,-623,-114,51,265,-119
1675,0,2023-03-01T18:49:53.985827,1583502,237,596,1625,-881,-613,-116,51,265,-119
1676,0,2023-03-01T18:49:53.992963,1583508,237,596,1625,-881,-613,-116,51,265,-119
1677,0,2023-03-01T18:49:53.999070,1583515,237,596,1625,-881,-613,-116,51,265,-119
1678,0,2023-03-01T18:49:54.005075,1583521,236,593,1626,-866,-626,-110,51,265,-119
1679,0,2023-03-01T18:49:54.010579,1583526,236,593,1626,-866,-626,-110,51,265,-119
1680,0,2023-03-01T18:49:54.016178,1583533,236,593,1626,-866,-626,-110,51,265,-119
1681,0,2023-03-01T18:49:54.021577,1583538,236,593,1626,-866,-626,-110,51,265,-119
1682,0,2023-03-01T18:49:54.027757,1583544,243,597,1624,-879,-630,-114,51,265,-119
1683,0,2023-03-01T18:49:54.034064,1583550,243,597,1624,-879,-630,-114,51,265,-119
1684,0,2023-03-01T18:49:54.039740,1583556,243,597,1624,-879,-630,-114,51,265,-119
1685,0,2023-03-01T18:49:54.045308,1583561,240,599,1623,-864,-627,-112,51,265,-119
1686,0,2023-03-01T18:49:54.051352,1583567,240,599,1623,-864,-627,-112,51,265,-119
1687,0,2023-03-01T18:49:54.057227,1583574,240,599,1623,-864,-627,-112,51,265,-119
1688,0,2023-03-01T18:49:54.062490,1583579,240,599,1623,-864,-627,-112,51,265,-119
1689,0,2023-03-01T18:49:54.067470,1583584,237,596,1627,-887,-624,-113,53,257,-115
1690,0,2023-03-01T18:49:54.073723,1583590,237,596,1627,-887,-624,-113,53,257,-115
1691,0,2023-03-01T18:49:54.079433,1583596,237,596,1627,-887,-624,-113,53,257,-115
1692,0,2023-03-01T18:49:54.084210,1583600,236,598,1629,-878,-623,-113,53,257,-115
1693,0,2023-03-01T18:49:54.090381,1583606,236,598,1629,-878,-623,-113,53,257,-115
1694,0,2023-03-01T18:49:54.095206,1583611,236,598,1629,-878,-623,-113,53,257,-115
1695,0,2023-03-01T18:49:54.100356,1583617,236,598,1629,-878,-623,-113,53,257,-115
1696,0,2023-03-01T18:49:54.105143,1583622,241,600,1623,-879,-628,-123,53,257,-115
1697,0,2023-03-01T18:49:54.111231,1583627,241,600,1623,-879,-628,-123,53,257,-115
1698,0,2023-03-01T18:49:54.116906,1583633,241,600,1623,-879,-628,-123,53,257,-115
1699,0,2023-03-01T18:49:54.121849,1583638,241,600,1623,-879,-628,-123,53,257,-115
1700,0,2023-03-01T18:49:54.126825,1583643,243,597,1622,-871,-622,-120,53,257,-115
1701,0,2023-03-01T18:49:54.133022,1583649,243,597,1622,-871,-622,-120,53,257,-115
1702,0,2023-03-01T18:49:54.139798,1583655,243,597,1622,-871,-622,-120,53,257,-115
1703,0,2023-03-01T18:49:54.145072,1583661,241,603,1626,-875,-632,-129,53,257,-115
1704,0,2023-03-01T18:49:54.151540,1583667,241,603,1626,-875,-632,-129,53,257,-115
1705,0,2023-03-01T18:49:54.157350,1583674,241,603,1626,-875,-632,-129,53,257,-115
1706,0,2023-03-01T18:49:54.162227,1583678,241,603,1626,-875,-632,-129,53,257,-115
1707,0,2023-03-01T18:49:54.167256,1583683,240,600,1626,-873,-631,-114,53,257,-115
1708,0,2023-03-01T18:49:54.173757,1583689,240,600,1626,-873,-631,-114,53,257,-115
1709,0,2023-03-01T18:49:54.179344,1583695,240,600,1626,-873,-631,-114,53,257,-115
1710,0,2023-03-01T18:49:54.184403,1583700,241,601,1630,-879,-633,-126,45,275,-123
1711,0,2023-03-01T18:49:54.190207,1583707,241,601,1630,-879,-633,-126,45,275,-123
1712,0,2023-03-01T18:49:54.195027,1583711,241,601,1630,-879,-633,-126,45,275,-123
1713,0,2023-03-01T18:49:54.200009,1583716,241,601,1630,-879,-633,-126,45,275,-123
1714,0,2023-03-01T18:49:54.205597,1583722,240,603,1633,-880,-627,-120,45,275,-123
1715,0,2023-03-01T18:49:54.212492,1583728,240,603,1633,-880,-627,-120,45,275,-123
1716,0,2023-03-01T18:49:54.218125,1583734,240,603,1633,-880,-627,-120,45,275,-123
1717,0,2023-03-01T18:49:54.223442,1583739,243,603,1623,-869,-622,-119,45,275,-123
1718,0,2023-03-01T18:49:54.228730,1583745,243,603,1623,-869,-622,-119,45,275,-123
1719,0,2023-03-01T18:49:54.233670,1583750,243,603,1623,-869,-622,-119,45,275,-123
1720,0,2023-03-01T18:49:54.239408,1583756,243,603,1623,-869,-622,-119,45,275,-123
1721,0,2023-03-01T18:49:54.244399,1583761,241,610,1620,-878,-623,-118,45,275,-123
1722,0,2023-03-01T18:49:54.250910,1583767,241,610,1620,-878,-623,-118,45,275,-123
1723,0,2023-03-01T18:49:54.255645,1583772,241,610,1620,-878,-623,-118,45,275,-123
1724,0,2023-03-01T18:49:54.260683,1583776,241,610,1620,-878,-623,-118,45,275,-123
1725,0,2023-03-01T18:49:54.265862,1583781,242,605,1623,-885,-616,-121,45,275,-123
1726,0,2023-03-01T18:49:54.271161,1583788,242,605,1623,-885,-616,-121,45,275,-123
1727,0,2023-03-01T18:49:54.277209,1583793,242,605,1623,-885,-616,-121,45,275,-123
1728,0,2023-03-01T18:49:54.282546,1583799,242,605,1623,-885,-616,-121,45,275,-123
1729,0,2023-03-01T18:49:54.287604,1583804,244,607,1625,-877,-617,-127,45,275,-123
1730,0,2023-03-01T18:49:54.293599,1583810,244,607,1625,-877,-617,-127,45,275,-123
1731,0,2023-03-01T18:49:54.299244,1583815,244,607,1625,-877,-617,-127,45,275,-123
1732,0,2023-03-01T18:49:54.304109,1583820,244,604,1620,-872,-629,-119,45,275,-123
1733,0,2023-03-01T18:49:54.309296,1583825,244,604,1620,-872,-629,-119,45,275,-123
1734,0,2023-03-01T18:49:54.315073,1583832,244,604,1620,-872,-629,-119,45,275,-123
1735,0,2023-03-01T18:49:54.320950,1583837,244,604,1620,-872,-629,-119,45,275,-123
1736,0,2023-03-01T18:49:54.325872,1583842,245,610,1629,-866,-623,-127,39,265,-117
1737,0,2023-03-01T18:49:54.331929,1583848,245,610,1629,-866,-623,-127,39,265,-117
1738,0,2023-03-01T18:49:54.337636,1583853,245,610,1629,-866,-623,-127,39,265,-117
1739,0,2023-03-01T18:49:54.342901,1583859,250,607,1622,-867,-627,-123,39,265,-117
1740,0,2023-03-01T18:49:54.348478,1583864,250,607,1622,-867,-627,-123,39,265,-117
1741,0,2023-03-01T18:49:54.352844,1583869,250,607,1622,-867,-627,-123,39,265,-117
1742,0,2023-03-01T18:49:54.358123,1583875,250,607,1622,-867,-627,-123,39,265,-117
1743,0,2023-03-01T18:49:54.363094,1583880,248,611,1627,-879,-624,-135,39,265,-117
1744,0,2023-03-01T18:49:54.368062,1583884,248,611,1627,-879,-624,-135,39,265,-117
1745,0,2023-03-01T18:49:54.374228,1583890,248,611,1627,-879,-624,-135,39,265,-117
1746,0,2023-03-01T18:49:54.379994,1583896,248,611,1627,-879,-624,-135,39,265,-117
1747,0,2023-03-01T18:49:54.384913,1583901,245,612,1620,-872,-625,-121,39,265,-117
1748,0,2023-03-01T18:49:54.390844,1583907,245,612,1620,-872,-625,-121,39,265,-117
1749,0,2023-03-01T18:49:54.396750,1583912,245,612,1620,-872,-625,-121,39,265,-117
1750,0,2023-03-01T18:49:54.401421,1583918,245,612,1620,-872,-625,-121,39,265,-117
1751,0,2023-03-01T18:49:54.406175,1583923,245,611,1616,-881,-623,-129,39,265,-117
1752,0,2023-03-01T18:49:54.411977,1583928,245,611,1616,-881,-623,-129,39,265,-117
1753,0,2023-03-01T18:49:54.417706,1583934,245,611,1616,-881,-623,-129,39,265,-117
1754,0,2023-03-01T18:49:54.422875,1583939,245,611,1616,-881,-623,-129,39,265,-117
1755,0,2023-03-01T18:49:54.427626,1583944,245,613,1627,-871,-627,-127,39,265,-117
1756,0,2023-03-01T18:49:54.433667,1583950,245,613,1627,-871,-627,-127,39,265,-117
1757,0,2023-03-01T18:49:54.439050,1583955,245,613,1627,-871,-627,-127,39,265,-117
1758,0,2023-03-01T18:49:54.443991,1583961,246,617,1624,-871,-632,-134,40,260,-108
1759,0,2023-03-01T18:49:54.449643,1583966,246,617,1624,-871,-632,-134,40,260,-108
1760,0,2023-03-01T18:49:54.455255,1583971,246,617,1624,-871,-632,-134,40,260,-108
1761,0,2023-03-01T18:49:54.460945,1583977,246,617,1624,-871,-632,-134,40,260,-108
1762,0,2023-03-01T18:49:54.466506,1583982,249,614,1624,-873,-619,-136,40,260,-108
1763,0,2023-03-01T18:49:54.473106,1583989,249,614,1624,-873,-619,-136,40,260,-108
1764,0,2023-03-01T18:49:54.479300,1583995,249,614,1624,-873,-619,-136,40,260,-108
1765,0,2023-03-01T18:49:54.484198,1584001,247,614,1623,-882,-623,-125,40,260,-108
1766,0,2023-03-01T18:49:54.489887,1584006,247,614,1623,-882,-623,-125,40,260,-108
1767,0,2023-03-01T18:49:54.494473,1584011,247,614,1623,-882,-623,-125,40,260,-108
1768,0,2023-03-01T18:49:54.500062,1584016,247,614,1623,-882,-623,-125,40,260,-108
1769,0,2023-03-01T18:49:54.505026,1584021,248,615,1617,-884,-619,-127,40,260,-108
1770,0,2023-03-01T18:49:54.511825,1584027,248,615,1617,-884,-619,-127,40,260,-108
1771,0,2023-03-01T18:49:54.517536,1584033,248,615,1617,-884,-619,-127,40,260,-108
1772,0,2023-03-01T18:49:54.522386,1584038,248,615,1617,-884,-619,-127,40,260,-108
1773,0,2023-03-01T18:49:54.527453,1584044,248,615,1622,-881,-622,-125,40,260,-108
1774,0,2023-03-01T18:49:54.533711,1584050,248,615,1622,-881,-622,-125,40,260,-108
1775,0,2023-03-01T18:49:54.539537,1584055,248,615,1622,-881,-622,-125,40,260,-108
1776,0,2023-03-01T18:49:54.544613,1584061,251,615,1624,-890,-613,-118,40,260,-108
1777,0,2023-03-01T18:49:54.550187,1584066,251,615,1624,-890,-613,-118,40,260,-108
1778,0,2023-03-01T18:49:54.555778,1584072,251,615,1624,-890,-613,-118,40,260,-108
1779,0,2023-03-01T18:49:54.561379,1584077,251,615,1624,-890,-613,-118,40,260,-108
1780,0,2023-03-01T18:49:54.566842,1584082,251,616,1621,-880,-617,-119,40,260,-108
1781,0,2023-03-01T18:49:54.572417,1584089,251,616,1621,-880,-617,-119,40,260,-108
1782,0,2023-03-01T18:49:54.577734,1584094,251,616,1621,-880,-617,-119,40,260,-108
1783,0,2023-03-01T18:49:54.582674,1584099,251,616,1621,-880,-617,-119,40,260,-108
1784,0,2023-03-01T18:49:54.587795,1584104,251,619,1619,-885,-623,-128,49,267,-117
1785,0,2023-03-01T18:49:54.593669,1584110,251,619,1619,-885,-623,-128,49,267,-117
1786,0,2023-03-01T18:49:54.599411,1584115,251,619,1619,-885,-623,-128,49,267,-117
1787,0,2023-03-01T18:49:54.604063,1584120,253,621,1622,-877,-617,-135,49,267,-117
1788,0,2023-03-01T18:49:54.609753,1584125,253,621,1622,-877,-617,-135,49,267,-117
1789,0,2023-03-01T18:49:54.615094,1584131,253,621,1622,-877,-617,-135,49,267,-117
1790,0,2023-03-01T18:49:54.620838,1584137,253,621,1622,-877,-617,-135,49,267,-117
1791,0,2023-03-01T18:49:54.625722,1584142,253,626,1614,-874,-623,-139,49,267,-117
1792,0,2023-03-01T18:49:54.631068,1584147,253,626,1614,-874,-623,-139,49,267,-117
1793,0,2023-03-01T18:49:54.636294,1584152,253,626,1614,-874,-623,-139,49,267,-117
1794,0,2023-03-01T18:49:54.641511,1584157,253,626,1614,-874,-623,-139,49,267,-117
1795,0,2023-03-01T18:49:54.646349,1584162,252,623,1618,-885,-617,-133,49,267,-117
1796,0,2023-03-01T18:49:54.652388,1584168,252,623,1618,-885,-617,-133,49,267,-117
1797,0,2023-03-01T18:49:54.657514,1584174,252,623,1618,-885,-617,-133,49,267,-117
1798,0,2023-03-01T18:49:54.662294,1584179,252,623,1618,-885,-617,-133,49,267,-117
1799,0,2023-03-01T18:49:54.667363,1584184,248,621,1617,-883,-618,-132,49,267,-117
1800,0,2023-03-01T18:49:54.673188,1584189,248,621,1617,-883,-618,-132,49,267,-117
1801,0,2023-03-01T18:49:54.678776,1584195,248,621,1617,-883,-618,-132,49,267,-117
1802,0,2023-03-01T18:49:54.683475,1584200,257,623,1617,-884,-622,-130,49,267,-117
1803,0,2023-03-01T18:49:54.688590,1584204,257,623,1617,-884,-622,-130,49,267,-117
1804,0,2023-03-01T18:49:54.693457,1584209,257,623,1617,-884,-622,-130,49,267,-117
1805,0,2023-03-01T18:49:54.699110,1584216,257,623,1617,-884,-622,-130,49,267,-117
1806,0,2023-03-01T18:49:54.703931,1584220,255,621,1622,-876,-617,-126,47,259,-117
1807,0,2023-03-01T18:49:54.709382,1584226,255,621,1622,-876,-617,-126,47,259,-117
1808,0,2023-03-01T18:49:54.714281,1584231,255,621,1622,-876,-617,-126,47,259,-117
1809,0,2023-03-01T18:49:54.719968,1584236,255,621,1622,-876,-617,-126,47,259,-117
1810,0,2023-03-01T18:49:54.724568,1584241,258,629,1622,-873,-617,-131,47,259,-117
1811,0,2023-03-01T18:49:54.729810,1584246,258,629,1622,-873,-617,-131,47,259,-117
1812,0,2023-03-01T18:49:54.736186,1584252,258,629,1622,-873,-617,-131,47,259,-117
1813,0,2023-03-01T18:49:54.741768,1584258,258,629,1622,-873,-617,-131,47,259,-117
1814,0,2023-03-01T18:49:54.746605,1584263,255,620,1614,-877,-616,-124,47,259,-117
1815,0,2023-03-01T18:49:54.752452,1584269,255,620,1614,-877,-616,-124,47,259,-117
1816,0,2023-03-01T18:49:54.757889,1584274,255,620,1614,-877,-616,-124,47,259,-117
1817,0,2023-03-01T18:49:54.762664,1584279,255,620,1614,-877,-616,-124,47,259,-117
1818,0,2023-03-01T18:49:54.767639,1584283,260,627,1615,-885,-615,-136,47,259,-117
1819,0,2023-03-01T18:49:54.773332,1584289,260,627,1615,-885,-615,-136,47,259,-117
1820,0,2023-03-01T18:49:54.778943,1584295,260,627,1615,-885,-615,-136,47,259,-117
1821,0,2023-03-01T18:49:54.783866,1584301,253,625,1620,-885,-606,-125,47,259,-117
1822,0,2023-03-01T18:49:54.789241,1584306,253,625,1620,-885,-606,-125,47,259,-117
1823,0,2023-03-01T18:49:54.794271,1584311,253,625,1620,-885,-606,-125,47,259,-117
1824,0,2023-03-01T18:49:54.799574,1584316,253,625,1620,-885,-606,-125,47,259,-117
1825,0,2023-03-01T18:49:54.804469,1584321,256,627,1617,-889,-616,-136,47,259,-117
1826,0,2023-03-01T18:49:54.810070,1584326,256,627,1617,-889,-616,-136,47,259,-117
1827,0,2023-03-01T18:49:54.815703,1584331,256,627,1617,-889,-616,-136,47,259,-117
1828,0,2023-03-01T18:49:54.821184,1584337,256,627,1617,-889,-616,-136,47,259,-117
1829,0,2023-03-01T18:49:54.826151,1584343,253,626,1620,-880,-619,-117,47,259,-117
1830,0,2023-03-01T18:49:54.832429,1584349,253,626,1620,-880,-619,-117,47,259,-117
1831,0,2023-03-01T18:49:54.838159,1584354,253,626,1620,-880,-619,-117,47,259,-117
1832,0,2023-03-01T18:49:54.843321,1584360,253,626,1620,-880,-619,-117,47,259,-117
1833,0,2023-03-01T18:49:54.847916,1584364,256,629,1626,-887,-606,-123,43,269,-121
1834,0,2023-03-01T18:49:54.853659,1584370,256,629,1626,-887,-606,-123,43,269,-121
1835,0,2023-03-01T18:49:54.858856,1584375,256,629,1626,-887,-606,-123,43,269,-121
1836,0,2023-03-01T18:49:54.863563,1584379,256,629,1626,-887,-606,-123,43,269,-121
1837,0,2023-03-01T18:49:54.868444,1584385,258,628,1618,-868,-608,-124,43,269,-121
1838,0,2023-03-01T18:49:54.873732,1584390,258,628,1618,-868,-608,-124,43,269,-121
1839,0,2023-03-01T18:49:54.879223,1584396,258,628,1618,-868,-608,-124,43,269,-121
1840,0,2023-03-01T18:49:54.884152,1584400,259,630,1617,-882,-612,-117,43,269,-121
1841,0,2023-03-01T18:49:54.889704,1584406,259,630,1617,-882,-612,-117,43,269,-121
1842,0,2023-03-01T18:49:54.895370,1584411,259,630,1617,-882,-612,-117,43,269,-121
1843,0,2023-03-01T18:49:54.900465,1584417,259,630,1617,-882,-612,-117,43,269,-121
1844,0,2023-03-01T18:49:54.905130,1584421,258,635,1618,-883,-613,-137,43,269,-121
1845,0,2023-03-01T18:49:54.912024,1584429,258,635,1618,-883,-613,-137,43,269,-121
1846,0,2023-03-01T18:49:54.917651,1584434,258,635,1618,-883,-613,-137,43,269,-121
1847,0,2023-03-01T18:49:54.922863,1584439,258,635,1618,-883,-613,-137,43,269,-121
1848,0,2023-03-01T18:49:54.927812,1584444,258,630,1617,-875,-608,-117,43,269,-121
1849,0,2023-03-01T18:49:54.933009,1584449,258,630,1617,-875,-608,-117,43,269,-121
1850,0,2023-03-01T18:49:54.939183,1584454,258,630,1617,-875,-608,-117,43,269,-121
1851,0,2023-03-01T18:49:54.943963,1584460,260,631,1612,-880,-608,-115,43,269,-121
1852,0,2023-03-01T18:49:54.949303,1584465,260,631,1612,-880,-608,-115,43,269,-121
1853,0,2023-03-01T18:49:54.954079,1584471,260,631,1612,-880,-608,-115,43,269,-121
1854,0,2023-03-01T18:49:54.959249,1584476,260,631,1612,-880,-608,-115,43,269,-121
1855,0,2023-03-01T18:49:54.963614,1584480,258,631,1621,-876,-617,-111,40,264,-120
1856,0,2023-03-01T18:49:54.969282,1584486,258,631,1621,-876,-617,-111,40,264,-120
1857,0,2023-03-01T18:49:54.974438,1584490,258,631,1621,-876,-617,-111,40,264,-120
1858,0,2023-03-01T18:49:54.979914,1584496,258,631,1621,-876,-617,-111,40,264,-120
1859,0,2023-03-01T18:49:54.985134,1584501,260,630,1615,-893,-612,-123,40,264,-120
1860,0,2023-03-01T18:49:54.990764,1584507,260,630,1615,-893,-612,-123,40,264,-120
1861,0,2023-03-01T18:49:54.996892,1584513,260,630,1615,-893,-612,-123,40,264,-120
1862,0,2023-03-01T18:49:55.002150,1584518,260,630,1615,-893,-612,-123,40,264,-120
1863,0,2023-03-01T18:49:55.007065,1584523,264,636,1614,-877,-618,-112,40,264,-120
1864,0,2023-03-01T18:49:55.013020,1584529,264,636,1614,-877,-618,-112,40,264,-120
1865,0,2023-03-01T18:49:55.018617,1584535,264,636,1614,-877,-618,-112,40,264,-120
1866,0,2023-03-01T18:49:55.023647,1584540,264,636,1614,-877,-618,-112,40,264,-120
1867,0,2023-03-01T18:49:55.029113,1584544,261,634,1621,-886,-609,-108,40,264,-120
1868,0,2023-03-01T18:49:55.036568,1584552,261,634,1621,-886,-609,-108,40,264,-120
1869,0,2023-03-01T18:49:55.042227,1584559,261,634,1621,-886,-609,-108,40,264,-120
1870,0,2023-03-01T18:49:55.048298,1584564,263,639,1619,-879,-607,-116,40,264,-120
1871,0,2023-03-01T18:49:55.055248,1584571,263,639,1619,-879,-607,-116,40,264,-120
1872,0,2023-03-01T18:49:55.061171,1584577,263,639,1619,-879,-607,-116,40,264,-120
1873,0,2023-03-01T18:49:55.066097,1584582,261,634,1617,-874,-619,-121,40,264,-120
1874,0,2023-03-01T18:49:55.071796,1584588,261,634,1617,-874,-619,-121,40,264,-120
1875,0,2023-03-01T18:49:55.077669,1584593,261,634,1617,-874,-619,-121,40,264,-120
1876,0,2023-03-01T18:49:55.082725,1584599,261,634,1617,-874,-619,-121,40,264,-120
1877,0,2023-03-01T18:49:55.087710,1584604,263,638,1609,-877,-615,-121,41,275,-111
1878,0,2023-03-01T18:49:55.093076,1584609,263,638,1609,-877,-615,-121,41,275,-111
1879,0,2023-03-01T18:49:55.098690,1584615,263,638,1609,-877,-615,-121,41,275,-111
1880,0,2023-03-01T18:49:55.103683,1584620,263,638,1609,-877,-615,-121,41,275,-111
1881,0,2023-03-01T18:49:55.108867,1584625,262,636,1621,-874,-623,-121,41,275,-111
1882,0,2023-03-01T18:49:55.115720,1584631,262,636,1621,-874,-623,-121,41,275,-111
1883,0,2023-03-01T18:49:55.121608,1584637,262,636,1621,-874,-623,-121,41,275,-111
1884,0,2023-03-01T18:49:55.126274,1584643,265,636,1613,-876,-618,-121,41,275,-111
1885,0,2023-03-01T18:49:55.132553,1584649,265,636,1613,-876,-618,-121,41,275,-111
1886,0,2023-03-01T18:49:55.137820,1584654,265,636,1613,-876,-618,-121,41,275,-111
1887,0,2023-03-01T18:49:55.142776,1584659,265,636,1613,-876,-618,-121,41,275,-111
1888,0,2023-03-01T18:49:55.147793,1584664,263,639,1613,-862,-620,-126,41,275,-111
1889,0,2023-03-01T18:49:55.153165,1584669,263,639,1613,-862,-620,-126,41,275,-111
1890,0,2023-03-01T18:49:55.158077,1584674,263,639,1613,-862,-620,-126,41,275,-111
1891,0,2023-03-01T18:49:55.162975,1584679,263,639,1613,-862,-620,-126,41,275,-111
1892,0,2023-03-01T18:49:55.167974,1584685,267,640,1615,-871,-618,-112,41,275,-111
1893,0,2023-03-01T18:49:55.174417,1584691,267,640,1615,-871,-618,-112,41,275,-111
1894,0,2023-03-01T18:49:55.179775,1584696,267,640,1615,-871,-618,-112,41,275,-111
1895,0,2023-03-01T18:49:55.184636,1584701,267,644,1613,-875,-623,-112,41,275,-111
1896,0,2023-03-01T18:49:55.190059,1584706,267,644,1613,-875,-623,-112,41,275,-111
1897,0,2023-03-01T18:49:55.195829,1584712,267,644,1613,-875,-623,-112,41,275,-111
1898,0,2023-03-01T18:49:55.201243,1584717,267,644,1613,-875,-623,-112,41,275,-111
1899,0,2023-03-01T18:49:55.206082,1584722,267,643,1614,-872,-631,-118,41,275,-111
1900,0,2023-03-01T18:49:55.212474,1584729,267,643,1614,-872,-631,-118,41,275,-111
1901,0,2023-03-01T18:49:55.217122,1584734,267,643,1614,-872,-631,-118,41,275,-111
1902,0,2023-03-01T18:49:55.222913,1584739,267,643,1614,-872,-631,-118,41,275,-111
1903,0,2023-03-01T18:49:55.228331,1584744,266,645,1620,-880,-621,-116,37,261,-121
1904,0,2023-03-01T18:49:55.235033,1584750,266,645,1620,-880,-621,-116,37,261,-121
1905,0,2023-03-01T18:49:55.240470,1584756,266,645,1620,-880,-621,-116,37,261,-121
1906,0,2023-03-01T18:49:55.245444,1584761,265,644,1620,-878,-623,-120,37,261,-121
1907,0,2023-03-01T18:49:55.251715,1584768,265,644,1620,-878,-623,-120,37,261,-121
1908,0,2023-03-01T18:49:55.257265,1584774,265,644,1620,-878,-623,-120,37,261,-121
1909,0,2023-03-01T18:49:55.262202,1584779,265,644,1620,-878,-623,-120,37,261,-121
1910,0,2023-03-01T18:49:55.267462,1584783,265,644,1614,-874,-618,-107,37,261,-121
1911,0,2023-03-01T18:49:55.273821,1584790,265,644,1614,-874,-618,-107,37,261,-121
1912,0,2023-03-01T18:49:55.279451,1584795,265,644,1614,-874,-618,-107,37,261,-121
1913,0,2023-03-01T18:49:55.284238,1584800,267,644,1614,-867,-616,-109,37,261,-121
1914,0,2023-03-01T18:49:55.289693,1584805,267,644,1614,-867,-616,-109,37,261,-121
1915,0,2023-03-01T18:49:55.294576,1584811,267,644,1614,-867,-616,-109,37,261,-121
1916,0,2023-03-01T18:49:55.300324,1584817,267,644,1614,-867,-616,-109,37,261,-121
1917,0,2023-03-01T18:49:55.305309,1584822,270,648,1618,-869,-624,-112,37,261,-121
1918,0,2023-03-01T18:49:55.310853,1584827,270,648,1618,-869,-624,-112,37,261,-121
1919,0,2023-03-01T18:49:55.316376,1584832,270,648,1618,-869,-624,-112,37,261,-121
1920,0,2023-03-01T18:49:55.321263,1584837,270,648,1618,-869,-624,-112,37,261,-121
1921,0,2023-03-01T18:49:55.325963,1584842,268,648,1611,-880,-618,-113,37,261,-121
1922,0,2023-03-01T18:49:55.332207,1584848,268,648,1611,-880,-618,-113,37,261,-121
1923,0,2023-03-01T18:49:55.338049,1584854,268,648,1611,-880,-618,-113,37,261,-121
1924,0,2023-03-01T18:49:55.343141,1584860,268,648,1611,-880,-618,-113,37,261,-121
1925,0,2023-03-01T18:49:55.348032,1584865,273,651,1608,-883,-611,-120,43,259,-131
1926,0,2023-03-01T18:49:55.354610,1584871,273,651,1608,-883,-611,-120,43,259,-131
1927,0,2023-03-01T18:49:55.359919,1584876,273,651,1608,-883,-611,-120,43,259,-131
1928,0,2023-03-01T18:49:55.365256,1584881,271,649,1618,-879,-614,-107,43,259,-131
1929,0,2023-03-01T18:49:55.370606,1584886,271,649,1618,-879,-614,-107,43,259,-131
1930,0,2023-03-01T18:49:55.375075,1584891,271,649,1618,-879,-614,-107,43,259,-131
1931,0,2023-03-01T18:49:55.380349,1584897,271,649,1618,-879,-614,-107,43,259,-131
1932,0,2023-03-01T18:49:55.385312,1584902,270,651,1612,-872,-617,-118,43,259,-131
1933,0,2023-03-01T18:49:55.390662,1584907,270,651,1612,-872,-617,-118,43,259,-131
1934,0,2023-03-01T18:49:55.395453,1584912,270,651,1612,-872,-617,-118,43,259,-131
1935,0,2023-03-01T18:49:55.400993,1584917,270,651,1612,-872,-617,-118,43,259,-131
1936,0,2023-03-01T18:49:55.405679,1584922,270,647,1609,-876,-611,-110,43,259,-131
1937,0,2023-03-01T18:49:55.411417,1584928,270,647,1609,-876,-611,-110,43,259,-131
1938,0,2023-03-01T18:49:55.416647,1584932,270,647,1609,-876,-611,-110,43,259,-131
1939,0,2023-03-01T18:49:55.421354,1584937,270,647,1609,-876,-611,-110,43,259,-131
1940,0,2023-03-01T18:49:55.426161,1584943,272,654,1611,-876,-615,-116,43,259,-131
1941,0,2023-03-01T18:49:55.432434,1584949,272,654,1611,-876,-615,-116,43,259,-131
1942,0,2023-03-01T18:49:55.437515,1584954,272,654,1611,-876,-615,-116,43,259,-131
1943,0,2023-03-01T18:49:55.442349,1584959,272,654,1611,-876,-615,-116,43,259,-131
1944,0,2023-03-01T18:49:55.447378,1584963,272,656,1609,-874,-618,-99,43,259,-131
1945,0,2023-03-01T18:49:55.454386,1584970,272,656,1609,-874,-618,-99,43,259,-131
1946,0,2023-03-01T18:49:55.460073,1584976,272,656,1609,-874,-618,-99,43,259,-131
1947,0,2023-03-01T18:49:55.465262,1584982,272,657,1609,-876,-607,-115,43,259,-131
1948,0,2023-03-01T18:49:55.470889,1584988,272,657,1609,-876,-607,-115,43,259,-131
1949,0,2023-03-01T18:49:55.476399,1584993,272,657,1609,-876,-607,-115,43,259,-131
1950,0,2023-03-01T18:49:55.481570,1584998,272,657,1609,-876,-607,-115,43,259,-131
1951,0,2023-03-01T18:49:55.486289,1585003,272,655,1614,-875,-616,-109,46,266,-116
1952,0,2023-03-01T18:49:55.492231,1585008,272,655,1614,-875,-616,-109,46,266,-116
1953,0,2023-03-01T18:49:55.497057,1585013,272,655,1614,-875,-616,-109,46,266,-116
1954,0,2023-03-01T18:49:55.501816,1585018,272,655,1614,-875,-616,-109,46,266,-116
1955,0,2023-03-01T18:49:55.506377,1585022,277,654,1615,-871,-612,-111,46,266,-116
1956,0,2023-03-01T18:49:55.512616,1585029,277,654,1615,-871,-612,-111,46,266,-116
1957,0,2023-03-01T18:49:55.518229,1585035,277,654,1615,-871,-612,-111,46,266,-116
1958,0,2023-03-01T18:49:55.522976,1585039,277,654,1615,-871,-612,-111,46,266,-116
1959,0,2023-03-01T18:49:55.527754,1585044,273,655,1612,-874,-615,-114,46,266,-116
1960,0,2023-03-01T18:49:55.533807,1585050,273,655,1612,-874,-615,-114,46,266,-116
1961,0,2023-03-01T18:49:55.540205,1585056,273,655,1612,-874,-615,-114,46,266,-116
1962,0,2023-03-01T18:49:55.545533,1585061,272,654,1605,-877,-618,-104,46,266,-116
1963,0,2023-03-01T18:49:55.551396,1585068,272,654,1605,-877,-618,-104,46,266,-116
1964,0,2023-03-01T18:49:55.557162,1585074,272,654,1605,-877,-618,-104,46,266,-116
1965,0,2023-03-01T18:49:55.562183,1585079,272,654,1605,-877,-618,-104,46,266,-116
1966,0,2023-03-01T18:49:55.567774,1585084,279,657,1608,-877,-609,-111,46,266,-116
1967,0,2023-03-01T18:49:55.573906,1585090,279,657,1608,-877,-609,-111,46,266,-116
1968,0,2023-03-01T18:49:55.579851,1585095,279,657,1608,-877,-609,-111,46,266,-116
1969,0,2023-03-01T18:49:55.585056,1585101,276,661,1609,-884,-612,-112,46,266,-116
1970,0,2023-03-01T18:49:55.590571,1585106,276,661,1609,-884,-612,-112,46,266,-116
1971,0,2023-03-01T18:49:55.596470,1585113,276,661,1609,-884,-612,-112,46,266,-116
1972,0,2023-03-01T18:49:55.602187,1585119,276,661,1609,-884,-612,-112,46,266,-116
1973,0,2023-03-01T18:49:55.607039,1585123,276,662,1614,-891,-606,-117,38,264,-120
1974,0,2023-03-01T18:49:55.612901,1585129,276,662,1614,-891,-606,-117,38,264,-120
1975,0,2023-03-01T18:49:55.618298,1585135,276,662,1614,-891,-606,-117,38,264,-120
1976,0,2023-03-01T18:49:55.623435,1585139,276,662,1614,-891,-606,-117,38,264,-120
1977,0,2023-03-01T18:49:55.628771,1585144,272,662,1612,-889,-605,-113,38,264,-120
1978,0,2023-03-01T18:49:55.635068,1585152,272,662,1612,-889,-605,-113,38,264,-120
1979,0,2023-03-01T18:49:55.640728,1585157,272,662,1612,-889,-605,-113,38,264,-120
1980,0,2023-03-01T18:49:55.645513,1585162,279,660,1610,-892,-599,-118,38,264,-120
1981,0,2023-03-01T18:49:55.651395,1585168,279,660,1610,-892,-599,-118,38,264,-120
1982,0,2023-03-01T18:49:55.656690,1585173,279,660,1610,-892,-599,-118,38,264,-120
1983,0,2023-03-01T18:49:55.661357,1585178,279,660,1610,-892,-599,-118,38,264,-120
1984,0,2023-03-01T18:49:55.666347,1585182,274,658,1611,-885,-603,-106,38,264,-120
1985,0,2023-03-01T18:49:55.673003,1585189,274,658,1611,-885,-603,-106,38,264,-120
1986,0,2023-03-01T18:49:55.679944,1585197,274,658,1611,-885,-603,-106,38,264,-120
1987,0,2023-03-01T18:49:55.684868,1585201,282,658,1612,-892,-605,-105,38,264,-120
1988,0,2023-03-01T18:49:55.690172,1585207,282,658,1612,-892,-605,-105,38,264,-120
1989,0,2023-03-01T18:49:55.695523,1585212,282,658,1612,-892,-605,-105,38,264,-120
1990,0,2023-03-01T18:49:55.700930,1585217,282,658,1612,-892,-605,-105,38,264,-120
1991,0,2023-03-01T18:49:55.706404,1585222,283,664,1606,-886,-612,-103,38,264,-120
1992,0,2023-03-01T18:49:55.711448,1585227,283,664,1606,-886,-612,-103,38,264,-120
1993,0,2023-03-01T18:49:55.716347,1585232,283,664,1606,-886,-612,-103,38,264,-120
1994,0,2023-03-01T18:49:55.721130,1585238,283,664,1606,-886,-612,-103,38,264,-120
1995,0,2023-03-01T18:49:55.726089,1585243,280,662,1607,-883,-601,-104,38,264,-120
1996,0,2023-03-01T18:49:55.732557,1585249,280,662,1607,-883,-601,-104,38,264,-120
1997,0,2023-03-01T18:49:55.738486,1585255,280,662,1607,-883,-601,-104,38,264,-120
1998,0,2023-03-01T18:49:55.743195,1585260,280,662,1607,-883,-601,-104,38,264,-120
1999,0,2023-03-01T18:49:55.748169,1585264,282,666,1610,-887,-601,-100,50,266,-122
2000,0,2023-03-01T18:49:55.754613,1585270,282,666,1610,-887,-601,-100,50,266,-122
2001,0,2023-03-01T18:49:55.760010,1585276,282,666,1610,-887,-601,-100,50,266,-122
2002,0,2023-03-01T18:49:55.765151,1585282,279,662,1603,-881,-606,-104,50,266,-122
2003,0,2023-03-01T18:49:55.770363,1585287,279,662,1603,-881,-606,-104,50,266,-122
2004,0,2023-03-01T18:49:55.775089,1585292,279,662,1603,-881,-606,-104,50,266,-122
2005,0,2023-03-01T18:49:55.780480,1585297,279,662,1603,-881,-606,-104,50,266,-122
2006,0,2023-03-01T18:49:55.785666,1585302,282,667,1610,-887,-597,-113,50,266,-122
2007,0,2023-03-01T18:49:55.791815,1585308,282,667,1610,-887,-597,-113,50,266,-122
2008,0,2023-03-01T18:49:55.797957,1585314,282,667,1610,-887,-597,-113,50,266,-122
2009,0,2023-03-01T18:49:55.803193,1585319,282,667,1610,-887,-597,-113,50,266,-122
2010,0,2023-03-01T18:49:55.808083,1585325,277,662,1607,-890,-601,-114,50,266,-122
2011,0,2023-03-01T18:49:55.814553,1585331,277,662,1607,-890,-601,-114,50,266,-122
2012,0,2023-03-01T18:49:55.821548,1585337,277,662,1607,-890,-601,-114,50,266,-122
2013,0,2023-03-01T18:49:55.827233,1585343,277,662,1607,-890,-601,-114,50,266,-122
2014,0,2023-03-01T18:49:55.831777,1585348,277,662,1607,-890,-601,-114,50,266,-122
2015,0,2023-03-01T18:49:55.837346,1585353,277,662,1607,-890,-601,-114,50,266,-122
2016,0,2023-03-01T18:49:55.842229,1585358,277,662,1607,-890,-601,-114,50,266,-122
2017,0,2023-03-01T18:49:55.847057,1585363,283,667,1610,-876,-600,-105,50,266,-122
2018,0,2023-03-01T18:49:55.853157,1585370,283,667,1610,-876,-600,-105,50,266,-122
2019,0,2023-03-01T18:49:55.858444,1585375,283,667,1610,-876,-600,-105,50,266,-122
2020,0,2023-03-01T18:49:55.863220,1585380,283,667,1610,-876,-600,-105,50,266,-122
2021,0,2023-03-01T18:49:55.868598,1585385,286,671,1612,-878,-604,-104,38,264,-122
2022,0,2023-03-01T18:49:55.874399,1585390,286,671,1612,-878,-604,-104,38,264,-122
2023,0,2023-03-01T18:49:55.879686,1585396,286,671,1612,-878,-604,-104,38,264,-122
2024,0,2023-03-01T18:49:55.884129,1585400,286,671,1612,-878,-604,-104,38,264,-122
2025,0,2023-03-01T18:49:55.888913,1585405,281,672,1607,-887,-601,-93,38,264,-122
2026,0,2023-03-01T18:49:55.894539,1585411,281,672,1607,-887,-601,-93,38,264,-122
2027,0,2023-03-01T18:49:55.901162,1585417,281,672,1607,-887,-601,-93,38,264,-122
2028,0,2023-03-01T18:49:55.905826,1585422,284,672,1606,-883,-595,-106,38,264,-122
2029,0,2023-03-01T18:49:55.912159,1585428,284,672,1606,-883,-595,-106,38,264,-122
2030,0,2023-03-01T18:49:55.917559,1585434,284,672,1606,-883,-595,-106,38,264,-122
2031,0,2023-03-01T18:49:55.922295,1585438,284,672,1606,-883,-595,-106,38,264,-122
2032,0,2023-03-01T18:49:55.927105,1585443,284,670,1606,-890,-603,-113,38,264,-122
2033,0,2023-03-01T18:49:55.932767,1585449,284,670,1606,-890,-603,-113,38,264,-122
2034,0,2023-03-01T18:49:55.938629,1585455,284,670,1606,-890,-603,-113,38,264,-122
2035,0,2023-03-01T18:49:55.943204,1585460,284,670,1606,-890,-603,-113,38,264,-122
2036,0,2023-03-01T18:49:55.948183,1585464,283,672,1606,-896,-603,-119,38,264,-122
2037,0,2023-03-01T18:49:55.953750,1585470,283,672,1606,-896,-603,-119,38,264,-122
2038,0,2023-03-01T18:49:55.959365,1585475,283,672,1606,-896,-603,-119,38,264,-122
2039,0,2023-03-01T18:49:55.964377,1585480,283,672,1606,-896,-603,-119,38,264,-122
2040,0,2023-03-01T18:49:55.969773,1585486,287,673,1611,-893,-601,-117,38,264,-122
2041,0,2023-03-01T18:49:55.975425,1585491,287,673,1611,-893,-601,-117,38,264,-122
2042,0,2023-03-01T18:49:55.980671,1585497,287,673,1611,-893,-601,-117,38,264,-122
2043,0,2023-03-01T18:49:55.985677,1585502,284,671,1606,-877,-602,-108,40,272,-122
2044,0,2023-03-01T18:49:55.991114,1585508,284,671,1606,-877,-602,-108,40,272,-122
2045,0,2023-03-01T18:49:55.997196,1585513,284,671,1606,-877,-602,-108,40,272,-122
2046,0,2023-03-01T18:49:56.002194,1585518,284,671,1606,-877,-602,-108,40,272,-122
2047,0,2023-03-01T18:49:56.008099,1585524,285,672,1603,-882,-608,-109,40,272,-122
2048,0,2023-03-01T18:49:56.014158,1585530,285,672,1603,-882,-608,-109,40,272,-122
2049,0,2023-03-01T18:49:56.019585,1585536,285,672,1603,-882,-608,-109,40,272,-122
2050,0,2023-03-01T18:49:56.024564,1585541,285,672,1603,-882,-608,-109,40,272,-122
2051,0,2023-03-01T18:49:56.029246,1585546,287,672,1609,-881,-601,-102,40,272,-122
2052,0,2023-03-01T18:49:56.035397,1585551,287,672,1609,-881,-601,-102,40,272,-122
2053,0,2023-03-01T18:49:56.039892,1585556,287,672,1609,-881,-601,-102,40,272,-122
2054,0,2023-03-01T18:49:56.044840,1585561,287,672,1609,-881,-601,-102,40,272,-122
2055,0,2023-03-01T18:49:56.050095,1585566,287,675,1606,-881,-605,-115,40,272,-122
2056,0,2023-03-01T18:49:56.058095,1585574,287,675,1606,-881,-605,-115,40,272,-122
2057,0,2023-03-01T18:49:56.063570,1585580,287,675,1606,-881,-605,-115,40,272,-122
2058,0,2023-03-01T18:49:56.068563,1585585,283,676,1605,-882,-597,-108,40,272,-122
2059,0,2023-03-01T18:49:56.074818,1585591,283,676,1605,-882,-597,-108,40,272,-122
2060,0,2023-03-01T18:49:56.080316,1585597,283,676,1605,-882,-597,-108,40,272,-122
2061,0,2023-03-01T18:49:56.085170,1585601,287,678,1601,-889,-602,-118,40,272,-122
2062,0,2023-03-01T18:49:56.090771,1585607,287,678,1601,-889,-602,-118,40,272,-122
2063,0,2023-03-01T18:49:56.096034,1585612,287,678,1601,-889,-602,-118,40,272,-122
2064,0,2023-03-01T18:49:56.101155,1585617,287,678,1601,-889,-602,-118,40,272,-122
2065,0,2023-03-01T18:49:56.106284,1585623,283,674,1604,-879,-608,-111,40,272,-122
2066,0,2023-03-01T18:49:56.111814,1585628,283,674,1604,-879,-608,-111,40,272,-122
2067,0,2023-03-01T18:49:56.118897,1585635,283,674,1604,-879,-608,-111,40,272,-122
2068,0,2023-03-01T18:49:56.123999,1585640,283,674,1604,-879,-608,-111,40,272,-122
2069,0,2023-03-01T18:49:56.129003,1585645,290,678,1603,-887,-596,-115,42,260,-116
2070,0,2023-03-01T18:49:56.135472,1585651,290,678,1603,-887,-596,-115,42,260,-116
2071,0,2023-03-01T18:49:56.141133,1585657,290,678,1603,-887,-596,-115,42,260,-116
2072,0,2023-03-01T18:49:56.145820,1585662,289,677,1605,-874,-600,-106,42,260,-116
2073,0,2023-03-01T18:49:56.151798,1585668,289,677,1605,-874,-600,-106,42,260,-116
2074,0,2023-03-01T18:49:56.157561,1585674,289,677,1605,-874,-600,-106,42,260,-116
2075,0,2023-03-01T18:49:56.162534,1585679,289,677,1605,-874,-600,-106,42,260,-116
2076,0,2023-03-01T18:49:56.167926,1585684,288,678,1607,-881,-603,-103,42,260,-116
2077,0,2023-03-01T18:49:56.174034,1585690,288,678,1607,-881,-603,-103,42,260,-116
2078,0,2023-03-01T18:49:56.179222,1585695,288,678,1607,-881,-603,-103,42,260,-116
2079,0,2023-03-01T18:49:56.184148,1585700,288,678,1607,-881,-603,-103,42,260,-116
2080,0,2023-03-01T18:49:56.189249,1585705,292,681,1601,-876,-599,-103,42,260,-116
2081,0,2023-03-01T18:49:56.194022,1585710,292,681,1601,-876,-599,-103,42,260,-116
2082,0,2023-03-01T18:49:56.199712,1585716,292,681,1601,-876,-599,-103,42,260,-116
2083,0,2023-03-01T18:49:56.204576,1585721,292,681,1601,-876,-599,-103,42,260,-116
2084,0,2023-03-01T18:49:56.209305,1585726,289,681,1600,-884,-600,-94,42,260,-116
2085,0,2023-03-01T18:49:56.216095,1585732,289,681,1600,-884,-600,-94,42,260,-116
2086,0,2023-03-01T18:49:56.221682,1585738,289,681,1600,-884,-600,-94,42,260,-116
2087,0,2023-03-01T18:49:56.226615,1585742,293,682,1606,-884,-595,-98,42,260,-116
2088,0,2023-03-01T18:49:56.232459,1585748,293,682,1606,-884,-595,-98,42,260,-116
2089,0,2023-03-01T18:49:56.237801,1585754,293,682,1606,-884,-595,-98,42,260,-116
2090,0,2023-03-01T18:49:56.242467,1585759,293,682,1606,-884,-595,-98,42,260,-116
2091,0,2023-03-01T18:49:56.247356,1585764,292,684,1604,-886,-598,-103,42,258,-124
2092,0,2023-03-01T18:49:56.253833,1585770,292,684,1604,-886,-598,-103,42,258,-124
2093,0,2023-03-01T18:49:56.259569,1585776,292,684,1604,-886,-598,-103,42,258,-124
2094,0,2023-03-01T18:49:56.264240,1585780,292,684,1604,-886,-598,-103,42,258,-124
2095,0,2023-03-01T18:49:56.268821,1585785,293,687,1603,-888,-591,-104,42,258,-124
2096,0,2023-03-01T18:49:56.274228,1585790,293,687,1603,-888,-591,-104,42,258,-124
2097,0,2023-03-01T18:49:56.280064,1585796,293,687,1603,-888,-591,-104,42,258,-124
2098,0,2023-03-01T18:49:56.285220,1585802,293,687,1603,-888,-591,-104,42,258,-124
2099,0,2023-03-01T18:49:56.290090,1585806,287,682,1605,-874,-592,-100,42,258,-124
2100,0,2023-03-01T18:49:56.296178,1585813,287,682,1605,-874,-592,-100,42,258,-124
2101,0,2023-03-01T18:49:56.301910,1585818,287,682,1605,-874,-592,-100,42,258,-124
2102,0,2023-03-01T18:49:56.307099,1585823,291,685,1602,-884,-592,-105,42,258,-124
2103,0,2023-03-01T18:49:56.313378,1585829,291,685,1602,-884,-592,-105,42,258,-124
2104,0,2023-03-01T18:49:56.319062,1585836,291,685,1602,-884,-592,-105,42,258,-124
2105,0,2023-03-01T18:49:56.323943,1585840,291,685,1602,-884,-592,-105,42,258,-124
2106,0,2023-03-01T18:49:56.328845,1585845,290,681,1604,-871,-597,-105,42,258,-124
2107,0,2023-03-01T18:49:56.334929,1585851,290,681,1604,-871,-597,-105,42,258,-124
2108,0,2023-03-01T18:49:56.340796,1585857,290,681,1604,-871,-597,-105,42,258,-124
2109,0,2023-03-01T18:49:56.345517,1585862,296,686,1602,-886,-601,-107,42,258,-124
2110,0,2023-03-01T18:49:56.351321,1585867,296,686,1602,-886,-601,-107,42,258,-124
2111,0,2023-03-01T18:49:56.356342,1585872,296,686,1602,-886,-601,-107,42,258,-124
2112,0,2023-03-01T18:49:56.362274,1585879,296,686,1602,-886,-601,-107,42,258,-124
2113,0,2023-03-01T18:49:56.368019,1585884,289,685,1602,-886,-596,-96,42,258,-124
2114,0,2023-03-01T18:49:56.374125,1585890,289,685,1602,-886,-596,-96,42,258,-124
2115,0,2023-03-01T18:49:56.379742,1585896,289,685,1602,-886,-596,-96,42,258,-124
2116,0,2023-03-01T18:49:56.385056,1585901,289,685,1602,-886,-596,-96,42,258,-124
2117,0,2023-03-01T18:49:56.389864,1585906,290,685,1605,-883,-604,-106,40,266,-114
2118,0,2023-03-01T18:49:56.396221,1585912,290,685,1605,-883,-604,-106,40,266,-114
2119,0,2023-03-01T18:49:56.402362,1585918,290,685,1605,-883,-604,-106,40,266,-114
2120,0,2023-03-01T18:49:56.407236,1585924,295,688,1604,-887,-607,-104,40,266,-114
2121,0,2023-03-01T18:49:56.413020,1585929,295,688,1604,-887,-607,-104,40,266,-114
2122,0,2023-03-01T18:49:56.418587,1585935,295,688,1604,-887,-607,-104,40,266,-114
2123,0,2023-03-01T18:49:56.423435,1585940,295,688,1604,-887,-607,-104,40,266,-114
2124,0,2023-03-01T18:49:56.428275,1585944,295,688,1605,-886,-608,-100,40,266,-114
2125,0,2023-03-01T18:49:56.434348,1585950,295,688,1605,-886,-608,-100,40,266,-114
2126,0,2023-03-01T18:49:56.440036,1585956,295,688,1605,-886,-608,-100,40,266,-114
2127,0,2023-03-01T18:49:56.445248,1585961,295,688,1605,-886,-608,-100,40,266,-114
2128,0,2023-03-01T18:49:56.450327,1585967,297,694,1604,-885,-592,-105,40,266,-114
2129,0,2023-03-01T18:49:56.455802,1585972,297,694,1604,-885,-592,-105,40,266,-114
2130,0,2023-03-01T18:49:56.461332,1585978,297,694,1604,-885,-592,-105,40,266,-114
2131,0,2023-03-01T18:49:56.466602,1585982,293,686,1604,-878,-603,-103,40,266,-114
2132,0,2023-03-01T18:49:56.472093,1585988,293,686,1604,-878,-603,-103,40,266,-114
2133,0,2023-03-01T18:49:56.478419,1585994,293,686,1604,-878,-603,-103,40,266,-114
2134,0,2023-03-01T18:49:56.483181,1585999,293,686,1604,-878,-603,-103,40,266,-114
2135,0,2023-03-01T18:49:56.488433,1586004,296,691,1592,-887,-606,-107,40,266,-114
2136,0,2023-03-01T18:49:56.493735,1586011,296,691,1592,-887,-606,-107,40,266,-114
2137,0,2023-03-01T18:49:56.498839,1586015,296,691,1592,-887,-606,-107,40,266,-114
2138,0,2023-03-01T18:49:56.503613,1586020,296,691,1592,-887,-606,-107,40,266,-114
2139,0,2023-03-01T18:49:56.508620,1586025,294,690,1603,-880,-610,-108,30,262,-120
2140,0,2023-03-01T18:49:56.514696,1586031,294,690,1603,-880,-610,-108,30,262,-120
2141,0,2023-03-01T18:49:56.520107,1586036,294,690,1603,-880,-610,-108,30,262,-120
2142,0,2023-03-01T18:49:56.525402,1586041,294,690,1603,-880,-610,-108,30,262,-120
2143,0,2023-03-01T18:49:56.530583,1586046,295,693,1600,-884,-600,-109,30,262,-120
2144,0,2023-03-01T18:49:56.537279,1586054,295,693,1600,-884,-600,-109,30,262,-120
2145,0,2023-03-01T18:49:56.542578,1586059,295,693,1600,-884,-600,-109,30,262,-120
2146,0,2023-03-01T18:49:56.547648,1586064,296,688,1601,-882,-592,-102,30,262,-120
2147,0,2023-03-01T18:49:56.554242,1586070,296,688,1601,-882,-592,-102,30,262,-120
2148,0,2023-03-01T18:49:56.561951,1586078,296,688,1601,-882,-592,-102,30,262,-120
2149,0,2023-03-01T18:49:56.567100,1586083,297,695,1601,-880,-592,-108,30,262,-120
2150,0,2023-03-01T18:49:56.573236,1586089,297,695,1601,-880,-592,-108,30,262,-120
2151,0,2023-03-01T18:49:56.578790,1586095,297,695,1601,-880,-592,-108,30,262,-120
2152,0,2023-03-01T18:49:56.583552,1586100,297,695,1601,-880,-592,-108,30,262,-120
2153,0,2023-03-01T18:49:56.588406,1586105,299,694,1595,-885,-595,-105,30,262,-120
2154,0,2023-03-01T18:49:56.594556,1586111,299,694,1595,-885,-595,-105,30,262,-120
2155,0,2023-03-01T18:49:56.600626,1586116,299,694,1595,-885,-595,-105,30,262,-120
2156,0,2023-03-01T18:49:56.605845,1586122,299,694,1595,-885,-595,-105,30,262,-120
2157,0,2023-03-01T18:49:56.611119,1586127,297,694,1596,-885,-594,-103,30,262,-120
2158,0,2023-03-01T18:49:56.617192,1586134,297,694,1596,-885,-594,-103,30,262,-120
2159,0,2023-03-01T18:49:56.623701,1586140,297,694,1596,-885,-594,-103,30,262,-120
2160,0,2023-03-01T18:49:56.629061,1586145,298,698,1595,-884,-599,-113,44,266,-120
2161,0,2023-03-01T18:49:56.635488,1586151,298,698,1595,-884,-599,-113,44,266,-120
2162,0,2023-03-01T18:49:56.640882,1586157,298,698,1595,-884,-599,-113,44,266,-120
2163,0,2023-03-01T18:49:56.645429,1586162,298,698,1595,-884,-599,-113,44,266,-120
2164,0,2023-03-01T18:49:56.650533,1586166,302,697,1600,-881,-600,-112,44,266,-120
2165,0,2023-03-01T18:49:56.656834,1586173,302,697,1600,-881,-600,-112,44,266,-120
2166,0,2023-03-01T18:49:56.662190,1586179,302,697,1600,-881,-600,-112,44,266,-120
2167,0,2023-03-01T18:49:56.667391,1586184,301,696,1601,-872,-600,-105,44,266,-120
2168,0,2023-03-01T18:49:56.673676,1586190,301,696,1601,-872,-600,-105,44,266,-120
2169,0,2023-03-01T18:49:56.679532,1586195,301,696,1601,-872,-600,-105,44,266,-120
2170,0,2023-03-01T18:49:56.684479,1586201,301,696,1601,-872,-600,-105,44,266,-120
2171,0,2023-03-01T18:49:56.689302,1586205,299,697,1593,-875,-595,-115,44,266,-120
2172,0,2023-03-01T18:49:56.694721,1586210,299,697,1593,-875,-595,-115,44,266,-120
2173,0,2023-03-01T18:49:56.700150,1586216,299,697,1593,-875,-595,-115,44,266,-120
2174,0,2023-03-01T18:49:56.705248,1586222,299,697,1593,-875,-595,-115,44,266,-120
2175,0,2023-03-01T18:49:56.710201,1586227,301,699,1595,-878,-593,-121,44,266,-120
2176,0,2023-03-01T18:49:56.716159,1586232,301,699,1595,-878,-593,-121,44,266,-120
2177,0,2023-03-01T18:49:56.721546,1586237,301,699,1595,-878,-593,-121,44,266,-120
2178,0,2023-03-01T18:49:56.726532,1586243,306,696,1598,-884,-591,-111,44,266,-120
2179,0,2023-03-01T18:49:56.732289,1586248,306,696,1598,-884,-591,-111,44,266,-120
2180,0,2023-03-01T18:49:56.737042,1586253,306,696,1598,-884,-591,-111,44,266,-120
2181,0,2023-03-01T18:49:56.741768,1586258,306,696,1598,-884,-591,-111,44,266,-120
2182,0,2023-03-01T18:49:56.746541,1586263,306,696,1598,-884,-591,-111,44,266,-120
2183,0,2023-03-01T18:49:56.752092,1586269,306,696,1598,-884,-591,-111,44,266,-120
2184,0,2023-03-01T18:49:56.757605,1586274,306,696,1598,-884,-591,-111,44,266,-120
2185,0,2023-03-01T18:49:56.762613,1586279,306,696,1598,-884,-591,-111,44,266,-120
2186,0,2023-03-01T18:49:56.767328,1586284,305,701,1604,-882,-602,-103,36,260,-124
2187,0,2023-03-01T18:49:56.772782,1586289,305,701,1604,-882,-602,-103,36,260,-124
2188,0,2023-03-01T18:49:56.777580,1586293,305,701,1604,-882,-602,-103,36,260,-124
2189,0,2023-03-01T18:49:56.782249,1586298,305,701,1604,-882,-602,-103,36,260,-124
2190,0,2023-03-01T18:49:56.787087,1586304,308,706,1601,-889,-598,-125,36,260,-124
2191,0,2023-03-01T18:49:56.793320,1586310,308,706,1601,-889,-598,-125,36,260,-124
2192,0,2023-03-01T18:49:56.798104,1586315,308,706,1601,-889,-598,-125,36,260,-124
2193,0,2023-03-01T18:49:56.802807,1586319,308,706,1601,-889,-598,-125,36,260,-124
2194,0,2023-03-01T18:49:56.807489,1586324,306,706,1595,-878,-596,-118,36,260,-124
2195,0,2023-03-01T18:49:56.812926,1586329,306,706,1595,-878,-596,-118,36,260,-124
2196,0,2023-03-01T18:49:56.818654,1586335,306,706,1595,-878,-596,-118,36,260,-124
2197,0,2023-03-01T18:49:56.823456,1586339,306,706,1595,-878,-596,-118,36,260,-124
2198,0,2023-03-01T18:49:56.828352,1586344,305,702,1596,-881,-599,-124,36,260,-124
2199,0,2023-03-01T18:49:56.834213,1586351,305,702,1596,-881,-599,-124,36,260,-124
2200,0,2023-03-01T18:49:56.839810,1586356,305,702,1596,-881,-599,-124,36,260,-124
2201,0,2023-03-01T18:49:56.844938,1586361,305,702,1596,-881,-599,-124,36,260,-124
2202,0,2023-03-01T18:49:56.849649,1586366,304,703,1592,-878,-597,-122,36,260,-124
2203,0,2023-03-01T18:49:56.854982,1586371,304,703,1592,-878,-597,-122,36,260,-124
2204,0,2023-03-01T18:49:56.860335,1586376,304,703,1592,-878,-597,-122,36,260,-124
2205,0,2023-03-01T18:49:56.865378,1586381,304,703,1592,-878,-597,-122,36,260,-124
2206,0,2023-03-01T18:49:56.870172,1586386,306,704,1597,-883,-599,-109,36,260,-124
2207,0,2023-03-01T18:49:56.875492,1586392,306,704,1597,-883,-599,-109,36,260,-124
2208,0,2023-03-01T18:49:56.881171,1586398,306,704,1597,-883,-599,-109,36,260,-124
2209,0,2023-03-01T18:49:56.886161,1586403,305,708,1593,-876,-610,-126,36,260,-124
2210,0,2023-03-01T18:49:56.891714,1586408,305,708,1593,-876,-610,-126,41,257,-117
2211,0,2023-03-01T18:49:56.897899,1586414,305,708,1593,-876,-610,-126,41,257,-117
2212,0,2023-03-01T18:49:56.902775,1586419,305,708,1593,-876,-610,-126,41,257,-117
2213,0,2023-03-01T18:49:56.907805,1586424,305,707,1601,-880,-600,-119,41,257,-117
2214,0,2023-03-01T18:49:56.913531,1586429,305,707,1601,-880,-600,-119,41,257,-117
2215,0,2023-03-01T18:49:56.919737,1586436,305,707,1601,-880,-600,-119,41,257,-117
2216,0,2023-03-01T18:49:56.924617,1586441,305,707,1601,-880,-600,-119,41,257,-117
2217,0,2023-03-01T18:49:56.929656,1586446,308,708,1597,-892,-601,-126,41,257,-117
2218,0,2023-03-01T18:49:56.935334,1586452,308,708,1597,-892,-601,-126,41,257,-117
2219,0,2023-03-01T18:49:56.940666,1586457,308,708,1597,-892,-601,-126,41,257,-117
2220,0,2023-03-01T18:49:56.945502,1586462,308,708,1597,-892,-601,-126,41,257,-117
2221,0,2023-03-01T18:49:56.950412,1586466,308,708,1597,-892,-601,-126,41,257,-117
2222,0,2023-03-01T18:49:56.955488,1586471,308,708,1597,-892,-601,-126,41,257,-117
2223,0,2023-03-01T18:49:56.961240,1586478,308,708,1597,-892,-601,-126,41,257,-117
2224,0,2023-03-01T18:49:56.965783,1586483,308,708,1597,-892,-601,-126,41,257,-117
2225,0,2023-03-01T18:49:56.970212,1586487,309,706,1592,-883,-609,-116,41,257,-117
2226,0,2023-03-01T18:49:56.975651,1586492,309,706,1592,-883,-609,-116,41,257,-117
2227,0,2023-03-01T18:49:56.981049,1586498,309,706,1592,-883,-609,-116,41,257,-117
2228,0,2023-03-01T18:49:56.985790,1586502,309,706,1592,-883,-609,-116,41,257,-117
2229,0,2023-03-01T18:49:56.990487,1586506,306,708,1595,-882,-608,-106,41,257,-117
2230,0,2023-03-01T18:49:56.996542,1586513,306,708,1595,-882,-608,-106,41,257,-117
2231,0,2023-03-01T18:49:57.002191,1586519,306,708,1595,-882,-608,-106,41,257,-117
2232,0,2023-03-01T18:49:57.007722,1586524,307,711,1601,-888,-608,-116,41,257,-117
2233,0,2023-03-01T18:49:57.014370,1586531,307,711,1601,-888,-608,-116,41,257,-117
2234,0,2023-03-01T18:49:57.019515,1586536,307,711,1601,-888,-608,-116,41,257,-117
2235,0,2023-03-01T18:49:57.024282,1586541,307,711,1601,-888,-608,-116,41,257,-117
2236,0,2023-03-01T18:49:57.028986,1586545,309,712,1597,-884,-598,-109,41,257,-127
2237,0,2023-03-01T18:49:57.034224,1586550,309,712,1597,-884,-598,-109,41,257,-127
2238,0,2023-03-01T18:49:57.039532,1586555,309,712,1597,-884,-598,-109,41,257,-127
2239,0,2023-03-01T18:49:57.044547,1586561,309,712,1597,-884,-598,-109,41,257,-127
2240,0,2023-03-01T18:49:57.049653,1586566,307,710,1593,-885,-603,-116,41,257,-127
2241,0,2023-03-01T18:49:57.055635,1586572,307,710,1593,-885,-603,-116,41,257,-127
2242,0,2023-03-01T18:49:57.061022,1586577,307,710,1593,-885,-603,-116,41,257,-127
2243,0,2023-03-01T18:49:57.065939,1586582,307,710,1593,-885,-603,-116,41,257,-127
2244,0,2023-03-01T18:49:57.070808,1586587,311,714,1594,-881,-593,-118,41,257,-127
2245,0,2023-03-01T18:49:57.078492,1586594,311,714,1594,-881,-593,-118,41,257,-127
2246,0,2023-03-01T18:49:57.083867,1586600,311,714,1594,-881,-593,-118,41,257,-127
2247,0,2023-03-01T18:49:57.089106,1586606,307,715,1593,-873,-601,-113,41,257,-127
2248,0,2023-03-01T18:49:57.095995,1586612,307,715,1593,-873,-601,-113,41,257,-127
2249,0,2023-03-01T18:49:57.101411,1586618,307,715,1593,-873,-601,-113,41,257,-127
2250,0,2023-03-01T18:49:57.106581,1586623,311,710,1587,-896,-601,-120,41,257,-127
2251,0,2023-03-01T18:49:57.112328,1586629,311,710,1587,-896,-601,-120,41,257,-127
2252,0,2023-03-01T18:49:57.117350,1586633,311,710,1587,-896,-601,-120,41,257,-127
2253,0,2023-03-01T18:49:57.122436,1586638,311,710,1587,-896,-601,-120,41,257,-127
2254,0,2023-03-01T18:49:57.128066,1586644,312,713,1593,-879,-593,-115,41,257,-127
2255,0,2023-03-01T18:49:57.133964,1586651,312,713,1593,-879,-593,-115,41,257,-127
2256,0,2023-03-01T18:49:57.139355,1586656,312,713,1593,-879,-593,-115,41,257,-127
2257,0,2023-03-01T18:49:57.144556,1586661,312,713,1593,-879,-593,-115,41,257,-127
2258,0,2023-03-01T18:49:57.149301,1586666,312,713,1597,-888,-595,-115,41,263,-131
2259,0,2023-03-01T18:49:57.155358,1586671,312,713,1597,-888,-595,-115,41,263,-131
2260,0,2023-03-01T18:49:57.160843,1586677,312,713,1597,-888,-595,-115,41,263,-131
2261,0,2023-03-01T18:49:57.165893,1586682,312,713,1597,-888,-595,-115,41,263,-131
2262,0,2023-03-01T18:49:57.171064,1586688,311,719,1594,-882,-596,-112,41,263,-131
2263,0,2023-03-01T18:49:57.177163,1586694,311,719,1594,-882,-596,-112,41,263,-131
2264,0,2023-03-01T18:49:57.182253,1586699,311,719,1594,-882,-596,-112,41,263,-131
2265,0,2023-03-01T18:49:57.187276,1586704,313,719,1597,-890,-602,-126,41,263,-131
2266,0,2023-03-01T18:49:57.193677,1586710,313,719,1597,-890,-602,-126,41,263,-131
2267,0,2023-03-01T18:49:57.199009,1586715,313,719,1597,-890,-602,-126,41,263,-131
2268,0,2023-03-01T18:49:57.203869,1586720,313,719,1597,-890,-602,-126,41,263,-131
2269,0,2023-03-01T18:49:57.208879,1586725,310,717,1595,-896,-594,-116,41,263,-131
2270,0,2023-03-01T18:49:57.215598,1586732,310,717,1595,-896,-594,-116,41,263,-131
2271,0,2023-03-01T18:49:57.221883,1586738,310,717,1595,-896,-594,-116,41,263,-131
2272,0,2023-03-01T18:49:57.226751,1586743,316,719,1591,-880,-598,-120,41,263,-131
2273,0,2023-03-01T18:49:57.232211,1586748,316,719,1591,-880,-598,-120,41,263,-131
2274,0,2023-03-01T18:49:57.238731,1586755,316,719,1591,-880,-598,-120,41,263,-131
2275,0,2023-03-01T18:49:57.243442,1586760,316,719,1591,-880,-598,-120,41,263,-131
2276,0,2023-03-01T18:49:57.248242,1586764,312,718,1591,-891,-597,-113,41,263,-131
2277,0,2023-03-01T18:49:57.253144,1586769,312,718,1591,-891,-597,-113,41,263,-131
2278,0,2023-03-01T18:49:57.258794,1586775,312,718,1591,-891,-597,-113,41,263,-131
2279,0,2023-03-01T18:49:57.263654,1586780,312,718,1591,-891,-597,-113,41,263,-131
2280,0,2023-03-01T18:49:57.268547,1586785,316,721,1590,-880,-603,-114,41,263,-131
2281,0,2023-03-01T18:49:57.274603,1586791,316,721,1590,-880,-603,-114,41,263,-131
2282,0,2023-03-01T18:49:57.280053,1586796,316,721,1590,-880,-603,-114,41,263,-131
2283,0,2023-03-01T18:49:57.285379,1586801,316,721,1590,-880,-603,-114,41,263,-131
2284,0,2023-03-01T18:49:57.290427,1586806,317,722,1598,-888,-600,-113,38,262,-120
2285,0,2023-03-01T18:49:57.296436,1586812,317,722,1598,-888,-600,-113,38,262,-120
2286,0,2023-03-01T18:49:57.302064,1586819,317,722,1598,-888,-600,-113,38,262,-120
2287,0,2023-03-01T18:49:57.306750,1586823,316,721,1584,-888,-589,-122,38,262,-120
2288,0,2023-03-01T18:49:57.312356,1586829,316,721,1584,-888,-589,-122,38,262,-120
2289,0,2023-03-01T18:49:57.318618,1586835,316,721,1584,-888,-589,-122,38,262,-120
2290,0,2023-03-01T18:49:57.323743,1586840,316,721,1584,-888,-589,-122,38,262,-120
2291,0,2023-03-01T18:49:57.329824,1586846,315,723,1587,-890,-593,-115,38,262,-120
2292,0,2023-03-01T18:49:57.335652,1586852,315,723,1587,-890,-593,-115,38,262,-120
2293,0,2023-03-01T18:49:57.341529,1586857,315,723,1587,-890,-593,-115,38,262,-120
2294,0,2023-03-01T18:49:57.346695,1586863,315,723,1587,-890,-593,-115,38,262,-120
2295,0,2023-03-01T18:49:57.351645,1586868,317,720,1591,-885,-593,-118,38,262,-120
2296,0,2023-03-01T18:49:57.357710,1586874,317,720,1591,-885,-593,-118,38,262,-120
2297,0,2023-03-01T18:49:57.362104,1586879,317,720,1591,-885,-593,-118,38,262,-120
2298,0,2023-03-01T18:49:57.366773,1586883,320,724,1595,-877,-597,-119,38,262,-120
2299,0,2023-03-01T18:49:57.372122,1586888,320,724,1595,-877,-597,-119,38,262,-120
2300,0,2023-03-01T18:49:57.378487,1586894,320,724,1595,-877,-597,-119,38,262,-120
2301,0,2023-03-01T18:49:57.382843,1586899,320,724,1595,-877,-597,-119,38,262,-120
2302,0,2023-03-01T18:49:57.387641,1586904,317,723,1594,-878,-594,-109,38,262,-120
2303,0,2023-03-01T18:49:57.393132,1586910,317,723,1594,-878,-594,-109,38,262,-120
2304,0,2023-03-01T18:49:57.398724,1586915,317,723,1594,-878,-594,-109,38,262,-120
2305,0,2023-03-01T18:49:57.403794,1586920,317,723,1594,-878,-594,-109,38,262,-120
2306,0,2023-03-01T18:49:57.408756,1586925,320,725,1598,-881,-598,-116,38,256,-124
2307,0,2023-03-01T18:49:57.414804,1586931,320,725,1598,-881,-598,-116,38,256,-124
2308,0,2023-03-01T18:49:57.420244,1586936,320,725,1598,-881,-598,-116,38,256,-124
2309,0,2023-03-01T18:49:57.425079,1586941,320,725,1598,-881,-598,-116,38,256,-124
2310,0,2023-03-01T18:49:57.430228,1586947,318,721,1590,-880,-592,-112,38,256,-124
2311,0,2023-03-01T18:49:57.436189,1586952,318,721,1590,-880,-592,-112,38,256,-124
2312,0,2023-03-01T18:49:57.442134,1586959,318,721,1590,-880,-592,-112,38,256,-124
2313,0,2023-03-01T18:49:57.446844,1586963,321,727,1591,-882,-598,-111,38,256,-124
2314,0,2023-03-01T18:49:57.452074,1586968,321,727,1591,-882,-598,-111,38,256,-124
2315,0,2023-03-01T18:49:57.458016,1586974,321,727,1591,-882,-598,-111,38,256,-124
2316,0,2023-03-01T18:49:57.463147,1586979,321,727,1591,-882,-598,-111,38,256,-124
2317,0,2023-03-01T18:49:57.468183,1586984,320,728,1592,-882,-596,-114,38,256,-124
2318,0,2023-03-01T18:49:57.474201,1586991,320,728,1592,-882,-596,-114,38,256,-124
2319,0,2023-03-01T18:49:57.479392,1586996,320,728,1592,-882,-596,-114,38,256,-124
2320,0,2023-03-01T18:49:57.484368,1587001,320,728,1592,-882,-596,-114,38,256,-124
2321,0,2023-03-01T18:49:57.489181,1587006,318,728,1589,-898,-592,-110,38,256,-124
2322,0,2023-03-01T18:49:57.495720,1587011,318,728,1589,-898,-592,-110,38,256,-124
2323,0,2023-03-01T18:49:57.501280,1587017,318,728,1589,-898,-592,-110,38,256,-124
2324,0,2023-03-01T18:49:57.506245,1587022,318,728,1589,-898,-592,-110,38,256,-124
2325,0,2023-03-01T18:49:57.510938,1587027,320,730,1592,-888,-603,-117,38,256,-124
2326,0,2023-03-01T18:49:57.516617,1587034,320,730,1592,-888,-603,-117,38,256,-124
2327,0,2023-03-01T18:49:57.522044,1587038,320,730,1592,-888,-603,-117,38,256,-124
2328,0,2023-03-01T18:49:57.526750,1587043,320,725,1587,-891,-601,-117,38,256,-124
2329,0,2023-03-01T18:49:57.532022,1587048,320,725,1587,-891,-601,-117,42,258,-132
2330,0,2023-03-01T18:49:57.538083,1587054,320,725,1587,-891,-601,-117,42,258,-132
2331,0,2023-03-01T18:49:57.543108,1587059,320,725,1587,-891,-601,-117,42,258,-132
2332,0,2023-03-01T18:49:57.548387,1587064,320,725,1587,-891,-601,-117,42,258,-132
2333,0,2023-03-01T18:49:57.553007,1587069,320,725,1587,-891,-601,-117,42,258,-132
2334,0,2023-03-01T18:49:57.558652,1587075,320,725,1587,-891,-601,-117,42,258,-132
2335,0,2023-03-01T18:49:57.563750,1587080,320,725,1587,-891,-601,-117,42,258,-132
2336,0,2023-03-01T18:49:57.568441,1587085,321,727,1590,-879,-597,-115,42,258,-132
2337,0,2023-03-01T18:49:57.574955,1587091,321,727,1590,-879,-597,-115,42,258,-132
2338,0,2023-03-01T18:49:57.579818,1587096,321,727,1590,-879,-597,-115,42,258,-132
2339,0,2023-03-01T18:49:57.584665,1587101,321,727,1590,-879,-597,-115,42,258,-132
2340,0,2023-03-01T18:49:57.589471,1587105,322,732,1587,-886,-592,-120,42,258,-132
2341,0,2023-03-01T18:49:57.594656,1587111,322,732,1587,-886,-592,-120,42,258,-132
2342,0,2023-03-01T18:49:57.600464,1587117,322,732,1587,-886,-592,-120,42,258,-132
2343,0,2023-03-01T18:49:57.605660,1587122,322,732,1587,-886,-592,-120,42,258,-132
2344,0,2023-03-01T18:49:57.610496,1587127,321,729,1583,-880,-592,-112,42,258,-132
2345,0,2023-03-01T18:49:57.616661,1587133,321,729,1583,-880,-592,-112,42,258,-132
2346,0,2023-03-01T18:49:57.622350,1587138,321,729,1583,-880,-592,-112,42,258,-132
2347,0,2023-03-01T18:49:57.627706,1587144,323,733,1590,-890,-590,-114,42,258,-132
2348,0,2023-03-01T18:49:57.633933,1587150,323,733,1590,-890,-590,-114,42,258,-132
2349,0,2023-03-01T18:49:57.639765,1587156,323,733,1590,-890,-590,-114,42,258,-132
2350,0,2023-03-01T18:49:57.644634,1587161,323,733,1590,-890,-590,-114,42,258,-132
2351,0,2023-03-01T18:49:57.649631,1587166,324,736,1587,-889,-583,-108,42,258,-132
2352,0,2023-03-01T18:49:57.656208,1587172,324,736,1587,-889,-583,-108,42,258,-132
2353,0,2023-03-01T18:49:57.661807,1587178,324,736,1587,-889,-583,-108,42,258,-132
2354,0,2023-03-01T18:49:57.666998,1587183,324,736,1587,-889,-583,-108,42,258,-132
