,Unnamed: 0,imu,server_time,arduino_time,ax,ay,az,gx,gy,gz,mx,my,mz
0,3320,0,2023-03-10T14:06:38.415200,6276589,797,536,1539,-1048,-578,-246,114,182,-70
1,3321,0,2023-03-10T14:06:38.420007,6276594,797,536,1539,-1048,-578,-246,114,182,-70
2,3322,0,2023-03-10T14:06:38.424586,6276599,797,536,1539,-1048,-578,-246,114,182,-70
3,3323,0,2023-03-10T14:06:38.428901,6276603,784,525,1542,-1031,-572,-219,114,182,-70
4,3324,0,2023-03-10T14:06:38.434370,6276609,784,525,1542,-1031,-572,-219,114,182,-70
5,3325,0,2023-03-10T14:06:38.439069,6276614,784,525,1542,-1031,-572,-219,114,182,-70
6,3326,0,2023-03-10T14:06:38.444399,6276619,784,525,1542,-1031,-572,-219,114,182,-70
7,3327,0,2023-03-10T14:06:38.448785,6276623,801,538,1541,-1050,-584,-269,114,182,-70
8,3328,0,2023-03-10T14:06:38.453975,6276628,801,538,1541,-1050,-584,-269,114,182,-70
9,3329,0,2023-03-10T14:06:38.458419,6276633,801,538,1541,-1050,-584,-269,114,182,-70
10,3330,0,2023-03-10T14:06:38.462866,6276637,801,538,1541,-1050,-584,-269,114,182,-70
11,3331,0,2023-03-10T14:06:38.467485,6276641,787,525,1544,-1031,-588,-223,114,182,-70
12,3332,0,2023-03-10T14:06:38.472977,6276647,787,525,1544,-1031,-588,-223,114,182,-70
13,3333,0,2023-03-10T14:06:38.477327,6276652,787,525,1544,-1031,-588,-223,114,182,-70
14,3334,0,2023-03-10T14:06:38.481839,6276657,787,525,1544,-1031,-588,-223,114,182,-70
15,3335,0,2023-03-10T14:06:38.486238,6276661,787,525,1544,-1031,-588,-223,114,182,-70
16,3336,0,2023-03-10T14:06:38.491437,6276666,801,534,1539,-1031,-569,-270,114,182,-70
17,3337,0,2023-03-10T14:06:38.495867,6276670,801,534,1539,-1031,-569,-270,114,182,-70
18,3338,0,2023-03-10T14:06:38.500364,6276675,801,534,1539,-1031,-569,-270,114,182,-70
19,3339,0,2023-03-10T14:06:38.505264,6276679,801,534,1539,-1031,-569,-270,114,182,-70
20,3340,0,2023-03-10T14:06:38.509617,6276684,790,528,1546,-1027,-577,-230,125,189,-57
21,3341,0,2023-03-10T14:06:38.514588,6276689,790,528,1546,-1027,-577,-230,125,189,-57
22,3342,0,2023-03-10T14:06:38.519407,6276694,790,528,1546,-1027,-577,-230,125,189,-57
23,3343,0,2023-03-10T14:06:38.523992,6276699,790,528,1546,-1027,-577,-230,125,189,-57
24,3344,0,2023-03-10T14:06:38.528549,6276703,792,534,1550,-1022,-573,-258,125,189,-57
25,3345,0,2023-03-10T14:06:38.533922,6276708,792,534,1550,-1022,-573,-258,125,189,-57
26,3346,0,2023-03-10T14:06:38.538480,6276713,792,534,1550,-1022,-573,-258,125,189,-57
27,3347,0,2023-03-10T14:06:38.543044,6276717,792,534,1550,-1022,-573,-258,125,189,-57
28,3348,0,2023-03-10T14:06:38.547627,6276722,792,527,1537,-1046,-591,-236,125,189,-57
29,3349,0,2023-03-10T14:06:38.553015,6276727,792,527,1537,-1046,-591,-236,125,189,-57
30,3350,0,2023-03-10T14:06:38.557379,6276731,792,527,1537,-1046,-591,-236,125,189,-57
31,3351,0,2023-03-10T14:06:38.561861,6276737,792,527,1537,-1046,-591,-236,125,189,-57
32,3352,0,2023-03-10T14:06:38.566274,6276741,792,527,1537,-1046,-591,-236,125,189,-57
33,3353,0,2023-03-10T14:06:38.571151,6276746,792,527,1537,-1046,-591,-236,125,189,-57
34,3354,0,2023-03-10T14:06:38.575439,6276750,792,527,1537,-1046,-591,-236,125,189,-57
35,3355,0,2023-03-10T14:06:38.579875,6276754,792,527,1537,-1046,-591,-236,125,189,-57
36,3356,0,2023-03-10T14:06:38.584377,6276759,792,527,1537,-1046,-591,-236,125,189,-57
37,3357,0,2023-03-10T14:06:38.588981,6276763,789,525,1554,-1043,-582,-213,125,189,-57
38,3358,0,2023-03-10T14:06:38.594502,6276768,789,525,1554,-1043,-582,-213,125,189,-57
39,3359,0,2023-03-10T14:06:38.599086,6276773,789,525,1554,-1043,-582,-213,125,189,-57
40,3360,0,2023-03-10T14:06:38.603683,6276777,789,525,1554,-1043,-582,-213,125,189,-57
41,3361,0,2023-03-10T14:06:38.608371,6276783,796,532,1547,-1034,-566,-261,125,189,-57
42,3362,0,2023-03-10T14:06:38.613966,6276789,796,532,1547,-1034,-566,-261,125,189,-57
43,3363,0,2023-03-10T14:06:38.618735,6276793,796,532,1547,-1034,-566,-261,125,189,-57
44,3364,0,2023-03-10T14:06:38.623171,6276797,796,532,1547,-1034,-566,-261,125,189,-57
45,3365,0,2023-03-10T14:06:38.627778,6276802,792,529,1537,-1049,-568,-252,120,182,-64
46,3366,0,2023-03-10T14:06:38.633404,6276808,792,529,1537,-1049,-568,-252,120,182,-64
47,3367,0,2023-03-10T14:06:38.637882,6276812,792,529,1537,-1049,-568,-252,120,182,-64
48,3368,0,2023-03-10T14:06:38.642620,6276816,792,529,1537,-1049,-568,-252,120,182,-64
49,3369,0,2023-03-10T14:06:38.647186,6276822,792,529,1537,-1049,-568,-252,120,182,-64
50,3370,0,2023-03-10T14:06:38.651669,6276826,795,532,1550,-1026,-563,-250,120,182,-64
51,3371,0,2023-03-10T14:06:38.656771,6276831,795,532,1550,-1026,-563,-250,120,182,-64
52,3372,0,2023-03-10T14:06:38.661525,6276836,795,532,1550,-1026,-563,-250,120,182,-64
53,3373,0,2023-03-10T14:06:38.666404,6276840,795,532,1550,-1026,-563,-250,120,182,-64
54,3374,0,2023-03-10T14:06:38.671114,6276845,789,530,1543,-1045,-575,-250,120,182,-64
55,3375,0,2023-03-10T14:06:38.677054,6276851,789,530,1543,-1045,-575,-250,120,182,-64
56,3376,0,2023-03-10T14:06:38.681554,6276856,789,530,1543,-1045,-575,-250,120,182,-64
57,3377,0,2023-03-10T14:06:38.686317,6276860,789,530,1543,-1045,-575,-250,120,182,-64
58,3378,0,2023-03-10T14:06:38.691208,6276866,793,530,1545,-1033,-574,-257,120,182,-64
59,3379,0,2023-03-10T14:06:38.696111,6276871,793,530,1545,-1033,-574,-257,120,182,-64
60,3380,0,2023-03-10T14:06:38.700716,6276875,793,530,1545,-1033,-574,-257,120,182,-64
61,3381,0,2023-03-10T14:06:38.705204,6276880,793,530,1545,-1033,-574,-257,120,182,-64
62,3382,0,2023-03-10T14:06:38.709786,6276884,792,529,1544,-1036,-576,-246,120,182,-64
63,3383,0,2023-03-10T14:06:38.714638,6276889,792,529,1544,-1036,-576,-246,120,182,-64
64,3384,0,2023-03-10T14:06:38.719473,6276894,792,529,1544,-1036,-576,-246,120,182,-64
65,3385,0,2023-03-10T14:06:38.723752,6276898,792,529,1544,-1036,-576,-246,120,182,-64
66,3386,0,2023-03-10T14:06:38.728265,6276902,794,529,1543,-1030,-574,-242,120,182,-64
67,3387,0,2023-03-10T14:06:38.734065,6276909,794,529,1543,-1030,-574,-242,120,182,-64
68,3388,0,2023-03-10T14:06:38.738675,6276913,794,529,1543,-1030,-574,-242,120,182,-64
69,3389,0,2023-03-10T14:06:38.743236,6276918,794,529,1543,-1030,-574,-242,120,182,-64
70,3390,0,2023-03-10T14:06:38.747716,6276922,792,525,1545,-1029,-589,-233,120,182,-64
71,3391,0,2023-03-10T14:06:38.753156,6276927,792,525,1545,-1029,-589,-233,120,182,-64
72,3392,0,2023-03-10T14:06:38.758328,6276933,792,525,1545,-1029,-589,-233,120,182,-64
73,3393,0,2023-03-10T14:06:38.762785,6276937,792,525,1545,-1029,-589,-233,120,182,-64
74,3394,0,2023-03-10T14:06:38.767285,6276941,792,525,1545,-1029,-589,-233,120,182,-64
75,3395,0,2023-03-10T14:06:38.771695,6276946,801,537,1545,-1040,-586,-268,120,182,-64
76,3396,0,2023-03-10T14:06:38.776808,6276951,801,537,1545,-1040,-586,-268,120,182,-64
77,3397,0,2023-03-10T14:06:38.781390,6276956,801,537,1545,-1040,-586,-268,120,182,-64
78,3398,0,2023-03-10T14:06:38.785764,6276960,801,537,1545,-1040,-586,-268,120,182,-64
79,3399,0,2023-03-10T14:06:38.790477,6276965,784,527,1550,-1019,-584,-204,120,182,-64
80,3400,0,2023-03-10T14:06:38.795370,6276970,784,527,1550,-1019,-584,-204,120,182,-64
81,3401,0,2023-03-10T14:06:38.799965,6276974,784,527,1550,-1019,-584,-204,120,182,-64
82,3402,0,2023-03-10T14:06:38.804492,6276979,784,527,1550,-1019,-584,-204,120,182,-64
83,3403,0,2023-03-10T14:06:38.809367,6276983,794,534,1543,-1030,-583,-260,120,182,-64
84,3404,0,2023-03-10T14:06:38.814095,6276988,794,534,1543,-1030,-583,-260,120,182,-64
85,3405,0,2023-03-10T14:06:38.818672,6276993,794,534,1543,-1030,-583,-260,120,182,-64
86,3406,0,2023-03-10T14:06:38.823305,6276998,794,534,1543,-1030,-583,-260,120,182,-64
87,3407,0,2023-03-10T14:06:38.828241,6277003,794,527,1538,-1043,-587,-249,120,182,-64
88,3408,0,2023-03-10T14:06:38.833723,6277008,794,527,1538,-1043,-587,-249,120,182,-64
89,3409,0,2023-03-10T14:06:38.837996,6277012,794,527,1538,-1043,-587,-249,120,182,-64
90,3410,0,2023-03-10T14:06:38.842408,6277017,794,527,1538,-1043,-587,-249,120,182,-64
91,3411,0,2023-03-10T14:06:38.847600,6277022,794,527,1538,-1043,-587,-249,120,182,-64
92,3412,0,2023-03-10T14:06:38.852538,6277027,795,535,1554,-1020,-570,-255,120,182,-64
93,3413,0,2023-03-10T14:06:38.857699,6277032,795,535,1554,-1020,-570,-255,120,182,-64
94,3414,0,2023-03-10T14:06:38.862486,6277037,795,535,1554,-1020,-570,-255,120,182,-64
95,3415,0,2023-03-10T14:06:38.867647,6277042,794,527,1546,-1043,-569,-252,120,182,-64
96,3416,0,2023-03-10T14:06:38.872696,6277047,794,527,1546,-1043,-569,-252,120,182,-64
97,3417,0,2023-03-10T14:06:38.877395,6277052,794,527,1546,-1043,-569,-252,120,182,-64
98,3418,0,2023-03-10T14:06:38.881945,6277056,794,527,1546,-1043,-569,-252,120,182,-64
99,3419,0,2023-03-10T14:06:38.886524,6277061,794,527,1546,-1043,-569,-252,120,182,-64
100,3420,0,2023-03-10T14:06:38.891476,6277066,789,530,1548,-1029,-568,-250,122,184,-68
101,3421,0,2023-03-10T14:06:38.896640,6277071,789,530,1548,-1029,-568,-250,122,184,-68
102,3422,0,2023-03-10T14:06:38.901393,6277075,789,530,1548,-1029,-568,-250,122,184,-68
103,3423,0,2023-03-10T14:06:38.906242,6277081,789,530,1548,-1029,-568,-250,122,184,-68
104,3424,0,2023-03-10T14:06:38.910724,6277085,798,533,1548,-1036,-578,-251,122,184,-68
105,3425,0,2023-03-10T14:06:38.916662,6277091,798,533,1548,-1036,-578,-251,122,184,-68
106,3426,0,2023-03-10T14:06:38.921600,6277096,798,533,1548,-1036,-578,-251,122,184,-68
107,3427,0,2023-03-10T14:06:38.926235,6277100,798,533,1548,-1036,-578,-251,122,184,-68
108,3428,0,2023-03-10T14:06:38.931037,6277105,790,530,1545,-1028,-580,-243,122,184,-68
109,3429,0,2023-03-10T14:06:38.936786,6277111,790,530,1545,-1028,-580,-243,122,184,-68
110,3430,0,2023-03-10T14:06:38.941403,6277115,790,530,1545,-1028,-580,-243,122,184,-68
111,3431,0,2023-03-10T14:06:38.946677,6277121,790,530,1545,-1028,-580,-243,122,184,-68
112,3432,0,2023-03-10T14:06:38.951489,6277126,793,527,1543,-1030,-587,-248,122,184,-68
113,3433,0,2023-03-10T14:06:38.956622,6277131,793,527,1543,-1030,-587,-248,122,184,-68
114,3434,0,2023-03-10T14:06:38.961356,6277136,793,527,1543,-1030,-587,-248,122,184,-68
115,3435,0,2023-03-10T14:06:38.966078,6277140,793,527,1543,-1030,-587,-248,122,184,-68
116,3436,0,2023-03-10T14:06:38.970459,6277145,795,531,1545,-1045,-580,-252,122,184,-68
117,3437,0,2023-03-10T14:06:38.975353,6277149,795,531,1545,-1045,-580,-252,122,184,-68
118,3438,0,2023-03-10T14:06:38.979877,6277154,795,531,1545,-1045,-580,-252,122,184,-68
119,3439,0,2023-03-10T14:06:38.984238,6277158,795,531,1545,-1045,-580,-252,122,184,-68
120,3440,0,2023-03-10T14:06:38.988736,6277164,789,531,1544,-1037,-572,-246,122,184,-68
121,3441,0,2023-03-10T14:06:38.994017,6277169,789,531,1544,-1037,-572,-246,122,184,-68
122,3442,0,2023-03-10T14:06:38.998760,6277173,789,531,1544,-1037,-572,-246,122,184,-68
123,3443,0,2023-03-10T14:06:39.003274,6277178,789,531,1544,-1037,-572,-246,122,184,-68
124,3444,0,2023-03-10T14:06:39.008165,6277182,791,531,1546,-1025,-571,-246,122,184,-68
125,3445,0,2023-03-10T14:06:39.013764,6277188,791,531,1546,-1025,-571,-246,120,180,-66
126,3446,0,2023-03-10T14:06:39.018208,6277192,791,531,1546,-1025,-571,-246,120,180,-66
127,3447,0,2023-03-10T14:06:39.022971,6277197,791,531,1546,-1025,-571,-246,120,180,-66
128,3448,0,2023-03-10T14:06:39.027432,6277201,791,531,1546,-1025,-571,-246,120,180,-66
129,3449,0,2023-03-10T14:06:39.032530,6277207,794,529,1546,-1034,-584,-251,120,180,-66
130,3450,0,2023-03-10T14:06:39.037559,6277212,794,529,1546,-1034,-584,-251,120,180,-66
131,3451,0,2023-03-10T14:06:39.041956,6277217,794,529,1546,-1034,-584,-251,120,180,-66
132,3452,0,2023-03-10T14:06:39.046514,6277221,794,529,1546,-1034,-584,-251,120,180,-66
133,3453,0,2023-03-10T14:06:39.051454,6277226,793,530,1543,-1041,-593,-254,120,180,-66
134,3454,0,2023-03-10T14:06:39.056542,6277231,793,530,1543,-1041,-593,-254,120,180,-66
135,3455,0,2023-03-10T14:06:39.061048,6277235,793,530,1543,-1041,-593,-254,120,180,-66
136,3456,0,2023-03-10T14:06:39.066119,6277240,793,530,1543,-1041,-593,-254,120,180,-66
137,3457,0,2023-03-10T14:06:39.070652,6277245,797,535,1538,-1040,-589,-246,120,180,-66
138,3458,0,2023-03-10T14:06:39.075878,6277251,797,535,1538,-1040,-589,-246,120,180,-66
139,3459,0,2023-03-10T14:06:39.080652,6277255,797,535,1538,-1040,-589,-246,120,180,-66
140,3460,0,2023-03-10T14:06:39.085307,6277260,797,535,1538,-1040,-589,-246,120,180,-66
141,3461,0,2023-03-10T14:06:39.089637,6277264,795,531,1541,-1039,-583,-249,120,180,-66
142,3462,0,2023-03-10T14:06:39.094882,6277269,795,531,1541,-1039,-583,-249,120,180,-66
143,3463,0,2023-03-10T14:06:39.099567,6277274,795,531,1541,-1039,-583,-249,120,180,-66
144,3464,0,2023-03-10T14:06:39.104330,6277278,795,531,1541,-1039,-583,-249,120,180,-66
145,3465,0,2023-03-10T14:06:39.108703,6277283,790,527,1535,-1040,-568,-241,120,180,-66
146,3466,0,2023-03-10T14:06:39.113780,6277288,790,527,1535,-1040,-568,-241,120,180,-66
147,3467,0,2023-03-10T14:06:39.118059,6277293,790,527,1535,-1040,-568,-241,120,180,-66
148,3468,0,2023-03-10T14:06:39.122440,6277297,790,527,1535,-1040,-568,-241,120,180,-66
149,3469,0,2023-03-10T14:06:39.126950,6277302,790,527,1535,-1040,-568,-241,120,180,-66
150,3470,0,2023-03-10T14:06:39.132064,6277307,797,534,1554,-1034,-553,-258,120,180,-66
151,3471,0,2023-03-10T14:06:39.137291,6277312,797,534,1554,-1034,-553,-258,120,180,-66
152,3472,0,2023-03-10T14:06:39.141871,6277316,797,534,1554,-1034,-553,-258,120,180,-66
153,3473,0,2023-03-10T14:06:39.146462,6277321,797,534,1554,-1034,-553,-258,120,180,-66
154,3474,0,2023-03-10T14:06:39.151599,6277326,790,529,1542,-1039,-568,-258,121,183,-73
155,3475,0,2023-03-10T14:06:39.156755,6277331,790,529,1542,-1039,-568,-258,121,183,-73
156,3476,0,2023-03-10T14:06:39.161188,6277336,790,529,1542,-1039,-568,-258,121,183,-73
157,3477,0,2023-03-10T14:06:39.166973,6277342,790,529,1542,-1039,-568,-258,121,183,-73
158,3478,0,2023-03-10T14:06:39.172013,6277346,793,529,1544,-1027,-566,-250,121,183,-73
159,3479,0,2023-03-10T14:06:39.177608,6277352,793,529,1544,-1027,-566,-250,121,183,-73
160,3480,0,2023-03-10T14:06:39.182206,6277357,793,529,1544,-1027,-566,-250,121,183,-73
161,3481,0,2023-03-10T14:06:39.187574,6277362,793,529,1544,-1027,-566,-250,121,183,-73
162,3482,0,2023-03-10T14:06:39.192734,6277367,797,532,1548,-1025,-579,-257,121,183,-73
163,3483,0,2023-03-10T14:06:39.197516,6277371,797,532,1548,-1025,-579,-257,121,183,-73
164,3484,0,2023-03-10T14:06:39.203164,6277377,797,532,1548,-1025,-579,-257,121,183,-73
165,3485,0,2023-03-10T14:06:39.208581,6277383,795,529,1538,-1033,-578,-249,121,183,-73
166,3486,0,2023-03-10T14:06:39.213749,6277388,795,529,1538,-1033,-578,-249,121,183,-73
167,3487,0,2023-03-10T14:06:39.218312,6277393,795,529,1538,-1033,-578,-249,121,183,-73
168,3488,0,2023-03-10T14:06:39.223111,6277397,795,529,1538,-1033,-578,-249,121,183,-73
169,3489,0,2023-03-10T14:06:39.227753,6277402,795,529,1538,-1033,-578,-249,121,183,-73
170,3490,0,2023-03-10T14:06:39.233105,6277407,792,527,1545,-1036,-580,-236,121,183,-73
171,3491,0,2023-03-10T14:06:39.237971,6277412,792,527,1545,-1036,-580,-236,121,183,-73
172,3492,0,2023-03-10T14:06:39.242486,6277416,792,527,1545,-1036,-580,-236,121,183,-73
173,3493,0,2023-03-10T14:06:39.246804,6277422,792,527,1545,-1036,-580,-236,121,183,-73
174,3494,0,2023-03-10T14:06:39.252121,6277427,797,529,1547,-1040,-575,-264,121,183,-73
175,3495,0,2023-03-10T14:06:39.257266,6277432,797,529,1547,-1040,-575,-264,121,183,-73
176,3496,0,2023-03-10T14:06:39.261711,6277436,797,529,1547,-1040,-575,-264,121,183,-73
177,3497,0,2023-03-10T14:06:39.266197,6277441,797,529,1547,-1040,-575,-264,121,183,-73
178,3498,0,2023-03-10T14:06:39.270647,6277445,799,535,1547,-1045,-575,-255,120,188,-66
179,3499,0,2023-03-10T14:06:39.276008,6277450,799,535,1547,-1045,-575,-255,120,188,-66
180,3500,0,2023-03-10T14:06:39.280661,6277455,799,535,1547,-1045,-575,-255,120,188,-66
181,3501,0,2023-03-10T14:06:39.285281,6277459,799,535,1547,-1045,-575,-255,120,188,-66
182,3502,0,2023-03-10T14:06:39.289616,6277465,785,524,1541,-1018,-578,-225,120,188,-66
183,3503,0,2023-03-10T14:06:39.294699,6277470,785,524,1541,-1018,-578,-225,120,188,-66
184,3504,0,2023-03-10T14:06:39.299318,6277474,785,524,1541,-1018,-578,-225,120,188,-66
185,3505,0,2023-03-10T14:06:39.303801,6277478,785,524,1541,-1018,-578,-225,120,188,-66
186,3506,0,2023-03-10T14:06:39.308196,6277482,785,524,1541,-1018,-578,-225,120,188,-66
187,3507,0,2023-03-10T14:06:39.313010,6277487,799,537,1550,-1034,-573,-278,120,188,-66
188,3508,0,2023-03-10T14:06:39.317807,6277492,799,537,1550,-1034,-573,-278,120,188,-66
189,3509,0,2023-03-10T14:06:39.322474,6277496,799,537,1550,-1034,-573,-278,120,188,-66
190,3510,0,2023-03-10T14:06:39.327912,6277502,799,537,1550,-1034,-573,-278,120,188,-66
191,3511,0,2023-03-10T14:06:39.332938,6277508,789,523,1545,-1017,-583,-225,120,188,-66
192,3512,0,2023-03-10T14:06:39.337873,6277513,789,523,1545,-1017,-583,-225,120,188,-66
193,3513,0,2023-03-10T14:06:39.342264,6277517,789,523,1545,-1017,-583,-225,120,188,-66
194,3514,0,2023-03-10T14:06:39.347288,6277522,789,523,1545,-1017,-583,-225,120,188,-66
195,3515,0,2023-03-10T14:06:39.352208,6277526,798,537,1551,-1027,-562,-266,120,188,-66
196,3516,0,2023-03-10T14:06:39.357283,6277531,798,537,1551,-1027,-562,-266,120,188,-66
197,3517,0,2023-03-10T14:06:39.361852,6277536,798,537,1551,-1027,-562,-266,120,188,-66
198,3518,0,2023-03-10T14:06:39.366300,6277540,798,537,1551,-1027,-562,-266,120,188,-66
199,3519,0,2023-03-10T14:06:39.370794,6277545,792,528,1550,-1033,-558,-217,120,188,-66
200,3520,0,2023-03-10T14:06:39.376004,6277551,792,528,1550,-1033,-558,-217,120,188,-66
201,3521,0,2023-03-10T14:06:39.380409,6277555,792,528,1550,-1033,-558,-217,120,188,-66
202,3522,0,2023-03-10T14:06:39.385024,6277559,792,528,1550,-1033,-558,-217,120,188,-66
203,3523,0,2023-03-10T14:06:39.389575,6277564,788,530,1537,-1034,-562,-263,120,188,-66
204,3524,0,2023-03-10T14:06:39.394819,6277569,788,530,1537,-1034,-562,-263,120,188,-66
205,3525,0,2023-03-10T14:06:39.399404,6277574,788,530,1537,-1034,-562,-263,120,188,-66
206,3526,0,2023-03-10T14:06:39.403742,6277578,788,530,1537,-1034,-562,-263,120,188,-66
207,3527,0,2023-03-10T14:06:39.408281,6277582,788,530,1537,-1034,-562,-263,120,188,-66
208,3528,0,2023-03-10T14:06:39.413244,6277587,803,533,1551,-1056,-570,-251,126,182,-70
209,3529,0,2023-03-10T14:06:39.418262,6277593,803,533,1551,-1056,-570,-251,126,182,-70
210,3530,0,2023-03-10T14:06:39.423025,6277598,803,533,1551,-1056,-570,-251,126,182,-70
211,3531,0,2023-03-10T14:06:39.427539,6277602,803,533,1551,-1056,-570,-251,126,182,-70
212,3532,0,2023-03-10T14:06:39.431908,6277606,786,524,1549,-1025,-580,-220,126,182,-70
213,3533,0,2023-03-10T14:06:39.437107,6277612,786,524,1549,-1025,-580,-220,126,182,-70
214,3534,0,2023-03-10T14:06:39.441639,6277616,786,524,1549,-1025,-580,-220,126,182,-70
215,3535,0,2023-03-10T14:06:39.446543,6277621,786,524,1549,-1025,-580,-220,126,182,-70
216,3536,0,2023-03-10T14:06:39.451688,6277626,800,531,1536,-1050,-574,-268,126,182,-70
217,3537,0,2023-03-10T14:06:39.456550,6277632,800,531,1536,-1050,-574,-268,126,182,-70
218,3538,0,2023-03-10T14:06:39.460921,6277636,800,531,1536,-1050,-574,-268,126,182,-70
219,3539,0,2023-03-10T14:06:39.465246,6277640,800,531,1536,-1050,-574,-268,126,182,-70
220,3540,0,2023-03-10T14:06:39.469836,6277645,796,525,1552,-1023,-579,-246,126,182,-70
221,3541,0,2023-03-10T14:06:39.474717,6277649,796,525,1552,-1023,-579,-246,126,182,-70
222,3542,0,2023-03-10T14:06:39.479300,6277653,796,525,1552,-1023,-579,-246,126,182,-70
223,3543,0,2023-03-10T14:06:39.483804,6277658,796,525,1552,-1023,-579,-246,126,182,-70
224,3544,0,2023-03-10T14:06:39.488269,6277662,796,525,1552,-1023,-579,-246,126,182,-70
225,3545,0,2023-03-10T14:06:39.493666,6277668,793,530,1540,-1032,-571,-249,126,182,-70
226,3546,0,2023-03-10T14:06:39.497893,6277672,793,530,1540,-1032,-571,-249,126,182,-70
227,3547,0,2023-03-10T14:06:39.502358,6277677,793,530,1540,-1032,-571,-249,126,182,-70
228,3548,0,2023-03-10T14:06:39.506704,6277682,793,530,1540,-1032,-571,-249,126,182,-70
229,3549,0,2023-03-10T14:06:39.511396,6277686,792,526,1540,-1043,-584,-254,126,182,-70
230,3550,0,2023-03-10T14:06:39.516590,6277691,792,526,1540,-1043,-584,-254,126,182,-70
231,3551,0,2023-03-10T14:06:39.520921,6277695,792,526,1540,-1043,-584,-254,126,182,-70
232,3552,0,2023-03-10T14:06:39.525383,6277700,792,526,1540,-1043,-584,-254,126,182,-70
233,3553,0,2023-03-10T14:06:39.529863,6277704,795,535,1553,-1032,-561,-250,121,177,-67
234,3554,0,2023-03-10T14:06:39.535302,6277709,795,535,1553,-1032,-561,-250,121,177,-67
235,3555,0,2023-03-10T14:06:39.539845,6277714,795,535,1553,-1032,-561,-250,121,177,-67
236,3556,0,2023-03-10T14:06:39.544375,6277719,795,535,1553,-1032,-561,-250,121,177,-67
237,3557,0,2023-03-10T14:06:39.548719,6277724,785,525,1541,-1033,-585,-233,121,177,-67
238,3558,0,2023-03-10T14:06:39.553256,6277728,785,525,1541,-1033,-585,-233,121,177,-67
239,3559,0,2023-03-10T14:06:39.557725,6277732,785,525,1541,-1033,-585,-233,121,177,-67
240,3560,0,2023-03-10T14:06:39.562403,6277737,785,525,1541,-1033,-585,-233,121,177,-67
241,3561,0,2023-03-10T14:06:39.566965,6277741,785,525,1541,-1033,-585,-233,121,177,-67
242,3562,0,2023-03-10T14:06:39.571408,6277746,802,539,1538,-1033,-575,-281,121,177,-67
243,3563,0,2023-03-10T14:06:39.576013,6277750,802,539,1538,-1033,-575,-281,121,177,-67
244,3564,0,2023-03-10T14:06:39.580261,6277754,802,539,1538,-1033,-575,-281,121,177,-67
245,3565,0,2023-03-10T14:06:39.584753,6277760,802,539,1538,-1033,-575,-281,121,177,-67
246,3566,0,2023-03-10T14:06:39.589179,6277764,789,522,1545,-1026,-579,-202,121,177,-67
247,3567,0,2023-03-10T14:06:39.594267,6277769,789,522,1545,-1026,-579,-202,121,177,-67
248,3568,0,2023-03-10T14:06:39.598766,6277773,789,522,1545,-1026,-579,-202,121,177,-67
249,3569,0,2023-03-10T14:06:39.603598,6277778,789,522,1545,-1026,-579,-202,121,177,-67
250,3570,0,2023-03-10T14:06:39.608675,6277783,790,530,1545,-1025,-559,-261,121,177,-67
251,3571,0,2023-03-10T14:06:39.614226,6277788,790,530,1545,-1025,-559,-261,121,177,-67
252,3572,0,2023-03-10T14:06:39.618685,6277793,790,530,1545,-1025,-559,-261,121,177,-67
253,3573,0,2023-03-10T14:06:39.623265,6277797,790,530,1545,-1025,-559,-261,121,177,-67
254,3574,0,2023-03-10T14:06:39.627876,6277803,790,530,1545,-1025,-559,-261,121,177,-67
255,3575,0,2023-03-10T14:06:39.632808,6277807,804,532,1545,-1057,-557,-290,121,177,-67
256,3576,0,2023-03-10T14:06:39.637967,6277813,804,532,1545,-1057,-557,-290,121,177,-67
257,3577,0,2023-03-10T14:06:39.642446,6277817,804,532,1545,-1057,-557,-290,121,177,-67
258,3578,0,2023-03-10T14:06:39.647659,6277822,804,532,1545,-1057,-557,-290,121,177,-67
259,3579,0,2023-03-10T14:06:39.652654,6277827,788,528,1545,-1028,-564,-237,116,180,-72
260,3580,0,2023-03-10T14:06:39.657863,6277832,788,528,1545,-1028,-564,-237,116,180,-72
261,3581,0,2023-03-10T14:06:39.662496,6277837,788,528,1545,-1028,-564,-237,116,180,-72
262,3582,0,2023-03-10T14:06:39.667177,6277841,788,528,1545,-1028,-564,-237,116,180,-72
263,3583,0,2023-03-10T14:06:39.671620,6277847,792,532,1548,-1043,-573,-257,116,180,-72
264,3584,0,2023-03-10T14:06:39.676831,6277851,792,532,1548,-1043,-573,-257,116,180,-72
265,3585,0,2023-03-10T14:06:39.681303,6277856,792,532,1548,-1043,-573,-257,116,180,-72
266,3586,0,2023-03-10T14:06:39.685706,6277860,792,532,1548,-1043,-573,-257,116,180,-72
267,3587,0,2023-03-10T14:06:39.690315,6277865,795,531,1540,-1033,-575,-252,116,180,-72
268,3588,0,2023-03-10T14:06:39.695823,6277870,795,531,1540,-1033,-575,-252,116,180,-72
269,3589,0,2023-03-10T14:06:39.700416,6277875,795,531,1540,-1033,-575,-252,116,180,-72
270,3590,0,2023-03-10T14:06:39.705131,6277879,795,531,1540,-1033,-575,-252,116,180,-72
271,3591,0,2023-03-10T14:06:39.709771,6277884,793,531,1549,-1043,-574,-249,116,180,-72
272,3592,0,2023-03-10T14:06:39.715286,6277890,793,531,1549,-1043,-574,-249,116,180,-72
273,3593,0,2023-03-10T14:06:39.719719,6277895,793,531,1549,-1043,-574,-249,116,180,-72
274,3594,0,2023-03-10T14:06:39.724133,6277899,793,531,1549,-1043,-574,-249,116,180,-72
275,3595,0,2023-03-10T14:06:39.728543,6277903,793,531,1549,-1043,-574,-249,116,180,-72
276,3596,0,2023-03-10T14:06:39.734295,6277909,796,529,1546,-1031,-584,-242,116,180,-72
277,3597,0,2023-03-10T14:06:39.739071,6277913,796,529,1546,-1031,-584,-242,116,180,-72
278,3598,0,2023-03-10T14:06:39.743483,6277918,796,529,1546,-1031,-584,-242,116,180,-72
279,3599,0,2023-03-10T14:06:39.747954,6277922,796,529,1546,-1031,-584,-242,116,180,-72
280,3600,0,2023-03-10T14:06:39.752853,6277927,790,529,1543,-1039,-584,-239,116,180,-72
281,3601,0,2023-03-10T14:06:39.757772,6277933,790,529,1543,-1039,-584,-239,116,180,-72
282,3602,0,2023-03-10T14:06:39.762343,6277937,790,529,1543,-1039,-584,-239,116,180,-72
283,3603,0,2023-03-10T14:06:39.766657,6277941,790,529,1543,-1039,-584,-239,116,180,-72
284,3604,0,2023-03-10T14:06:39.771793,6277946,797,529,1545,-1036,-573,-254,116,180,-72
285,3605,0,2023-03-10T14:06:39.776891,6277951,797,529,1545,-1036,-573,-254,116,180,-72
286,3606,0,2023-03-10T14:06:39.781657,6277956,797,529,1545,-1036,-573,-254,116,180,-72
287,3607,0,2023-03-10T14:06:39.786310,6277960,797,529,1545,-1036,-573,-254,116,180,-72
288,3608,0,2023-03-10T14:06:39.790737,6277965,790,529,1545,-1039,-576,-253,116,192,-66
289,3609,0,2023-03-10T14:06:39.795726,6277970,790,529,1545,-1039,-576,-253,116,192,-66
290,3610,0,2023-03-10T14:06:39.800155,6277975,790,529,1545,-1039,-576,-253,116,192,-66
291,3611,0,2023-03-10T14:06:39.805157,6277980,790,529,1545,-1039,-576,-253,116,192,-66
292,3612,0,2023-03-10T14:06:39.810030,6277985,794,532,1546,-1032,-578,-247,116,192,-66
293,3613,0,2023-03-10T14:06:39.815796,6277990,794,532,1546,-1032,-578,-247,116,192,-66
294,3614,0,2023-03-10T14:06:39.820423,6277995,794,532,1546,-1032,-578,-247,116,192,-66
295,3615,0,2023-03-10T14:06:39.824948,6277999,794,532,1546,-1032,-578,-247,116,192,-66
296,3616,0,2023-03-10T14:06:39.829421,6278004,798,534,1544,-1033,-575,-251,116,192,-66
297,3617,0,2023-03-10T14:06:39.835001,6278009,798,534,1544,-1033,-575,-251,116,192,-66
298,3618,0,2023-03-10T14:06:39.839412,6278013,798,534,1544,-1033,-575,-251,116,192,-66
299,3619,0,2023-03-10T14:06:39.843816,6278019,798,534,1544,-1033,-575,-251,116,192,-66
300,3620,0,2023-03-10T14:06:39.848242,6278023,798,534,1544,-1033,-575,-251,116,192,-66
301,3621,0,2023-03-10T14:06:39.853435,6278028,787,524,1543,-1036,-574,-233,116,192,-66
302,3622,0,2023-03-10T14:06:39.858808,6278033,787,524,1543,-1036,-574,-233,116,192,-66
303,3623,0,2023-03-10T14:06:39.863329,6278038,787,524,1543,-1036,-574,-233,116,192,-66
304,3624,0,2023-03-10T14:06:39.868452,6278043,787,524,1543,-1036,-574,-233,116,192,-66
305,3625,0,2023-03-10T14:06:39.873245,6278048,802,533,1546,-1030,-564,-247,116,192,-66
306,3626,0,2023-03-10T14:06:39.878326,6278052,802,533,1546,-1030,-564,-247,116,192,-66
307,3627,0,2023-03-10T14:06:39.882736,6278057,802,533,1546,-1030,-564,-247,116,192,-66
308,3628,0,2023-03-10T14:06:39.887370,6278062,802,533,1546,-1030,-564,-247,116,192,-66
309,3629,0,2023-03-10T14:06:39.892542,6278067,798,528,1534,-1031,-575,-239,116,192,-66
310,3630,0,2023-03-10T14:06:39.897175,6278072,798,528,1534,-1031,-575,-239,116,192,-66
311,3631,0,2023-03-10T14:06:39.901811,6278076,798,528,1534,-1031,-575,-239,116,192,-66
312,3632,0,2023-03-10T14:06:39.906353,6278081,798,528,1534,-1031,-575,-239,116,192,-66
313,3633,0,2023-03-10T14:06:39.910841,6278085,795,528,1543,-1020,-581,-235,121,185,-69
314,3634,0,2023-03-10T14:06:39.916083,6278090,795,528,1543,-1020,-581,-235,121,185,-69
315,3635,0,2023-03-10T14:06:39.920565,6278095,795,528,1543,-1020,-581,-235,121,185,-69
316,3636,0,2023-03-10T14:06:39.925003,6278099,795,528,1543,-1020,-581,-235,121,185,-69
317,3637,0,2023-03-10T14:06:39.929917,6278105,802,534,1550,-1029,-577,-238,121,185,-69
318,3638,0,2023-03-10T14:06:39.934243,6278109,802,534,1550,-1029,-577,-238,121,185,-69
319,3639,0,2023-03-10T14:06:39.938702,6278113,802,534,1550,-1029,-577,-238,121,185,-69
320,3640,0,2023-03-10T14:06:39.943327,6278118,802,534,1550,-1029,-577,-238,121,185,-69
321,3641,0,2023-03-10T14:06:39.947680,6278122,802,534,1550,-1029,-577,-238,121,185,-69
322,3642,0,2023-03-10T14:06:39.952979,6278127,787,529,1545,-1036,-579,-229,121,185,-69
323,3643,0,2023-03-10T14:06:39.958835,6278133,787,529,1545,-1036,-579,-229,121,185,-69
324,3644,0,2023-03-10T14:06:39.963645,6278138,787,529,1545,-1036,-579,-229,121,185,-69
325,3645,0,2023-03-10T14:06:39.968559,6278142,787,529,1545,-1036,-579,-229,121,185,-69
326,3646,0,2023-03-10T14:06:39.973211,6278148,806,538,1540,-1032,-569,-269,121,185,-69
327,3647,0,2023-03-10T14:06:39.978333,6278153,806,538,1540,-1032,-569,-269,121,185,-69
328,3648,0,2023-03-10T14:06:39.983027,6278158,806,538,1540,-1032,-569,-269,121,185,-69
329,3649,0,2023-03-10T14:06:39.987686,6278162,806,538,1540,-1032,-569,-269,121,185,-69
330,3650,0,2023-03-10T14:06:39.992955,6278167,791,523,1546,-1025,-580,-209,121,185,-69
331,3651,0,2023-03-10T14:06:39.997978,6278172,791,523,1546,-1025,-580,-209,121,185,-69
332,3652,0,2023-03-10T14:06:40.002758,6278177,791,523,1546,-1025,-580,-209,121,185,-69
333,3653,0,2023-03-10T14:06:40.007391,6278181,791,523,1546,-1025,-580,-209,121,185,-69
334,3654,0,2023-03-10T14:06:40.011891,6278187,798,534,1542,-1036,-575,-277,121,185,-69
335,3655,0,2023-03-10T14:06:40.016765,6278192,798,534,1542,-1036,-575,-277,121,185,-69
336,3656,0,2023-03-10T14:06:40.021283,6278196,798,534,1542,-1036,-575,-277,121,185,-69
337,3657,0,2023-03-10T14:06:40.026748,6278201,798,534,1542,-1036,-575,-277,121,185,-69
338,3658,0,2023-03-10T14:06:40.031126,6278206,797,525,1541,-1037,-580,-233,121,185,-69
339,3659,0,2023-03-10T14:06:40.036643,6278211,797,525,1541,-1037,-580,-233,121,185,-69
340,3660,0,2023-03-10T14:06:40.041137,6278215,797,525,1541,-1037,-580,-233,121,185,-69
341,3661,0,2023-03-10T14:06:40.045966,6278220,797,525,1541,-1037,-580,-233,121,185,-69
342,3662,0,2023-03-10T14:06:40.050547,6278225,788,527,1550,-1015,-577,-233,118,186,-62
343,3663,0,2023-03-10T14:06:40.056058,6278231,788,527,1550,-1015,-577,-233,118,186,-62
344,3664,0,2023-03-10T14:06:40.060479,6278235,788,527,1550,-1015,-577,-233,118,186,-62
345,3665,0,2023-03-10T14:06:40.064976,6278240,788,527,1550,-1015,-577,-233,118,186,-62
346,3666,0,2023-03-10T14:06:40.069443,6278244,799,532,1534,-1047,-576,-283,118,186,-62
347,3667,0,2023-03-10T14:06:40.074719,6278249,799,532,1534,-1047,-576,-283,118,186,-62
348,3668,0,2023-03-10T14:06:40.079302,6278254,799,532,1534,-1047,-576,-283,118,186,-62
349,3669,0,2023-03-10T14:06:40.083846,6278258,799,532,1534,-1047,-576,-283,118,186,-62
350,3670,0,2023-03-10T14:06:40.088402,6278263,799,532,1534,-1047,-576,-283,118,186,-62
351,3671,0,2023-03-10T14:06:40.093539,6278267,792,526,1551,-1025,-583,-244,118,186,-62
352,3672,0,2023-03-10T14:06:40.098466,6278273,792,526,1551,-1025,-583,-244,118,186,-62
353,3673,0,2023-03-10T14:06:40.102890,6278278,792,526,1551,-1025,-583,-244,118,186,-62
354,3674,0,2023-03-10T14:06:40.107371,6278282,792,526,1551,-1025,-583,-244,118,186,-62
355,3675,0,2023-03-10T14:06:40.111809,6278286,802,537,1539,-1043,-557,-261,118,186,-62
356,3676,0,2023-03-10T14:06:40.116934,6278292,802,537,1539,-1043,-557,-261,118,186,-62
357,3677,0,2023-03-10T14:06:40.121536,6278296,802,537,1539,-1043,-557,-261,118,186,-62
358,3678,0,2023-03-10T14:06:40.125908,6278300,802,537,1539,-1043,-557,-261,118,186,-62
359,3679,0,2023-03-10T14:06:40.130223,6278305,788,526,1555,-1029,-551,-211,118,186,-62
360,3680,0,2023-03-10T14:06:40.135665,6278310,788,526,1555,-1029,-551,-211,118,186,-62
361,3681,0,2023-03-10T14:06:40.140046,6278315,788,526,1555,-1029,-551,-211,118,186,-62
362,3682,0,2023-03-10T14:06:40.144516,6278319,788,526,1555,-1029,-551,-211,118,186,-62
363,3683,0,2023-03-10T14:06:40.149327,6278324,791,529,1548,-1031,-569,-263,118,186,-62
364,3684,0,2023-03-10T14:06:40.154189,6278329,791,529,1548,-1031,-569,-263,118,186,-62
365,3685,0,2023-03-10T14:06:40.158765,6278333,791,529,1548,-1031,-569,-263,118,186,-62
366,3686,0,2023-03-10T14:06:40.163421,6278338,791,529,1548,-1031,-569,-263,118,186,-62
367,3687,0,2023-03-10T14:06:40.167911,6278342,791,529,1548,-1031,-569,-263,118,186,-62
368,3688,0,2023-03-10T14:06:40.172202,6278346,806,534,1541,-1048,-577,-259,112,182,-68
369,3689,0,2023-03-10T14:06:40.176906,6278351,806,534,1541,-1048,-577,-259,112,182,-68
370,3690,0,2023-03-10T14:06:40.181371,6278355,806,534,1541,-1048,-577,-259,112,182,-68
371,3691,0,2023-03-10T14:06:40.186403,6278361,806,534,1541,-1048,-577,-259,112,182,-68
372,3692,0,2023-03-10T14:06:40.190907,6278366,783,526,1555,-1022,-581,-189,112,182,-68
373,3693,0,2023-03-10T14:06:40.195755,6278371,783,526,1555,-1022,-581,-189,112,182,-68
374,3694,0,2023-03-10T14:06:40.200428,6278375,783,526,1555,-1022,-581,-189,112,182,-68
375,3695,0,2023-03-10T14:06:40.205183,6278380,783,526,1555,-1022,-581,-189,112,182,-68
376,3696,0,2023-03-10T14:06:40.210011,6278384,804,532,1543,-1046,-575,-278,112,182,-68
377,3697,0,2023-03-10T14:06:40.215323,6278390,804,532,1543,-1046,-575,-278,112,182,-68
378,3698,0,2023-03-10T14:06:40.219746,6278394,804,532,1543,-1046,-575,-278,112,182,-68
379,3699,0,2023-03-10T14:06:40.224546,6278400,804,532,1543,-1046,-575,-278,112,182,-68
380,3700,0,2023-03-10T14:06:40.229890,6278405,799,526,1535,-1037,-576,-239,112,182,-68
381,3701,0,2023-03-10T14:06:40.234170,6278409,799,526,1535,-1037,-576,-239,112,182,-68
382,3702,0,2023-03-10T14:06:40.238667,6278413,799,526,1535,-1037,-576,-239,112,182,-68
383,3703,0,2023-03-10T14:06:40.243196,6278418,799,526,1535,-1037,-576,-239,112,182,-68
384,3704,0,2023-03-10T14:06:40.248177,6278423,799,526,1535,-1037,-576,-239,112,182,-68
385,3705,0,2023-03-10T14:06:40.253110,6278428,791,524,1544,-1035,-582,-255,112,182,-68
386,3706,0,2023-03-10T14:06:40.258238,6278432,791,524,1544,-1035,-582,-255,112,182,-68
387,3707,0,2023-03-10T14:06:40.263523,6278437,791,524,1544,-1035,-582,-255,112,182,-68
388,3708,0,2023-03-10T14:06:40.267972,6278443,791,524,1544,-1035,-582,-255,112,182,-68
389,3709,0,2023-03-10T14:06:40.272257,6278447,804,535,1538,-1043,-568,-261,112,182,-68
390,3710,0,2023-03-10T14:06:40.277223,6278452,804,535,1538,-1043,-568,-261,112,182,-68
391,3711,0,2023-03-10T14:06:40.281918,6278456,804,535,1538,-1043,-568,-261,112,182,-68
392,3712,0,2023-03-10T14:06:40.286499,6278461,804,535,1538,-1043,-568,-261,112,182,-68
393,3713,0,2023-03-10T14:06:40.290967,6278465,783,521,1550,-1019,-575,-185,112,182,-68
394,3714,0,2023-03-10T14:06:40.296433,6278471,783,521,1550,-1019,-575,-185,112,182,-68
395,3715,0,2023-03-10T14:06:40.301189,6278475,783,521,1550,-1019,-575,-185,112,182,-68
396,3716,0,2023-03-10T14:06:40.306394,6278480,783,521,1550,-1019,-575,-185,112,182,-68
397,3717,0,2023-03-10T14:06:40.311066,6278486,783,521,1550,-1019,-575,-185,126,184,-68
398,3718,0,2023-03-10T14:06:40.316106,6278491,783,521,1550,-1019,-575,-185,126,184,-68
399,3719,0,2023-03-10T14:06:40.320801,6278496,783,521,1550,-1019,-575,-185,126,184,-68
400,3720,0,2023-03-10T14:06:40.325272,6278500,783,521,1550,-1019,-575,-185,126,184,-68
401,3721,0,2023-03-10T14:06:40.329992,6278504,807,533,1544,-1037,-587,-251,126,184,-68
402,3722,0,2023-03-10T14:06:40.335034,6278509,807,533,1544,-1037,-587,-251,126,184,-68
403,3723,0,2023-03-10T14:06:40.339316,6278514,807,533,1544,-1037,-587,-251,126,184,-68
404,3724,0,2023-03-10T14:06:40.343741,6278518,807,533,1544,-1037,-587,-251,126,184,-68
405,3725,0,2023-03-10T14:06:40.348239,6278522,807,533,1544,-1037,-587,-251,126,184,-68
406,3726,0,2023-03-10T14:06:40.353420,6278528,789,523,1552,-1022,-565,-219,126,184,-68
407,3727,0,2023-03-10T14:06:40.357939,6278533,789,523,1552,-1022,-565,-219,126,184,-68
408,3728,0,2023-03-10T14:06:40.362505,6278537,789,523,1552,-1022,-565,-219,126,184,-68
409,3729,0,2023-03-10T14:06:40.366933,6278542,789,523,1552,-1022,-565,-219,126,184,-68
410,3730,0,2023-03-10T14:06:40.372026,6278546,806,536,1542,-1047,-561,-286,126,184,-68
411,3731,0,2023-03-10T14:06:40.376926,6278551,806,536,1542,-1047,-561,-286,126,184,-68
412,3732,0,2023-03-10T14:06:40.381339,6278556,806,536,1542,-1047,-561,-286,126,184,-68
413,3733,0,2023-03-10T14:06:40.385723,6278560,806,536,1542,-1047,-561,-286,126,184,-68
414,3734,0,2023-03-10T14:06:40.390204,6278564,784,523,1539,-1036,-556,-228,126,184,-68
415,3735,0,2023-03-10T14:06:40.395846,6278571,784,523,1539,-1036,-556,-228,126,184,-68
416,3736,0,2023-03-10T14:06:40.400290,6278575,784,523,1539,-1036,-556,-228,126,184,-68
417,3737,0,2023-03-10T14:06:40.404816,6278579,784,523,1539,-1036,-556,-228,126,184,-68
418,3738,0,2023-03-10T14:06:40.409427,6278584,784,523,1539,-1036,-556,-228,126,184,-68
419,3739,0,2023-03-10T14:06:40.414505,6278589,796,532,1551,-1046,-573,-275,126,184,-68
420,3740,0,2023-03-10T14:06:40.419888,6278594,796,532,1551,-1046,-573,-275,126,184,-68
421,3741,0,2023-03-10T14:06:40.424609,6278599,796,532,1551,-1046,-573,-275,126,184,-68
422,3742,0,2023-03-10T14:06:40.429207,6278603,796,532,1551,-1046,-573,-275,126,184,-68
423,3743,0,2023-03-10T14:06:40.434220,6278608,799,531,1548,-1032,-578,-238,123,179,-65
424,3744,0,2023-03-10T14:06:40.439369,6278614,799,531,1548,-1032,-578,-238,123,179,-65
425,3745,0,2023-03-10T14:06:40.443970,6278619,799,531,1548,-1032,-578,-238,123,179,-65
426,3746,0,2023-03-10T14:06:40.448436,6278623,799,531,1548,-1032,-578,-238,123,179,-65
427,3747,0,2023-03-10T14:06:40.453701,6278628,786,519,1547,-1010,-586,-206,123,179,-65
428,3748,0,2023-03-10T14:06:40.458943,6278633,786,519,1547,-1010,-586,-206,123,179,-65
429,3749,0,2023-03-10T14:06:40.463426,6278638,786,519,1547,-1010,-586,-206,123,179,-65
430,3750,0,2023-03-10T14:06:40.467994,6278642,786,519,1547,-1010,-586,-206,123,179,-65
431,3751,0,2023-03-10T14:06:40.473069,6278647,807,534,1537,-1044,-589,-279,123,179,-65
432,3752,0,2023-03-10T14:06:40.478418,6278652,807,534,1537,-1044,-589,-279,123,179,-65
433,3753,0,2023-03-10T14:06:40.482998,6278658,807,534,1537,-1044,-589,-279,123,179,-65
434,3754,0,2023-03-10T14:06:40.487633,6278663,807,534,1537,-1044,-589,-279,123,179,-65
435,3755,0,2023-03-10T14:06:40.492297,6278667,797,526,1540,-1024,-590,-231,123,179,-65
436,3756,0,2023-03-10T14:06:40.497391,6278672,797,526,1540,-1024,-590,-231,123,179,-65
437,3757,0,2023-03-10T14:06:40.501764,6278676,797,526,1540,-1024,-590,-231,123,179,-65
438,3758,0,2023-03-10T14:06:40.506280,6278681,797,526,1540,-1024,-590,-231,123,179,-65
439,3759,0,2023-03-10T14:06:40.511330,6278686,799,534,1540,-1034,-573,-252,123,179,-65
440,3760,0,2023-03-10T14:06:40.516957,6278691,799,534,1540,-1034,-573,-252,123,179,-65
441,3761,0,2023-03-10T14:06:40.521243,6278695,799,534,1540,-1034,-573,-252,123,179,-65
442,3762,0,2023-03-10T14:06:40.525833,6278701,799,534,1540,-1034,-573,-252,123,179,-65
443,3763,0,2023-03-10T14:06:40.530204,6278705,793,527,1544,-1040,-579,-255,123,179,-65
444,3764,0,2023-03-10T14:06:40.535604,6278710,793,527,1544,-1040,-579,-255,123,179,-65
445,3765,0,2023-03-10T14:06:40.540966,6278715,793,527,1544,-1040,-579,-255,123,179,-65
446,3766,0,2023-03-10T14:06:40.545426,6278720,793,527,1544,-1040,-579,-255,123,179,-65
447,3767,0,2023-03-10T14:06:40.549863,6278724,793,527,1544,-1040,-579,-255,123,179,-65
448,3768,0,2023-03-10T14:06:40.554804,6278729,790,531,1550,-1032,-577,-244,119,185,-71
449,3769,0,2023-03-10T14:06:40.559498,6278734,790,531,1550,-1032,-577,-244,119,185,-71
450,3770,0,2023-03-10T14:06:40.563879,6278738,790,531,1550,-1032,-577,-244,119,185,-71
451,3771,0,2023-03-10T14:06:40.568465,6278743,790,531,1550,-1032,-577,-244,119,185,-71
452,3772,0,2023-03-10T14:06:40.573008,6278748,793,531,1550,-1047,-575,-250,119,185,-71
453,3773,0,2023-03-10T14:06:40.578294,6278753,793,531,1550,-1047,-575,-250,119,185,-71
454,3774,0,2023-03-10T14:06:40.582709,6278757,793,531,1550,-1047,-575,-250,119,185,-71
455,3775,0,2023-03-10T14:06:40.587912,6278762,793,531,1550,-1047,-575,-250,119,185,-71
456,3776,0,2023-03-10T14:06:40.592886,6278767,790,527,1547,-1024,-588,-229,119,185,-71
457,3777,0,2023-03-10T14:06:40.598083,6278772,790,527,1547,-1024,-588,-229,119,185,-71
458,3778,0,2023-03-10T14:06:40.602334,6278776,790,527,1547,-1024,-588,-229,119,185,-71
459,3779,0,2023-03-10T14:06:40.606981,6278781,790,527,1547,-1024,-588,-229,119,185,-71
460,3780,0,2023-03-10T14:06:40.612033,6278787,799,532,1537,-1037,-571,-237,119,185,-71
461,3781,0,2023-03-10T14:06:40.616575,6278791,799,532,1537,-1037,-571,-237,119,185,-71
462,3782,0,2023-03-10T14:06:40.621114,6278796,799,532,1537,-1037,-571,-237,119,185,-71
463,3783,0,2023-03-10T14:06:40.625625,6278800,799,532,1537,-1037,-571,-237,119,185,-71
464,3784,0,2023-03-10T14:06:40.630273,6278805,803,532,1544,-1024,-551,-246,119,185,-71
465,3785,0,2023-03-10T14:06:40.635572,6278810,803,532,1544,-1024,-551,-246,119,185,-71
466,3786,0,2023-03-10T14:06:40.640020,6278814,803,532,1544,-1024,-551,-246,119,185,-71
467,3787,0,2023-03-10T14:06:40.644393,6278819,803,532,1544,-1024,-551,-246,119,185,-71
468,3788,0,2023-03-10T14:06:40.649057,6278823,803,532,1544,-1024,-551,-246,119,185,-71
469,3789,0,2023-03-10T14:06:40.654233,6278829,792,527,1545,-1039,-560,-245,119,185,-71
470,3790,0,2023-03-10T14:06:40.659425,6278834,792,527,1545,-1039,-560,-245,119,185,-71
471,3791,0,2023-03-10T14:06:40.663932,6278839,792,527,1545,-1039,-560,-245,119,185,-71
472,3792,0,2023-03-10T14:06:40.668323,6278843,792,527,1545,-1039,-560,-245,119,185,-71
473,3793,0,2023-03-10T14:06:40.673246,6278848,800,531,1545,-1037,-568,-244,119,185,-71
474,3794,0,2023-03-10T14:06:40.678344,6278853,800,531,1545,-1037,-568,-244,119,185,-71
475,3795,0,2023-03-10T14:06:40.683434,6278858,800,531,1545,-1037,-568,-244,119,185,-71
476,3796,0,2023-03-10T14:06:40.688148,6278862,800,531,1545,-1037,-568,-244,119,185,-71
477,3797,0,2023-03-10T14:06:40.692655,6278867,795,532,1548,-1039,-574,-246,118,186,-74
478,3798,0,2023-03-10T14:06:40.697794,6278873,795,532,1548,-1039,-574,-246,118,186,-74
479,3799,0,2023-03-10T14:06:40.702441,6278877,795,532,1548,-1039,-574,-246,118,186,-74
480,3800,0,2023-03-10T14:06:40.706776,6278882,795,532,1548,-1039,-574,-246,118,186,-74
481,3801,0,2023-03-10T14:06:40.711127,6278886,795,530,1546,-1034,-572,-249,118,186,-74
482,3802,0,2023-03-10T14:06:40.716307,6278891,795,530,1546,-1034,-572,-249,118,186,-74
483,3803,0,2023-03-10T14:06:40.720713,6278895,795,530,1546,-1034,-572,-249,118,186,-74
484,3804,0,2023-03-10T14:06:40.725385,6278899,795,530,1546,-1034,-572,-249,118,186,-74
485,3805,0,2023-03-10T14:06:40.730531,6278905,799,529,1543,-1025,-575,-241,118,186,-74
486,3806,0,2023-03-10T14:06:40.735441,6278910,799,529,1543,-1025,-575,-241,118,186,-74
487,3807,0,2023-03-10T14:06:40.739968,6278915,799,529,1543,-1025,-575,-241,118,186,-74
488,3808,0,2023-03-10T14:06:40.744265,6278919,799,529,1543,-1025,-575,-241,118,186,-74
489,3809,0,2023-03-10T14:06:40.748900,6278924,799,529,1543,-1025,-575,-241,118,186,-74
490,3810,0,2023-03-10T14:06:40.754113,6278929,799,526,1543,-1021,-577,-248,118,186,-74
491,3811,0,2023-03-10T14:06:40.759318,6278934,799,526,1543,-1021,-577,-248,118,186,-74
492,3812,0,2023-03-10T14:06:40.763774,6278938,799,526,1543,-1021,-577,-248,118,186,-74
493,3813,0,2023-03-10T14:06:40.768178,6278943,799,526,1543,-1021,-577,-248,118,186,-74
494,3814,0,2023-03-10T14:06:40.773112,6278947,794,523,1541,-1022,-576,-237,118,186,-74
495,3815,0,2023-03-10T14:06:40.778277,6278952,794,523,1541,-1022,-576,-237,118,186,-74
496,3816,0,2023-03-10T14:06:40.782711,6278958,794,523,1541,-1022,-576,-237,118,186,-74
497,3817,0,2023-03-10T14:06:40.787107,6278962,794,523,1541,-1022,-576,-237,118,186,-74
498,3818,0,2023-03-10T14:06:40.791894,6278967,799,533,1547,-1033,-578,-256,118,186,-74
499,3819,0,2023-03-10T14:06:40.796401,6278971,799,533,1547,-1033,-578,-256,118,186,-74
500,3820,0,2023-03-10T14:06:40.800868,6278976,799,533,1547,-1033,-578,-256,118,186,-74
501,3821,0,2023-03-10T14:06:40.805357,6278980,799,533,1547,-1033,-578,-256,118,186,-74
502,3822,0,2023-03-10T14:06:40.809878,6278984,799,533,1547,-1033,-578,-256,118,186,-74
503,3823,0,2023-03-10T14:06:40.815281,6278989,795,530,1542,-1038,-577,-247,119,185,-63
504,3824,0,2023-03-10T14:06:40.820289,6278994,795,530,1542,-1038,-577,-247,119,185,-63
505,3825,0,2023-03-10T14:06:40.824622,6279000,795,530,1542,-1038,-577,-247,119,185,-63
506,3826,0,2023-03-10T14:06:40.829602,6279005,795,530,1542,-1038,-577,-247,119,185,-63
507,3827,0,2023-03-10T14:06:40.834656,6279009,793,529,1550,-1032,-577,-238,119,185,-63
508,3828,0,2023-03-10T14:06:40.839799,6279014,793,529,1550,-1032,-577,-238,119,185,-63
509,3829,0,2023-03-10T14:06:40.844962,6279020,793,529,1550,-1032,-577,-238,119,185,-63
510,3830,0,2023-03-10T14:06:40.849637,6279024,793,529,1550,-1032,-577,-238,119,185,-63
511,3831,0,2023-03-10T14:06:40.854817,6279029,798,537,1544,-1029,-572,-244,119,185,-63
512,3832,0,2023-03-10T14:06:40.859813,6279034,798,537,1544,-1029,-572,-244,119,185,-63
513,3833,0,2023-03-10T14:06:40.864489,6279040,798,537,1544,-1029,-572,-244,119,185,-63
514,3834,0,2023-03-10T14:06:40.868786,6279044,798,537,1544,-1029,-572,-244,119,185,-63
515,3835,0,2023-03-10T14:06:40.873322,6279048,788,522,1552,-1031,-572,-226,119,185,-63
516,3836,0,2023-03-10T14:06:40.878492,6279053,788,522,1552,-1031,-572,-226,119,185,-63
517,3837,0,2023-03-10T14:06:40.882863,6279057,788,522,1552,-1031,-572,-226,119,185,-63
518,3838,0,2023-03-10T14:06:40.887740,6279062,788,522,1552,-1031,-572,-226,119,185,-63
519,3839,0,2023-03-10T14:06:40.892599,6279067,806,537,1540,-1036,-574,-277,119,185,-63
520,3840,0,2023-03-10T14:06:40.897547,6279072,806,537,1540,-1036,-574,-277,119,185,-63
521,3841,0,2023-03-10T14:06:40.901902,6279076,806,537,1540,-1036,-574,-277,119,185,-63
522,3842,0,2023-03-10T14:06:40.906436,6279081,806,537,1540,-1036,-574,-277,119,185,-63
523,3843,0,2023-03-10T14:06:40.910772,6279086,791,526,1547,-1032,-573,-205,119,185,-63
524,3844,0,2023-03-10T14:06:40.915565,6279090,791,526,1547,-1032,-573,-205,119,185,-63
525,3845,0,2023-03-10T14:06:40.920094,6279095,791,526,1547,-1032,-573,-205,119,185,-63
526,3846,0,2023-03-10T14:06:40.924453,6279099,791,526,1547,-1032,-573,-205,119,185,-63
527,3847,0,2023-03-10T14:06:40.929080,6279103,791,526,1547,-1032,-573,-205,119,185,-63
528,3848,0,2023-03-10T14:06:40.934209,6279109,792,527,1548,-1019,-577,-239,119,185,-63
529,3849,0,2023-03-10T14:06:40.939065,6279113,792,527,1548,-1019,-577,-239,119,185,-63
530,3850,0,2023-03-10T14:06:40.943616,6279118,792,527,1548,-1019,-577,-239,119,185,-63
531,3851,0,2023-03-10T14:06:40.948278,6279122,792,527,1548,-1019,-577,-239,119,185,-63
532,3852,0,2023-03-10T14:06:40.953258,6279128,801,531,1540,-1054,-581,-274,123,187,-59
533,3853,0,2023-03-10T14:06:40.958426,6279133,801,531,1540,-1054,-581,-274,123,187,-59
534,3854,0,2023-03-10T14:06:40.962947,6279138,801,531,1540,-1054,-581,-274,123,187,-59
535,3855,0,2023-03-10T14:06:40.967553,6279142,801,531,1540,-1054,-581,-274,123,187,-59
536,3856,0,2023-03-10T14:06:40.972067,6279147,797,530,1544,-1031,-573,-245,123,187,-59
537,3857,0,2023-03-10T14:06:40.977141,6279151,797,530,1544,-1031,-573,-245,123,187,-59
538,3858,0,2023-03-10T14:06:40.981855,6279156,797,530,1544,-1031,-573,-245,123,187,-59
539,3859,0,2023-03-10T14:06:40.987184,6279161,797,530,1544,-1031,-573,-245,123,187,-59
540,3860,0,2023-03-10T14:06:40.992493,6279166,800,531,1544,-1044,-574,-251,123,187,-59
541,3861,0,2023-03-10T14:06:40.998261,6279173,800,531,1544,-1044,-574,-251,123,187,-59
542,3862,0,2023-03-10T14:06:41.002819,6279178,800,531,1544,-1044,-574,-251,123,187,-59
543,3863,0,2023-03-10T14:06:41.007528,6279182,800,531,1544,-1044,-574,-251,123,187,-59
544,3864,0,2023-03-10T14:06:41.012380,6279187,794,529,1552,-1041,-583,-245,123,187,-59
545,3865,0,2023-03-10T14:06:41.017128,6279191,794,529,1552,-1041,-583,-245,123,187,-59
546,3866,0,2023-03-10T14:06:41.021668,6279196,794,529,1552,-1041,-583,-245,123,187,-59
547,3867,0,2023-03-10T14:06:41.026081,6279200,794,529,1552,-1041,-583,-245,123,187,-59
548,3868,0,2023-03-10T14:06:41.030954,6279205,800,533,1546,-1042,-574,-250,123,187,-59
549,3869,0,2023-03-10T14:06:41.036499,6279211,800,533,1546,-1042,-574,-250,123,187,-59
550,3870,0,2023-03-10T14:06:41.041013,6279216,800,533,1546,-1042,-574,-250,123,187,-59
551,3871,0,2023-03-10T14:06:41.046234,6279221,800,533,1546,-1042,-574,-250,123,187,-59
552,3872,0,2023-03-10T14:06:41.050678,6279225,797,527,1544,-1040,-586,-238,123,187,-59
553,3873,0,2023-03-10T14:06:41.056441,6279231,797,527,1544,-1040,-586,-238,123,187,-59
554,3874,0,2023-03-10T14:06:41.060980,6279235,797,527,1544,-1040,-586,-238,123,187,-59
555,3875,0,2023-03-10T14:06:41.065387,6279240,797,527,1544,-1040,-586,-238,123,187,-59
556,3876,0,2023-03-10T14:06:41.069749,6279244,797,527,1544,-1040,-586,-238,123,187,-59
557,3877,0,2023-03-10T14:06:41.074638,6279248,800,534,1546,-1025,-575,-238,119,185,-63
558,3878,0,2023-03-10T14:06:41.079537,6279255,800,534,1546,-1025,-575,-238,119,185,-63
559,3879,0,2023-03-10T14:06:41.083966,6279259,800,534,1546,-1025,-575,-238,119,185,-63
560,3880,0,2023-03-10T14:06:41.088933,6279264,800,534,1546,-1025,-575,-238,119,185,-63
561,3881,0,2023-03-10T14:06:41.093968,6279269,790,523,1547,-1016,-580,-209,119,185,-63
562,3882,0,2023-03-10T14:06:41.098889,6279273,790,523,1547,-1016,-580,-209,119,185,-63
563,3883,0,2023-03-10T14:06:41.103516,6279278,790,523,1547,-1016,-580,-209,119,185,-63
564,3884,0,2023-03-10T14:06:41.107892,6279282,790,523,1547,-1016,-580,-209,119,185,-63
565,3885,0,2023-03-10T14:06:41.112908,6279287,799,537,1541,-1032,-548,-260,119,185,-63
566,3886,0,2023-03-10T14:06:41.117749,6279292,799,537,1541,-1032,-548,-260,119,185,-63
567,3887,0,2023-03-10T14:06:41.122499,6279297,799,537,1541,-1032,-548,-260,119,185,-63
568,3888,0,2023-03-10T14:06:41.127232,6279302,799,537,1541,-1032,-548,-260,119,185,-63
569,3889,0,2023-03-10T14:06:41.132059,6279307,796,525,1551,-1040,-556,-210,119,185,-63
570,3890,0,2023-03-10T14:06:41.137641,6279312,796,525,1551,-1040,-556,-210,119,185,-63
571,3891,0,2023-03-10T14:06:41.142323,6279317,796,525,1551,-1040,-556,-210,119,185,-63
572,3892,0,2023-03-10T14:06:41.147262,6279322,796,525,1551,-1040,-556,-210,119,185,-63
573,3893,0,2023-03-10T14:06:41.152173,6279327,796,533,1544,-1026,-567,-262,119,185,-63
574,3894,0,2023-03-10T14:06:41.157511,6279332,796,533,1544,-1026,-567,-262,119,185,-63
575,3895,0,2023-03-10T14:06:41.161881,6279336,796,533,1544,-1026,-567,-262,119,185,-63
576,3896,0,2023-03-10T14:06:41.166290,6279341,796,533,1544,-1026,-567,-262,119,185,-63
577,3897,0,2023-03-10T14:06:41.170677,6279346,795,525,1536,-1047,-583,-240,119,185,-63
578,3898,0,2023-03-10T14:06:41.176172,6279351,795,525,1536,-1047,-583,-240,119,185,-63
579,3899,0,2023-03-10T14:06:41.180768,6279355,795,525,1536,-1047,-583,-240,119,185,-63
580,3900,0,2023-03-10T14:06:41.185274,6279360,795,525,1536,-1047,-583,-240,119,185,-63
581,3901,0,2023-03-10T14:06:41.189704,6279364,795,525,1536,-1047,-583,-240,119,185,-63
582,3902,0,2023-03-10T14:06:41.194132,6279368,798,532,1551,-1018,-577,-251,119,185,-63
583,3903,0,2023-03-10T14:06:41.198578,6279373,798,532,1551,-1018,-577,-251,119,185,-63
584,3904,0,2023-03-10T14:06:41.203325,6279377,798,532,1551,-1018,-577,-251,119,185,-63
585,3905,0,2023-03-10T14:06:41.207698,6279383,798,532,1551,-1018,-577,-251,119,185,-63
586,3906,0,2023-03-10T14:06:41.212838,6279388,802,534,1542,-1054,-576,-252,122,184,-72
587,3907,0,2023-03-10T14:06:41.217745,6279393,802,534,1542,-1054,-576,-252,122,184,-72
588,3908,0,2023-03-10T14:06:41.222439,6279397,802,534,1542,-1054,-576,-252,122,184,-72
589,3909,0,2023-03-10T14:06:41.226827,6279401,802,534,1542,-1054,-576,-252,122,184,-72
590,3910,0,2023-03-10T14:06:41.231606,6279406,784,526,1551,-1011,-579,-197,122,184,-72
591,3911,0,2023-03-10T14:06:41.236135,6279410,784,526,1551,-1011,-579,-197,122,184,-72
592,3912,0,2023-03-10T14:06:41.240574,6279415,784,526,1551,-1011,-579,-197,122,184,-72
593,3913,0,2023-03-10T14:06:41.244930,6279419,784,526,1551,-1011,-579,-197,122,184,-72
594,3914,0,2023-03-10T14:06:41.249382,6279424,784,526,1551,-1011,-579,-197,122,184,-72
595,3915,0,2023-03-10T14:06:41.254385,6279429,795,530,1548,-1044,-582,-272,122,184,-72
596,3916,0,2023-03-10T14:06:41.259664,6279435,795,530,1548,-1044,-582,-272,122,184,-72
597,3917,0,2023-03-10T14:06:41.264489,6279439,795,530,1548,-1044,-582,-272,122,184,-72
598,3918,0,2023-03-10T14:06:41.270198,6279445,795,530,1548,-1044,-582,-272,122,184,-72
599,3919,0,2023-03-10T14:06:41.274810,6279449,807,535,1535,-1044,-580,-262,122,184,-72
600,3920,0,2023-03-10T14:06:41.279909,6279454,807,535,1535,-1044,-580,-262,122,184,-72
601,3921,0,2023-03-10T14:06:41.284740,6279459,807,535,1535,-1044,-580,-262,122,184,-72
602,3922,0,2023-03-10T14:06:41.289312,6279463,807,535,1535,-1044,-580,-262,122,184,-72
603,3923,0,2023-03-10T14:06:41.294473,6279469,785,525,1544,-1022,-576,-194,122,184,-72
604,3924,0,2023-03-10T14:06:41.299619,6279474,785,525,1544,-1022,-576,-194,122,184,-72
605,3925,0,2023-03-10T14:06:41.304317,6279479,785,525,1544,-1022,-576,-194,122,184,-72
606,3926,0,2023-03-10T14:06:41.309095,6279483,785,525,1544,-1022,-576,-194,122,184,-72
607,3927,0,2023-03-10T14:06:41.314278,6279489,801,530,1545,-1036,-576,-268,122,184,-72
608,3928,0,2023-03-10T14:06:41.318874,6279493,801,530,1545,-1036,-576,-268,122,184,-72
609,3929,0,2023-03-10T14:06:41.323479,6279498,801,530,1545,-1036,-576,-268,122,184,-72
610,3930,0,2023-03-10T14:06:41.327912,6279502,801,530,1545,-1036,-576,-268,122,184,-72
611,3931,0,2023-03-10T14:06:41.332735,6279507,803,531,1544,-1030,-585,-250,120,188,-62
612,3932,0,2023-03-10T14:06:41.338074,6279513,803,531,1544,-1030,-585,-250,120,188,-62
613,3933,0,2023-03-10T14:06:41.342496,6279517,803,531,1544,-1030,-585,-250,120,188,-62
614,3934,0,2023-03-10T14:06:41.347279,6279522,803,531,1544,-1030,-585,-250,120,188,-62
615,3935,0,2023-03-10T14:06:41.352193,6279527,785,523,1545,-1028,-567,-215,120,188,-62
616,3936,0,2023-03-10T14:06:41.357282,6279532,785,523,1545,-1028,-567,-215,120,188,-62
617,3937,0,2023-03-10T14:06:41.361439,6279536,785,523,1545,-1028,-567,-215,120,188,-62
618,3938,0,2023-03-10T14:06:41.365887,6279540,785,523,1545,-1028,-567,-215,120,188,-62
619,3939,0,2023-03-10T14:06:41.370780,6279545,785,523,1545,-1028,-567,-215,120,188,-62
620,3940,0,2023-03-10T14:06:41.375424,6279549,812,540,1552,-1039,-567,-287,120,188,-62
621,3941,0,2023-03-10T14:06:41.380880,6279556,812,540,1552,-1039,-567,-287,120,188,-62
622,3942,0,2023-03-10T14:06:41.385343,6279560,812,540,1552,-1039,-567,-287,120,188,-62
623,3943,0,2023-03-10T14:06:41.390278,6279565,812,540,1552,-1039,-567,-287,120,188,-62
624,3944,0,2023-03-10T14:06:41.395341,6279570,793,528,1540,-1028,-569,-202,120,188,-62
625,3945,0,2023-03-10T14:06:41.400296,6279575,793,528,1540,-1028,-569,-202,120,188,-62
626,3946,0,2023-03-10T14:06:41.404634,6279579,793,528,1540,-1028,-569,-202,120,188,-62
627,3947,0,2023-03-10T14:06:41.409288,6279583,793,528,1540,-1028,-569,-202,120,188,-62
628,3948,0,2023-03-10T14:06:41.414288,6279588,789,528,1539,-1021,-577,-224,120,188,-62
629,3949,0,2023-03-10T14:06:41.419371,6279593,789,528,1539,-1021,-577,-224,120,188,-62
630,3950,0,2023-03-10T14:06:41.423978,6279599,789,528,1539,-1021,-577,-224,120,188,-62
631,3951,0,2023-03-10T14:06:41.428368,6279603,789,528,1539,-1021,-577,-224,120,188,-62
632,3952,0,2023-03-10T14:06:41.433533,6279608,806,534,1543,-1045,-581,-279,120,188,-62
633,3953,0,2023-03-10T14:06:41.438738,6279613,806,534,1543,-1045,-581,-279,120,188,-62
634,3954,0,2023-03-10T14:06:41.443300,6279618,806,534,1543,-1045,-581,-279,120,188,-62
635,3955,0,2023-03-10T14:06:41.447831,6279622,806,534,1543,-1045,-581,-279,120,188,-62
636,3956,0,2023-03-10T14:06:41.452843,6279627,799,530,1540,-1017,-570,-215,118,180,-72
637,3957,0,2023-03-10T14:06:41.457744,6279632,799,530,1540,-1017,-570,-215,118,180,-72
638,3958,0,2023-03-10T14:06:41.462294,6279636,799,530,1540,-1017,-570,-215,118,180,-72
639,3959,0,2023-03-10T14:06:41.467314,6279642,799,530,1540,-1017,-570,-215,118,180,-72
640,3960,0,2023-03-10T14:06:41.472287,6279647,799,530,1540,-1017,-570,-215,118,180,-72
641,3961,0,2023-03-10T14:06:41.476797,6279652,799,530,1540,-1017,-570,-215,118,180,-72
642,3962,0,2023-03-10T14:06:41.481179,6279656,799,530,1540,-1017,-570,-215,118,180,-72
643,3963,0,2023-03-10T14:06:41.485715,6279660,799,530,1540,-1017,-570,-215,118,180,-72
644,3964,0,2023-03-10T14:06:41.490017,6279664,799,530,1540,-1017,-570,-215,118,180,-72
645,3965,0,2023-03-10T14:06:41.495169,6279669,805,534,1538,-1053,-589,-289,118,180,-72
646,3966,0,2023-03-10T14:06:41.500223,6279674,805,534,1538,-1053,-589,-289,118,180,-72
647,3967,0,2023-03-10T14:06:41.504840,6279680,805,534,1538,-1053,-589,-289,118,180,-72
648,3968,0,2023-03-10T14:06:41.509459,6279684,805,534,1538,-1053,-589,-289,118,180,-72
649,3969,0,2023-03-10T14:06:41.514645,6279689,796,524,1539,-1035,-588,-219,118,180,-72
650,3970,0,2023-03-10T14:06:41.519459,6279694,796,524,1539,-1035,-588,-219,118,180,-72
651,3971,0,2023-03-10T14:06:41.524044,6279699,796,524,1539,-1035,-588,-219,118,180,-72
652,3972,0,2023-03-10T14:06:41.528410,6279703,796,524,1539,-1035,-588,-219,118,180,-72
653,3973,0,2023-03-10T14:06:41.533235,6279708,794,528,1541,-1034,-579,-240,118,180,-72
654,3974,0,2023-03-10T14:06:41.538249,6279713,794,528,1541,-1034,-579,-240,118,180,-72
655,3975,0,2023-03-10T14:06:41.542612,6279717,794,528,1541,-1034,-579,-240,118,180,-72
656,3976,0,2023-03-10T14:06:41.546992,6279721,794,528,1541,-1034,-579,-240,118,180,-72
657,3977,0,2023-03-10T14:06:41.551638,6279727,801,533,1538,-1052,-586,-248,118,180,-72
658,3978,0,2023-03-10T14:06:41.557174,6279732,801,533,1538,-1052,-586,-248,118,180,-72
659,3979,0,2023-03-10T14:06:41.561671,6279736,801,533,1538,-1052,-586,-248,118,180,-72
660,3980,0,2023-03-10T14:06:41.566443,6279741,801,533,1538,-1052,-586,-248,118,180,-72
661,3981,0,2023-03-10T14:06:41.571099,6279746,801,533,1538,-1052,-586,-248,118,180,-72
662,3982,0,2023-03-10T14:06:41.576206,6279750,788,526,1544,-1026,-585,-231,118,180,-72
663,3983,0,2023-03-10T14:06:41.581843,6279756,788,526,1544,-1026,-585,-231,118,180,-72
664,3984,0,2023-03-10T14:06:41.586444,6279761,788,526,1544,-1026,-585,-231,118,180,-72
665,3985,0,2023-03-10T14:06:41.591399,6279766,803,534,1540,-1043,-575,-270,118,180,-72
666,3986,0,2023-03-10T14:06:41.596400,6279771,803,534,1540,-1043,-575,-270,121,185,-77
667,3987,0,2023-03-10T14:06:41.600854,6279776,803,534,1540,-1043,-575,-270,121,185,-77
668,3988,0,2023-03-10T14:06:41.605287,6279780,803,534,1540,-1043,-575,-270,121,185,-77
669,3989,0,2023-03-10T14:06:41.610066,6279785,803,534,1540,-1043,-575,-270,121,185,-77
670,3990,0,2023-03-10T14:06:41.614928,6279789,786,520,1542,-1034,-571,-192,121,185,-77
671,3991,0,2023-03-10T14:06:41.619834,6279794,786,520,1542,-1034,-571,-192,121,185,-77
672,3992,0,2023-03-10T14:06:41.624117,6279798,786,520,1542,-1034,-571,-192,121,185,-77
673,3993,0,2023-03-10T14:06:41.628632,6279803,786,520,1542,-1034,-571,-192,121,185,-77
674,3994,0,2023-03-10T14:06:41.633621,6279809,800,528,1551,-1031,-555,-258,121,185,-77
675,3995,0,2023-03-10T14:06:41.638746,6279814,800,528,1551,-1031,-555,-258,121,185,-77
676,3996,0,2023-03-10T14:06:41.643123,6279818,800,528,1551,-1031,-555,-258,121,185,-77
677,3997,0,2023-03-10T14:06:41.647603,6279822,800,528,1551,-1031,-555,-258,121,185,-77
678,3998,0,2023-03-10T14:06:41.652585,6279827,805,531,1542,-1043,-566,-247,121,185,-77
679,3999,0,2023-03-10T14:06:41.657862,6279832,805,531,1542,-1043,-566,-247,121,185,-77
680,4000,0,2023-03-10T14:06:41.662264,6279837,805,531,1542,-1043,-566,-247,121,185,-77
681,4001,0,2023-03-10T14:06:41.666749,6279841,805,531,1542,-1043,-566,-247,121,185,-77
682,4002,0,2023-03-10T14:06:41.671197,6279845,805,531,1542,-1043,-566,-247,121,185,-77
683,4003,0,2023-03-10T14:06:41.676296,6279851,782,524,1543,-1009,-567,-199,121,185,-77
684,4004,0,2023-03-10T14:06:41.681637,6279856,782,524,1543,-1009,-567,-199,121,185,-77
685,4005,0,2023-03-10T14:06:41.686152,6279861,782,524,1543,-1009,-567,-199,121,185,-77
686,4006,0,2023-03-10T14:06:41.690728,6279865,782,524,1543,-1009,-567,-199,121,185,-77
687,4007,0,2023-03-10T14:06:41.695634,6279870,802,535,1544,-1044,-577,-264,121,185,-77
688,4008,0,2023-03-10T14:06:41.700655,6279875,802,535,1544,-1044,-577,-264,121,185,-77
689,4009,0,2023-03-10T14:06:41.705149,6279879,802,535,1544,-1044,-577,-264,121,185,-77
690,4010,0,2023-03-10T14:06:41.710281,6279884,802,535,1544,-1044,-577,-264,121,185,-77
691,4011,0,2023-03-10T14:06:41.715605,6279890,795,528,1547,-1041,-585,-224,122,188,-60
692,4012,0,2023-03-10T14:06:41.720506,6279895,795,528,1547,-1041,-585,-224,122,188,-60
693,4013,0,2023-03-10T14:06:41.724872,6279900,795,528,1547,-1041,-585,-224,122,188,-60
694,4014,0,2023-03-10T14:06:41.729312,6279904,795,528,1547,-1041,-585,-224,122,188,-60
695,4015,0,2023-03-10T14:06:41.734291,6279909,794,529,1541,-1032,-576,-238,122,188,-60
696,4016,0,2023-03-10T14:06:41.739446,6279914,794,529,1541,-1032,-576,-238,122,188,-60
697,4017,0,2023-03-10T14:06:41.743858,6279918,794,529,1541,-1032,-576,-238,122,188,-60
698,4018,0,2023-03-10T14:06:41.748747,6279923,794,529,1541,-1032,-576,-238,122,188,-60
699,4019,0,2023-03-10T14:06:41.753973,6279928,799,531,1540,-1046,-573,-255,122,188,-60
700,4020,0,2023-03-10T14:06:41.759174,6279933,799,531,1540,-1046,-573,-255,122,188,-60
701,4021,0,2023-03-10T14:06:41.763543,6279939,799,531,1540,-1046,-573,-255,122,188,-60
702,4022,0,2023-03-10T14:06:41.767973,6279943,799,531,1540,-1046,-573,-255,122,188,-60
703,4023,0,2023-03-10T14:06:41.773149,6279948,788,525,1548,-1030,-583,-231,122,188,-60
704,4024,0,2023-03-10T14:06:41.778359,6279953,788,525,1548,-1030,-583,-231,122,188,-60
705,4025,0,2023-03-10T14:06:41.782730,6279957,788,525,1548,-1030,-583,-231,122,188,-60
706,4026,0,2023-03-10T14:06:41.787261,6279962,788,525,1548,-1030,-583,-231,122,188,-60
707,4027,0,2023-03-10T14:06:41.791534,6279966,808,534,1544,-1051,-576,-265,122,188,-60
708,4028,0,2023-03-10T14:06:41.796368,6279971,808,534,1544,-1051,-576,-265,122,188,-60
709,4029,0,2023-03-10T14:06:41.800886,6279975,808,534,1544,-1051,-576,-265,122,188,-60
710,4030,0,2023-03-10T14:06:41.805646,6279981,808,534,1544,-1051,-576,-265,122,188,-60
711,4031,0,2023-03-10T14:06:41.810291,6279985,808,534,1544,-1051,-576,-265,122,188,-60
712,4032,0,2023-03-10T14:06:41.815244,6279990,788,522,1537,-1036,-583,-195,122,188,-60
713,4033,0,2023-03-10T14:06:41.820308,6279995,788,522,1537,-1036,-583,-195,122,188,-60
714,4034,0,2023-03-10T14:06:41.825077,6280000,788,522,1537,-1036,-583,-195,122,188,-60
715,4035,0,2023-03-10T14:06:41.829518,6280004,788,522,1537,-1036,-583,-195,122,188,-60
716,4036,0,2023-03-10T14:06:41.834438,6280009,799,529,1540,-1030,-581,-259,122,188,-60
717,4037,0,2023-03-10T14:06:41.839541,6280014,799,529,1540,-1030,-581,-259,122,188,-60
718,4038,0,2023-03-10T14:06:41.844290,6280018,799,529,1540,-1030,-581,-259,122,188,-60
719,4039,0,2023-03-10T14:06:41.848940,6280024,799,529,1540,-1030,-581,-259,122,188,-60
720,4040,0,2023-03-10T14:06:41.854325,6280029,801,536,1541,-1045,-565,-240,120,176,-78
721,4041,0,2023-03-10T14:06:41.859134,6280034,801,536,1541,-1045,-565,-240,120,176,-78
722,4042,0,2023-03-10T14:06:41.863764,6280038,801,536,1541,-1045,-565,-240,120,176,-78
723,4043,0,2023-03-10T14:06:41.868163,6280043,801,536,1541,-1045,-565,-240,120,176,-78
724,4044,0,2023-03-10T14:06:41.872696,6280047,788,529,1559,-1014,-558,-203,120,176,-78
725,4045,0,2023-03-10T14:06:41.878404,6280052,788,529,1559,-1014,-558,-203,120,176,-78
726,4046,0,2023-03-10T14:06:41.882973,6280057,788,529,1559,-1014,-558,-203,120,176,-78
727,4047,0,2023-03-10T14:06:41.887378,6280061,788,529,1559,-1014,-558,-203,120,176,-78
728,4048,0,2023-03-10T14:06:41.892527,6280067,803,535,1542,-1047,-569,-278,120,176,-78
729,4049,0,2023-03-10T14:06:41.897324,6280072,803,535,1542,-1047,-569,-278,120,176,-78
730,4050,0,2023-03-10T14:06:41.901962,6280077,803,535,1542,-1047,-569,-278,120,176,-78
731,4051,0,2023-03-10T14:06:41.906664,6280081,803,535,1542,-1047,-569,-278,120,176,-78
732,4052,0,2023-03-10T14:06:41.911141,6280086,803,535,1542,-1047,-569,-278,120,176,-78
733,4053,0,2023-03-10T14:06:41.916275,6280091,797,530,1540,-1046,-579,-228,120,176,-78
734,4054,0,2023-03-10T14:06:41.920933,6280095,797,530,1540,-1046,-579,-228,120,176,-78
735,4055,0,2023-03-10T14:06:41.925685,6280100,797,530,1540,-1046,-579,-228,120,176,-78
736,4056,0,2023-03-10T14:06:41.930314,6280104,797,530,1540,-1046,-579,-228,120,176,-78
737,4057,0,2023-03-10T14:06:41.935360,6280110,799,527,1551,-1025,-573,-241,120,176,-78
738,4058,0,2023-03-10T14:06:41.940614,6280115,799,527,1551,-1025,-573,-241,120,176,-78
739,4059,0,2023-03-10T14:06:41.945286,6280120,799,527,1551,-1025,-573,-241,120,176,-78
740,4060,0,2023-03-10T14:06:41.949704,6280124,799,527,1551,-1025,-573,-241,120,176,-78
741,4061,0,2023-03-10T14:06:41.954924,6280129,802,529,1542,-1044,-582,-249,120,176,-78
742,4062,0,2023-03-10T14:06:41.960067,6280134,802,529,1542,-1044,-582,-249,120,176,-78
743,4063,0,2023-03-10T14:06:41.964388,6280139,802,529,1542,-1044,-582,-249,120,176,-78
744,4064,0,2023-03-10T14:06:41.969407,6280144,802,529,1542,-1044,-582,-249,120,176,-78
745,4065,0,2023-03-10T14:06:41.974633,6280150,793,524,1553,-1025,-586,-225,123,177,-63
746,4066,0,2023-03-10T14:06:41.979791,6280155,793,524,1553,-1025,-586,-225,123,177,-63
747,4067,0,2023-03-10T14:06:41.984255,6280159,793,524,1553,-1025,-586,-225,123,177,-63
748,4068,0,2023-03-10T14:06:41.988802,6280163,793,524,1553,-1025,-586,-225,123,177,-63
749,4069,0,2023-03-10T14:06:41.993259,6280168,805,537,1548,-1040,-574,-270,123,177,-63
750,4070,0,2023-03-10T14:06:41.998282,6280173,805,537,1548,-1040,-574,-270,123,177,-63
751,4071,0,2023-03-10T14:06:42.002880,6280177,805,537,1548,-1040,-574,-270,123,177,-63
752,4072,0,2023-03-10T14:06:42.007258,6280182,805,537,1548,-1040,-574,-270,123,177,-63
753,4073,0,2023-03-10T14:06:42.011898,6280186,805,537,1548,-1040,-574,-270,123,177,-63
754,4074,0,2023-03-10T14:06:42.017032,6280192,788,525,1553,-1012,-576,-198,123,177,-63
755,4075,0,2023-03-10T14:06:42.021900,6280197,788,525,1553,-1012,-576,-198,123,177,-63
756,4076,0,2023-03-10T14:06:42.026422,6280201,788,525,1553,-1012,-576,-198,123,177,-63
757,4077,0,2023-03-10T14:06:42.031564,6280206,788,525,1553,-1012,-576,-198,123,177,-63
758,4078,0,2023-03-10T14:06:42.036927,6280211,796,530,1540,-1031,-580,-249,123,177,-63
759,4079,0,2023-03-10T14:06:42.042296,6280217,796,530,1540,-1031,-580,-249,123,177,-63
760,4080,0,2023-03-10T14:06:42.047094,6280221,796,530,1540,-1031,-580,-249,123,177,-63
761,4081,0,2023-03-10T14:06:42.051576,6280226,796,530,1540,-1031,-580,-249,123,177,-63
762,4082,0,2023-03-10T14:06:42.056153,6280230,796,530,1540,-1031,-580,-249,123,177,-63
763,4083,0,2023-03-10T14:06:42.060828,6280236,796,530,1540,-1031,-580,-249,123,177,-63
764,4084,0,2023-03-10T14:06:42.065739,6280240,796,530,1540,-1031,-580,-249,123,177,-63
765,4085,0,2023-03-10T14:06:42.071171,6280246,796,530,1540,-1031,-580,-249,123,177,-63
766,4086,0,2023-03-10T14:06:42.076377,6280251,792,528,1551,-1018,-575,-185,123,177,-63
767,4087,0,2023-03-10T14:06:42.081878,6280256,792,528,1551,-1018,-575,-185,123,177,-63
768,4088,0,2023-03-10T14:06:42.086559,6280261,792,528,1551,-1018,-575,-185,123,177,-63
769,4089,0,2023-03-10T14:06:42.091501,6280266,792,528,1551,-1018,-575,-185,123,177,-63
770,4090,0,2023-03-10T14:06:42.096249,6280270,792,524,1551,-1030,-574,-239,122,188,-70
771,4091,0,2023-03-10T14:06:42.100692,6280275,792,524,1551,-1030,-574,-239,122,188,-70
772,4092,0,2023-03-10T14:06:42.105219,6280280,792,524,1551,-1030,-574,-239,122,188,-70
773,4093,0,2023-03-10T14:06:42.109769,6280285,792,524,1551,-1030,-574,-239,122,188,-70
774,4094,0,2023-03-10T14:06:42.114818,6280290,801,530,1536,-1048,-564,-272,122,188,-70
775,4095,0,2023-03-10T14:06:42.119651,6280294,801,530,1536,-1048,-564,-272,122,188,-70
776,4096,0,2023-03-10T14:06:42.124073,6280299,801,530,1536,-1048,-564,-272,122,188,-70
777,4097,0,2023-03-10T14:06:42.128600,6280303,801,530,1536,-1048,-564,-272,122,188,-70
778,4098,0,2023-03-10T14:06:42.133358,6280307,797,526,1550,-1032,-571,-226,122,188,-70
779,4099,0,2023-03-10T14:06:42.137886,6280312,797,526,1550,-1032,-571,-226,122,188,-70
780,4100,0,2023-03-10T14:06:42.142217,6280316,797,526,1550,-1032,-571,-226,122,188,-70
781,4101,0,2023-03-10T14:06:42.146812,6280322,797,526,1550,-1032,-571,-226,122,188,-70
782,4102,0,2023-03-10T14:06:42.151927,6280327,798,529,1545,-1044,-569,-263,122,188,-70
783,4103,0,2023-03-10T14:06:42.157084,6280332,798,529,1545,-1044,-569,-263,122,188,-70
784,4104,0,2023-03-10T14:06:42.161731,6280336,798,529,1545,-1044,-569,-263,122,188,-70
785,4105,0,2023-03-10T14:06:42.166132,6280341,798,529,1545,-1044,-569,-263,122,188,-70
786,4106,0,2023-03-10T14:06:42.170828,6280345,798,529,1545,-1044,-569,-263,122,188,-70
787,4107,0,2023-03-10T14:06:42.175397,6280350,795,526,1536,-1046,-578,-222,122,188,-70
788,4108,0,2023-03-10T14:06:42.180491,6280355,795,526,1536,-1046,-578,-222,122,188,-70
789,4109,0,2023-03-10T14:06:42.185123,6280359,795,526,1536,-1046,-578,-222,122,188,-70
790,4110,0,2023-03-10T14:06:42.189713,6280365,795,526,1536,-1046,-578,-222,122,188,-70
791,4111,0,2023-03-10T14:06:42.194827,6280370,793,527,1544,-1021,-583,-230,122,188,-70
792,4112,0,2023-03-10T14:06:42.199862,6280375,793,527,1544,-1021,-583,-230,122,188,-70
793,4113,0,2023-03-10T14:06:42.204194,6280379,793,527,1544,-1021,-583,-230,122,188,-70
794,4114,0,2023-03-10T14:06:42.208663,6280383,793,527,1544,-1021,-583,-230,122,188,-70
795,4115,0,2023-03-10T14:06:42.213239,6280388,799,529,1548,-1043,-580,-259,122,188,-70
796,4116,0,2023-03-10T14:06:42.218199,6280393,799,529,1548,-1043,-580,-259,122,188,-70
797,4117,0,2023-03-10T14:06:42.222739,6280397,799,529,1548,-1043,-580,-259,122,188,-70
798,4118,0,2023-03-10T14:06:42.227215,6280402,799,529,1548,-1043,-580,-259,122,188,-70
799,4119,0,2023-03-10T14:06:42.231834,6280407,799,529,1548,-1043,-580,-259,122,188,-70
800,4120,0,2023-03-10T14:06:42.236891,6280412,799,531,1542,-1031,-576,-236,121,179,-69
801,4121,0,2023-03-10T14:06:42.241698,6280417,799,531,1542,-1031,-576,-236,121,179,-69
802,4122,0,2023-03-10T14:06:42.246212,6280421,799,531,1542,-1031,-576,-236,121,179,-69
803,4123,0,2023-03-10T14:06:42.250613,6280425,799,531,1542,-1031,-576,-236,121,179,-69
804,4124,0,2023-03-10T14:06:42.255309,6280430,796,526,1545,-1043,-576,-234,121,179,-69
805,4125,0,2023-03-10T14:06:42.260039,6280434,796,526,1545,-1043,-576,-234,121,179,-69
806,4126,0,2023-03-10T14:06:42.264421,6280439,796,526,1545,-1043,-576,-234,121,179,-69
807,4127,0,2023-03-10T14:06:42.268925,6280443,796,526,1545,-1043,-576,-234,121,179,-69
808,4128,0,2023-03-10T14:06:42.273437,6280448,802,532,1541,-1040,-575,-238,121,179,-69
809,4129,0,2023-03-10T14:06:42.278578,6280453,802,532,1541,-1040,-575,-238,121,179,-69
810,4130,0,2023-03-10T14:06:42.283411,6280458,802,532,1541,-1040,-575,-238,121,179,-69
811,4131,0,2023-03-10T14:06:42.288208,6280463,802,532,1541,-1040,-575,-238,121,179,-69
812,4132,0,2023-03-10T14:06:42.293383,6280468,797,527,1537,-1038,-578,-227,121,179,-69
813,4133,0,2023-03-10T14:06:42.298767,6280473,797,527,1537,-1038,-578,-227,121,179,-69
814,4134,0,2023-03-10T14:06:42.303522,6280478,797,527,1537,-1038,-578,-227,121,179,-69
815,4135,0,2023-03-10T14:06:42.308092,6280482,797,527,1537,-1038,-578,-227,121,179,-69
816,4136,0,2023-03-10T14:06:42.313011,6280487,800,528,1542,-1031,-578,-232,121,179,-69
817,4137,0,2023-03-10T14:06:42.318243,6280493,800,528,1542,-1031,-578,-232,121,179,-69
818,4138,0,2023-03-10T14:06:42.322771,6280498,800,528,1542,-1031,-578,-232,121,179,-69
819,4139,0,2023-03-10T14:06:42.327196,6280502,800,528,1542,-1031,-578,-232,121,179,-69
820,4140,0,2023-03-10T14:06:42.331428,6280506,800,528,1542,-1031,-578,-232,121,179,-69
821,4141,0,2023-03-10T14:06:42.336645,6280511,797,532,1538,-1036,-568,-226,121,179,-69
822,4142,0,2023-03-10T14:06:42.341538,6280516,797,532,1538,-1036,-568,-226,121,179,-69
823,4143,0,2023-03-10T14:06:42.346107,6280520,797,532,1538,-1036,-568,-226,121,179,-69
824,4144,0,2023-03-10T14:06:42.350422,6280525,797,532,1538,-1036,-568,-226,121,179,-69
825,4145,0,2023-03-10T14:06:42.355454,6280530,799,528,1551,-1033,-569,-233,129,187,-63
826,4146,0,2023-03-10T14:06:42.360210,6280535,799,528,1551,-1033,-569,-233,129,187,-63
827,4147,0,2023-03-10T14:06:42.364884,6280540,799,528,1551,-1033,-569,-233,129,187,-63
828,4148,0,2023-03-10T14:06:42.369476,6280544,799,528,1551,-1033,-569,-233,129,187,-63
829,4149,0,2023-03-10T14:06:42.374697,6280549,796,526,1540,-1028,-572,-234,129,187,-63
830,4150,0,2023-03-10T14:06:42.379734,6280554,796,526,1540,-1028,-572,-234,129,187,-63
831,4151,0,2023-03-10T14:06:42.384176,6280559,796,526,1540,-1028,-572,-234,129,187,-63
832,4152,0,2023-03-10T14:06:42.388481,6280563,796,526,1540,-1028,-572,-234,129,187,-63
833,4153,0,2023-03-10T14:06:42.393836,6280567,804,531,1543,-1031,-570,-234,129,187,-63
834,4154,0,2023-03-10T14:06:42.398899,6280573,804,531,1543,-1031,-570,-234,129,187,-63
835,4155,0,2023-03-10T14:06:42.403363,6280578,804,531,1543,-1031,-570,-234,129,187,-63
836,4156,0,2023-03-10T14:06:42.407814,6280583,804,531,1543,-1031,-570,-234,129,187,-63
837,4157,0,2023-03-10T14:06:42.413073,6280588,790,524,1547,-1018,-572,-210,129,187,-63
838,4158,0,2023-03-10T14:06:42.418047,6280593,790,524,1547,-1018,-572,-210,129,187,-63
839,4159,0,2023-03-10T14:06:42.422591,6280597,790,524,1547,-1018,-572,-210,129,187,-63
840,4160,0,2023-03-10T14:06:42.427007,6280601,790,524,1547,-1018,-572,-210,129,187,-63
841,4161,0,2023-03-10T14:06:42.432415,6280607,805,535,1542,-1033,-576,-259,129,187,-63
842,4162,0,2023-03-10T14:06:42.437782,6280612,805,535,1542,-1033,-576,-259,129,187,-63
843,4163,0,2023-03-10T14:06:42.442254,6280617,805,535,1542,-1033,-576,-259,129,187,-63
844,4164,0,2023-03-10T14:06:42.446791,6280622,805,535,1542,-1033,-576,-259,129,187,-63
845,4165,0,2023-03-10T14:06:42.451768,6280627,805,535,1542,-1033,-576,-259,129,187,-63
846,4166,0,2023-03-10T14:06:42.456851,6280632,798,529,1544,-1024,-577,-204,129,187,-63
847,4167,0,2023-03-10T14:06:42.461297,6280636,798,529,1544,-1024,-577,-204,129,187,-63
848,4168,0,2023-03-10T14:06:42.465657,6280640,798,529,1544,-1024,-577,-204,129,187,-63
849,4169,0,2023-03-10T14:06:42.470208,6280645,798,529,1544,-1024,-577,-204,129,187,-63
850,4170,0,2023-03-10T14:06:42.475280,6280650,797,525,1546,-1022,-578,-228,129,187,-63
851,4171,0,2023-03-10T14:06:42.480251,6280654,797,525,1546,-1022,-578,-228,129,187,-63
852,4172,0,2023-03-10T14:06:42.485034,6280659,797,525,1546,-1022,-578,-228,129,187,-63
853,4173,0,2023-03-10T14:06:42.489883,6280665,797,525,1546,-1022,-578,-228,129,187,-63
854,4174,0,2023-03-10T14:06:42.494841,6280670,804,533,1540,-1045,-587,-266,122,186,-68
855,4175,0,2023-03-10T14:06:42.499919,6280675,804,533,1540,-1045,-587,-266,122,186,-68
856,4176,0,2023-03-10T14:06:42.504475,6280679,804,533,1540,-1045,-587,-266,122,186,-68
857,4177,0,2023-03-10T14:06:42.509217,6280684,804,533,1540,-1045,-587,-266,122,186,-68
858,4178,0,2023-03-10T14:06:42.513719,6280688,796,525,1547,-1027,-575,-231,122,186,-68
859,4179,0,2023-03-10T14:06:42.518888,6280693,796,525,1547,-1027,-575,-231,122,186,-68
860,4180,0,2023-03-10T14:06:42.523530,6280698,796,525,1547,-1027,-575,-231,122,186,-68
861,4181,0,2023-03-10T14:06:42.527935,6280702,796,525,1547,-1027,-575,-231,122,186,-68
862,4182,0,2023-03-10T14:06:42.532187,6280707,796,525,1547,-1027,-575,-231,122,186,-68
863,4183,0,2023-03-10T14:06:42.536852,6280712,802,535,1544,-1033,-570,-244,122,186,-68
864,4184,0,2023-03-10T14:06:42.541986,6280717,802,535,1544,-1033,-570,-244,122,186,-68
865,4185,0,2023-03-10T14:06:42.546545,6280721,802,535,1544,-1033,-570,-244,122,186,-68
866,4186,0,2023-03-10T14:06:42.551858,6280726,802,535,1544,-1033,-570,-244,122,186,-68
867,4187,0,2023-03-10T14:06:42.556129,6280731,793,525,1542,-1018,-581,-217,122,186,-68
868,4188,0,2023-03-10T14:06:42.560703,6280735,793,525,1542,-1018,-581,-217,122,186,-68
869,4189,0,2023-03-10T14:06:42.565199,6280739,793,525,1542,-1018,-581,-217,122,186,-68
870,4190,0,2023-03-10T14:06:42.569709,6280744,793,525,1542,-1018,-581,-217,122,186,-68
871,4191,0,2023-03-10T14:06:42.574681,6280750,803,533,1540,-1043,-556,-270,122,186,-68
872,4192,0,2023-03-10T14:06:42.580179,6280755,803,533,1540,-1043,-556,-270,122,186,-68
873,4193,0,2023-03-10T14:06:42.584918,6280760,803,533,1540,-1043,-556,-270,122,186,-68
874,4194,0,2023-03-10T14:06:42.589372,6280764,803,533,1540,-1043,-556,-270,122,186,-68
875,4195,0,2023-03-10T14:06:42.594322,6280769,795,525,1542,-1026,-562,-203,122,186,-68
876,4196,0,2023-03-10T14:06:42.599181,6280774,795,525,1542,-1026,-562,-203,122,186,-68
877,4197,0,2023-03-10T14:06:42.603460,6280778,795,525,1542,-1026,-562,-203,122,186,-68
878,4198,0,2023-03-10T14:06:42.607921,6280782,795,525,1542,-1026,-562,-203,122,186,-68
879,4199,0,2023-03-10T14:06:42.612480,6280787,795,525,1542,-1026,-562,-203,122,186,-68
880,4200,0,2023-03-10T14:06:42.617168,6280792,794,526,1553,-1012,-573,-225,122,184,-64
881,4201,0,2023-03-10T14:06:42.622106,6280797,794,526,1553,-1012,-573,-225,122,184,-64
882,4202,0,2023-03-10T14:06:42.626581,6280802,794,526,1553,-1012,-573,-225,122,184,-64
883,4203,0,2023-03-10T14:06:42.630914,6280806,794,526,1553,-1012,-573,-225,122,184,-64
884,4204,0,2023-03-10T14:06:42.635850,6280810,808,535,1533,-1056,-576,-259,122,184,-64
885,4205,0,2023-03-10T14:06:42.640840,6280815,808,535,1533,-1056,-576,-259,122,184,-64
886,4206,0,2023-03-10T14:06:42.645298,6280820,808,535,1533,-1056,-576,-259,122,184,-64
887,4207,0,2023-03-10T14:06:42.650284,6280825,808,535,1533,-1056,-576,-259,122,184,-64
888,4208,0,2023-03-10T14:06:42.655329,6280830,791,525,1549,-1020,-572,-200,122,184,-64
889,4209,0,2023-03-10T14:06:42.660646,6280835,791,525,1549,-1020,-572,-200,122,184,-64
890,4210,0,2023-03-10T14:06:42.665321,6280840,791,525,1549,-1020,-572,-200,122,184,-64
891,4211,0,2023-03-10T14:06:42.670706,6280846,791,525,1549,-1020,-572,-200,122,184,-64
892,4212,0,2023-03-10T14:06:42.675764,6280850,803,528,1544,-1036,-574,-260,122,184,-64
893,4213,0,2023-03-10T14:06:42.680783,6280855,803,528,1544,-1036,-574,-260,122,184,-64
894,4214,0,2023-03-10T14:06:42.685428,6280860,803,528,1544,-1036,-574,-260,122,184,-64
895,4215,0,2023-03-10T14:06:42.690193,6280864,803,528,1544,-1036,-574,-260,122,184,-64
896,4216,0,2023-03-10T14:06:42.696016,6280870,800,530,1536,-1034,-581,-245,122,184,-64
897,4217,0,2023-03-10T14:06:42.701296,6280876,800,530,1536,-1034,-581,-245,122,184,-64
898,4218,0,2023-03-10T14:06:42.705892,6280881,800,530,1536,-1034,-581,-245,122,184,-64
899,4219,0,2023-03-10T14:06:42.710570,6280885,800,530,1536,-1034,-581,-245,122,184,-64
900,4220,0,2023-03-10T14:06:42.715846,6280890,786,522,1542,-1012,-571,-213,122,184,-64
901,4221,0,2023-03-10T14:06:42.721065,6280896,786,522,1542,-1012,-571,-213,122,184,-64
902,4222,0,2023-03-10T14:06:42.725856,6280900,786,522,1542,-1012,-571,-213,122,184,-64
903,4223,0,2023-03-10T14:06:42.730314,6280905,786,522,1542,-1012,-571,-213,122,184,-64
904,4224,0,2023-03-10T14:06:42.735091,6280909,802,530,1543,-1038,-586,-269,122,184,-64
905,4225,0,2023-03-10T14:06:42.739735,6280914,802,530,1543,-1038,-586,-269,122,184,-64
906,4226,0,2023-03-10T14:06:42.744409,6280919,802,530,1543,-1038,-586,-269,122,184,-64
907,4227,0,2023-03-10T14:06:42.749225,6280924,802,530,1543,-1038,-586,-269,122,184,-64
908,4228,0,2023-03-10T14:06:42.754418,6280929,802,528,1550,-1026,-591,-232,118,194,-72
909,4229,0,2023-03-10T14:06:42.759533,6280934,802,528,1550,-1026,-591,-232,118,194,-72
910,4230,0,2023-03-10T14:06:42.763930,6280939,802,528,1550,-1026,-591,-232,118,194,-72
911,4231,0,2023-03-10T14:06:42.768779,6280943,802,528,1550,-1026,-591,-232,118,194,-72
912,4232,0,2023-03-10T14:06:42.774056,6280948,798,525,1543,-1036,-561,-228,118,194,-72
913,4233,0,2023-03-10T14:06:42.779150,6280953,798,525,1543,-1036,-561,-228,118,194,-72
914,4234,0,2023-03-10T14:06:42.783629,6280958,798,525,1543,-1036,-561,-228,118,194,-72
915,4235,0,2023-03-10T14:06:42.788282,6280963,798,525,1543,-1036,-561,-228,118,194,-72
916,4236,0,2023-03-10T14:06:42.793460,6280968,801,532,1546,-1038,-567,-239,118,194,-72
917,4237,0,2023-03-10T14:06:42.798547,6280973,801,532,1546,-1038,-567,-239,118,194,-72
918,4238,0,2023-03-10T14:06:42.803074,6280978,801,532,1546,-1038,-567,-239,118,194,-72
919,4239,0,2023-03-10T14:06:42.807862,6280982,801,532,1546,-1038,-567,-239,118,194,-72
920,4240,0,2023-03-10T14:06:42.812800,6280987,801,532,1546,-1038,-567,-239,118,194,-72
921,4241,0,2023-03-10T14:06:42.817302,6280992,795,527,1546,-1029,-573,-235,118,194,-72
922,4242,0,2023-03-10T14:06:42.822418,6280997,795,527,1546,-1029,-573,-235,118,194,-72
923,4243,0,2023-03-10T14:06:42.826922,6281001,795,527,1546,-1029,-573,-235,118,194,-72
924,4244,0,2023-03-10T14:06:42.832070,6281007,795,527,1546,-1029,-573,-235,118,194,-72
925,4245,0,2023-03-10T14:06:42.837146,6281012,795,527,1546,-1029,-573,-235,118,194,-72
926,4246,0,2023-03-10T14:06:42.841968,6281017,795,527,1546,-1029,-573,-235,118,194,-72
927,4247,0,2023-03-10T14:06:42.846424,6281021,795,527,1546,-1029,-573,-235,118,194,-72
928,4248,0,2023-03-10T14:06:42.851603,6281026,795,527,1546,-1029,-573,-235,118,194,-72
929,4249,0,2023-03-10T14:06:42.856946,6281031,801,525,1546,-1019,-579,-237,118,194,-72
930,4250,0,2023-03-10T14:06:42.862231,6281036,801,525,1546,-1019,-579,-237,118,194,-72
931,4251,0,2023-03-10T14:06:42.866850,6281041,801,525,1546,-1019,-579,-237,118,194,-72
932,4252,0,2023-03-10T14:06:42.871532,6281046,801,525,1546,-1019,-579,-237,118,194,-72
933,4253,0,2023-03-10T14:06:42.876598,6281052,811,537,1541,-1034,-574,-251,122,188,-72
934,4254,0,2023-03-10T14:06:42.881795,6281056,811,537,1541,-1034,-574,-251,122,188,-72
935,4255,0,2023-03-10T14:06:42.886406,6281061,811,537,1541,-1034,-574,-251,122,188,-72
936,4256,0,2023-03-10T14:06:42.890703,6281065,811,537,1541,-1034,-574,-251,122,188,-72
937,4257,0,2023-03-10T14:06:42.895578,6281070,785,522,1542,-1006,-575,-169,122,188,-72
938,4258,0,2023-03-10T14:06:42.900858,6281075,785,522,1542,-1006,-575,-169,122,188,-72
939,4259,0,2023-03-10T14:06:42.905275,6281080,785,522,1542,-1006,-575,-169,122,188,-72
940,4260,0,2023-03-10T14:06:42.909663,6281084,785,522,1542,-1006,-575,-169,122,188,-72
941,4261,0,2023-03-10T14:06:42.914548,6281090,800,524,1550,-1020,-579,-245,122,188,-72
942,4262,0,2023-03-10T14:06:42.919199,6281094,800,524,1550,-1020,-579,-245,122,188,-72
943,4263,0,2023-03-10T14:06:42.923419,6281098,800,524,1550,-1020,-579,-245,122,188,-72
944,4264,0,2023-03-10T14:06:42.928097,6281103,800,524,1550,-1020,-579,-245,122,188,-72
945,4265,0,2023-03-10T14:06:42.933408,6281108,815,534,1534,-1046,-577,-264,122,188,-72
946,4266,0,2023-03-10T14:06:42.938432,6281113,815,534,1534,-1046,-577,-264,122,188,-72
947,4267,0,2023-03-10T14:06:42.942949,6281117,815,534,1534,-1046,-577,-264,122,188,-72
948,4268,0,2023-03-10T14:06:42.947735,6281122,815,534,1534,-1046,-577,-264,122,188,-72
949,4269,0,2023-03-10T14:06:42.952829,6281127,815,534,1534,-1046,-577,-264,122,188,-72
950,4270,0,2023-03-10T14:06:42.957485,6281133,791,521,1543,-1016,-574,-203,122,188,-72
951,4271,0,2023-03-10T14:06:42.962655,6281138,791,521,1543,-1016,-574,-203,122,188,-72
952,4272,0,2023-03-10T14:06:42.967283,6281142,791,521,1543,-1016,-574,-203,122,188,-72
953,4273,0,2023-03-10T14:06:42.971740,6281146,791,521,1543,-1016,-574,-203,122,188,-72
954,4274,0,2023-03-10T14:06:42.976786,6281151,805,534,1538,-1049,-563,-257,122,188,-72
955,4275,0,2023-03-10T14:06:42.981970,6281156,805,534,1538,-1049,-563,-257,122,188,-72
956,4276,0,2023-03-10T14:06:42.986938,6281161,805,534,1538,-1049,-563,-257,122,188,-72
957,4277,0,2023-03-10T14:06:42.991428,6281166,805,534,1538,-1049,-563,-257,122,188,-72
958,4278,0,2023-03-10T14:06:42.996368,6281170,794,527,1551,-1030,-558,-219,112,180,-66
959,4279,0,2023-03-10T14:06:43.001506,6281177,794,527,1551,-1030,-558,-219,112,180,-66
960,4280,0,2023-03-10T14:06:43.006239,6281181,794,527,1551,-1030,-558,-219,112,180,-66
961,4281,0,2023-03-10T14:06:43.010639,6281186,794,527,1551,-1030,-558,-219,112,180,-66
962,4282,0,2023-03-10T14:06:43.015280,6281190,798,528,1549,-1036,-567,-262,112,180,-66
963,4283,0,2023-03-10T14:06:43.020513,6281195,798,528,1549,-1036,-567,-262,112,180,-66
964,4284,0,2023-03-10T14:06:43.025136,6281200,798,528,1549,-1036,-567,-262,112,180,-66
965,4285,0,2023-03-10T14:06:43.029706,6281204,798,528,1549,-1036,-567,-262,112,180,-66
966,4286,0,2023-03-10T14:06:43.034367,6281209,805,529,1540,-1045,-576,-222,112,180,-66
967,4287,0,2023-03-10T14:06:43.038872,6281213,805,529,1540,-1045,-576,-222,112,180,-66
968,4288,0,2023-03-10T14:06:43.043564,6281219,805,529,1540,-1045,-576,-222,112,180,-66
969,4289,0,2023-03-10T14:06:43.048857,6281224,805,529,1540,-1045,-576,-222,112,180,-66
970,4290,0,2023-03-10T14:06:43.054255,6281229,789,525,1548,-1007,-582,-195,112,180,-66
971,4291,0,2023-03-10T14:06:43.059460,6281234,789,525,1548,-1007,-582,-195,112,180,-66
972,4292,0,2023-03-10T14:06:43.063824,6281238,789,525,1548,-1007,-582,-195,112,180,-66
973,4293,0,2023-03-10T14:06:43.068430,6281243,789,525,1548,-1007,-582,-195,112,180,-66
974,4294,0,2023-03-10T14:06:43.073231,6281247,789,525,1548,-1007,-582,-195,112,180,-66
975,4295,0,2023-03-10T14:06:43.077859,6281252,801,529,1533,-1043,-587,-262,112,180,-66
976,4296,0,2023-03-10T14:06:43.083008,6281257,801,529,1533,-1043,-587,-262,112,180,-66
977,4297,0,2023-03-10T14:06:43.087691,6281263,801,529,1533,-1043,-587,-262,112,180,-66
978,4298,0,2023-03-10T14:06:43.092168,6281267,801,529,1533,-1043,-587,-262,112,180,-66
979,4299,0,2023-03-10T14:06:43.096727,6281271,802,526,1547,-1028,-588,-230,112,180,-66
980,4300,0,2023-03-10T14:06:43.101907,6281277,802,526,1547,-1028,-588,-230,112,180,-66
981,4301,0,2023-03-10T14:06:43.106558,6281281,802,526,1547,-1028,-588,-230,112,180,-66
982,4302,0,2023-03-10T14:06:43.111983,6281286,802,526,1547,-1028,-588,-230,112,180,-66
983,4303,0,2023-03-10T14:06:43.117277,6281291,802,529,1547,-1034,-578,-246,112,180,-66
984,4304,0,2023-03-10T14:06:43.122812,6281297,802,529,1547,-1034,-578,-246,112,180,-66
985,4305,0,2023-03-10T14:06:43.127520,6281302,802,529,1547,-1034,-578,-246,112,180,-66
986,4306,0,2023-03-10T14:06:43.132095,6281307,802,529,1547,-1034,-578,-246,112,180,-66
987,4307,0,2023-03-10T14:06:43.136944,6281312,796,527,1540,-1036,-579,-244,114,178,-70
988,4308,0,2023-03-10T14:06:43.142217,6281317,796,527,1540,-1036,-579,-244,114,178,-70
989,4309,0,2023-03-10T14:06:43.146922,6281321,796,527,1540,-1036,-579,-244,114,178,-70
990,4310,0,2023-03-10T14:06:43.151466,6281326,796,527,1540,-1036,-579,-244,114,178,-70
991,4311,0,2023-03-10T14:06:43.156722,6281331,797,530,1547,-1012,-575,-242,114,178,-70
992,4312,0,2023-03-10T14:06:43.161633,6281336,797,530,1547,-1012,-575,-242,114,178,-70
993,4313,0,2023-03-10T14:06:43.166380,6281341,797,530,1547,-1012,-575,-242,114,178,-70
994,4314,0,2023-03-10T14:06:43.170817,6281346,797,530,1547,-1012,-575,-242,114,178,-70
995,4315,0,2023-03-10T14:06:43.176419,6281351,793,525,1537,-1044,-569,-223,114,178,-70
996,4316,0,2023-03-10T14:06:43.181382,6281356,793,525,1537,-1044,-569,-223,114,178,-70
997,4317,0,2023-03-10T14:06:43.186148,6281361,793,525,1537,-1044,-569,-223,114,178,-70
998,4318,0,2023-03-10T14:06:43.190631,6281365,793,525,1537,-1044,-569,-223,114,178,-70
999,4319,0,2023-03-10T14:06:43.195228,6281370,800,529,1545,-1022,-568,-229,114,178,-70
1000,4320,0,2023-03-10T14:06:43.200253,6281375,800,529,1545,-1022,-568,-229,114,178,-70
1001,4321,0,2023-03-10T14:06:43.204899,6281379,800,529,1545,-1022,-568,-229,114,178,-70
1002,4322,0,2023-03-10T14:06:43.209371,6281384,800,529,1545,-1022,-568,-229,114,178,-70
1003,4323,0,2023-03-10T14:06:43.213644,6281389,804,526,1541,-1029,-585,-228,114,178,-70
1004,4324,0,2023-03-10T14:06:43.218289,6281393,804,526,1541,-1029,-585,-228,114,178,-70
1005,4325,0,2023-03-10T14:06:43.222615,6281398,804,526,1541,-1029,-585,-228,114,178,-70
1006,4326,0,2023-03-10T14:06:43.227141,6281402,804,526,1541,-1029,-585,-228,114,178,-70
1007,4327,0,2023-03-10T14:06:43.232290,6281407,804,526,1541,-1029,-585,-228,114,178,-70
1008,4328,0,2023-03-10T14:06:43.237138,6281412,798,529,1534,-1021,-577,-224,114,178,-70
1009,4329,0,2023-03-10T14:06:43.242036,6281416,798,529,1534,-1021,-577,-224,114,178,-70
1010,4330,0,2023-03-10T14:06:43.246540,6281421,798,529,1534,-1021,-577,-224,114,178,-70
1011,4331,0,2023-03-10T14:06:43.251100,6281425,798,529,1534,-1021,-577,-224,114,178,-70
1012,4332,0,2023-03-10T14:06:43.255392,6281431,801,528,1547,-1020,-569,-227,116,184,-66
1013,4333,0,2023-03-10T14:06:43.260541,6281436,801,528,1547,-1020,-569,-227,116,184,-66
1014,4334,0,2023-03-10T14:06:43.264922,6281440,801,528,1547,-1020,-569,-227,116,184,-66
1015,4335,0,2023-03-10T14:06:43.269287,6281444,801,528,1547,-1020,-569,-227,116,184,-66
1016,4336,0,2023-03-10T14:06:43.274128,6281449,800,528,1551,-1022,-569,-239,116,184,-66
1017,4337,0,2023-03-10T14:06:43.279136,6281454,800,528,1551,-1022,-569,-239,116,184,-66
1018,4338,0,2023-03-10T14:06:43.284010,6281458,800,528,1551,-1022,-569,-239,116,184,-66
1019,4339,0,2023-03-10T14:06:43.288602,6281463,800,528,1551,-1022,-569,-239,116,184,-66
1020,4340,0,2023-03-10T14:06:43.293762,6281468,797,527,1537,-1039,-585,-249,116,184,-66
1021,4341,0,2023-03-10T14:06:43.299309,6281474,797,527,1537,-1039,-585,-249,116,184,-66
1022,4342,0,2023-03-10T14:06:43.304100,6281479,797,527,1537,-1039,-585,-249,116,184,-66
1023,4343,0,2023-03-10T14:06:43.309059,6281484,797,527,1537,-1039,-585,-249,116,184,-66
1024,4344,0,2023-03-10T14:06:43.313659,6281488,797,524,1542,-1031,-583,-243,116,184,-66
1025,4345,0,2023-03-10T14:06:43.319557,6281494,797,524,1542,-1031,-583,-243,116,184,-66
1026,4346,0,2023-03-10T14:06:43.324029,6281499,797,524,1542,-1031,-583,-243,116,184,-66
1027,4347,0,2023-03-10T14:06:43.328523,6281503,797,524,1542,-1031,-583,-243,116,184,-66
1028,4348,0,2023-03-10T14:06:43.333712,6281508,797,524,1542,-1031,-583,-243,116,184,-66
1029,4349,0,2023-03-10T14:06:43.338297,6281512,802,531,1545,-1032,-585,-242,116,184,-66
1030,4350,0,2023-03-10T14:06:43.343216,6281518,802,531,1545,-1032,-585,-242,116,184,-66
1031,4351,0,2023-03-10T14:06:43.347741,6281523,802,531,1545,-1032,-585,-242,116,184,-66
1032,4352,0,2023-03-10T14:06:43.352862,6281528,802,531,1545,-1032,-585,-242,116,184,-66
1033,4353,0,2023-03-10T14:06:43.358181,6281533,799,521,1533,-1026,-584,-234,116,184,-66
1034,4354,0,2023-03-10T14:06:43.363301,6281538,799,521,1533,-1026,-584,-234,116,184,-66
1035,4355,0,2023-03-10T14:06:43.367741,6281542,799,521,1533,-1026,-584,-234,116,184,-66
1036,4356,0,2023-03-10T14:06:43.372243,6281547,799,521,1533,-1026,-584,-234,116,184,-66
1037,4357,0,2023-03-10T14:06:43.377317,6281551,798,527,1537,-1029,-562,-238,116,184,-66
1038,4358,0,2023-03-10T14:06:43.382264,6281556,798,527,1537,-1029,-562,-238,116,184,-66
1039,4359,0,2023-03-10T14:06:43.386740,6281562,798,527,1537,-1029,-562,-238,116,184,-66
1040,4360,0,2023-03-10T14:06:43.391152,6281566,798,527,1537,-1029,-562,-238,116,184,-66
1041,4361,0,2023-03-10T14:06:43.396464,6281571,808,530,1549,-1029,-553,-242,125,181,-69
1042,4362,0,2023-03-10T14:06:43.400806,6281576,808,530,1549,-1029,-553,-242,125,181,-69
1043,4363,0,2023-03-10T14:06:43.405331,6281580,808,530,1549,-1029,-553,-242,125,181,-69
1044,4364,0,2023-03-10T14:06:43.409700,6281584,808,530,1549,-1029,-553,-242,125,181,-69
1045,4365,0,2023-03-10T14:06:43.414739,6281589,795,526,1533,-1041,-564,-229,125,181,-69
1046,4366,0,2023-03-10T14:06:43.419873,6281594,795,526,1533,-1041,-564,-229,125,181,-69
1047,4367,0,2023-03-10T14:06:43.424344,6281600,795,526,1533,-1041,-564,-229,125,181,-69
1048,4368,0,2023-03-10T14:06:43.428688,6281604,795,526,1533,-1041,-564,-229,125,181,-69
1049,4369,0,2023-03-10T14:06:43.433191,6281608,795,526,1533,-1041,-564,-229,125,181,-69
1050,4370,0,2023-03-10T14:06:43.437682,6281613,802,530,1538,-1037,-578,-238,125,181,-69
1051,4371,0,2023-03-10T14:06:43.442606,6281617,802,530,1538,-1037,-578,-238,125,181,-69
1052,4372,0,2023-03-10T14:06:43.447344,6281622,802,530,1538,-1037,-578,-238,125,181,-69
1053,4373,0,2023-03-10T14:06:43.451898,6281626,802,530,1538,-1037,-578,-238,125,181,-69
1054,4374,0,2023-03-10T14:06:43.456936,6281631,797,527,1551,-1029,-578,-243,125,181,-69
1055,4375,0,2023-03-10T14:06:43.461915,6281636,797,527,1551,-1029,-578,-243,125,181,-69
1056,4376,0,2023-03-10T14:06:43.466387,6281641,797,527,1551,-1029,-578,-243,125,181,-69
1057,4377,0,2023-03-10T14:06:43.471457,6281647,797,527,1551,-1029,-578,-243,125,181,-69
1058,4378,0,2023-03-10T14:06:43.476521,6281651,801,527,1530,-1042,-583,-241,125,181,-69
1059,4379,0,2023-03-10T14:06:43.481663,6281656,801,527,1530,-1042,-583,-241,125,181,-69
1060,4380,0,2023-03-10T14:06:43.486234,6281661,801,527,1530,-1042,-583,-241,125,181,-69
1061,4381,0,2023-03-10T14:06:43.490514,6281665,801,527,1530,-1042,-583,-241,125,181,-69
1062,4382,0,2023-03-10T14:06:43.495559,6281670,799,526,1536,-1031,-580,-237,125,181,-69
1063,4383,0,2023-03-10T14:06:43.501036,6281675,799,526,1536,-1031,-580,-237,125,181,-69
1064,4384,0,2023-03-10T14:06:43.505397,6281680,799,526,1536,-1031,-580,-237,125,181,-69
1065,4385,0,2023-03-10T14:06:43.510390,6281686,799,526,1536,-1031,-580,-237,125,181,-69
1066,4386,0,2023-03-10T14:06:43.515601,6281691,800,527,1550,-1028,-575,-212,118,184,-66
1067,4387,0,2023-03-10T14:06:43.521068,6281696,800,527,1550,-1028,-575,-212,118,184,-66
1068,4388,0,2023-03-10T14:06:43.525547,6281700,800,527,1550,-1028,-575,-212,118,184,-66
1069,4389,0,2023-03-10T14:06:43.530064,6281705,800,527,1550,-1028,-575,-212,118,184,-66
1070,4390,0,2023-03-10T14:06:43.535246,6281710,797,521,1540,-1024,-573,-224,118,184,-66
1071,4391,0,2023-03-10T14:06:43.539845,6281714,797,521,1540,-1024,-573,-224,118,184,-66
1072,4392,0,2023-03-10T14:06:43.544337,6281719,797,521,1540,-1024,-573,-224,118,184,-66
1073,4393,0,2023-03-10T14:06:43.548840,6281723,797,521,1540,-1024,-573,-224,118,184,-66
1074,4394,0,2023-03-10T14:06:43.554144,6281729,810,533,1541,-1027,-565,-251,118,184,-66
1075,4395,0,2023-03-10T14:06:43.559211,6281734,810,533,1541,-1027,-565,-251,118,184,-66
1076,4396,0,2023-03-10T14:06:43.564009,6281739,810,533,1541,-1027,-565,-251,118,184,-66
1077,4397,0,2023-03-10T14:06:43.568325,6281743,810,533,1541,-1027,-565,-251,118,184,-66
1078,4398,0,2023-03-10T14:06:43.573894,6281748,810,533,1541,-1027,-565,-251,118,184,-66
1079,4399,0,2023-03-10T14:06:43.578324,6281753,784,523,1542,-1024,-560,-186,118,184,-66
1080,4400,0,2023-03-10T14:06:43.583406,6281758,784,523,1542,-1024,-560,-186,118,184,-66
1081,4401,0,2023-03-10T14:06:43.588021,6281762,784,523,1542,-1024,-560,-186,118,184,-66
1082,4402,0,2023-03-10T14:06:43.592454,6281767,784,523,1542,-1024,-560,-186,118,184,-66
1083,4403,0,2023-03-10T14:06:43.597310,6281772,803,528,1546,-1030,-558,-261,118,184,-66
1084,4404,0,2023-03-10T14:06:43.602601,6281778,803,528,1546,-1030,-558,-261,118,184,-66
1085,4405,0,2023-03-10T14:06:43.607430,6281782,803,528,1546,-1030,-558,-261,118,184,-66
1086,4406,0,2023-03-10T14:06:43.612140,6281787,803,528,1546,-1030,-558,-261,118,184,-66
1087,4407,0,2023-03-10T14:06:43.616605,6281791,807,527,1545,-1044,-575,-256,118,184,-66
1088,4408,0,2023-03-10T14:06:43.621660,6281796,807,527,1545,-1044,-575,-256,118,184,-66
1089,4409,0,2023-03-10T14:06:43.626200,6281801,807,527,1545,-1044,-575,-256,118,184,-66
1090,4410,0,2023-03-10T14:06:43.631284,6281806,807,527,1545,-1044,-575,-256,118,184,-66
1091,4411,0,2023-03-10T14:06:43.635684,6281810,797,529,1532,-1020,-567,-233,109,181,-69
1092,4412,0,2023-03-10T14:06:43.640842,6281816,797,529,1532,-1020,-567,-233,109,181,-69
1093,4413,0,2023-03-10T14:06:43.645394,6281820,797,529,1532,-1020,-567,-233,109,181,-69
1094,4414,0,2023-03-10T14:06:43.649994,6281825,797,529,1532,-1020,-567,-233,109,181,-69
1095,4415,0,2023-03-10T14:06:43.655106,6281830,801,523,1551,-1034,-569,-244,109,181,-69
1096,4416,0,2023-03-10T14:06:43.660261,6281835,801,523,1551,-1034,-569,-244,109,181,-69
1097,4417,0,2023-03-10T14:06:43.664983,6281839,801,523,1551,-1034,-569,-244,109,181,-69
1098,4418,0,2023-03-10T14:06:43.670275,6281845,801,523,1551,-1034,-569,-244,109,181,-69
1099,4419,0,2023-03-10T14:06:43.675287,6281850,798,529,1542,-1027,-575,-248,109,181,-69
1100,4420,0,2023-03-10T14:06:43.680393,6281854,798,529,1542,-1027,-575,-248,109,181,-69
1101,4421,0,2023-03-10T14:06:43.684760,6281860,798,529,1542,-1027,-575,-248,109,181,-69
1102,4422,0,2023-03-10T14:06:43.688977,6281864,798,529,1542,-1027,-575,-248,109,181,-69
1103,4423,0,2023-03-10T14:06:43.693566,6281868,798,529,1542,-1027,-575,-248,109,181,-69
1104,4424,0,2023-03-10T14:06:43.698132,6281873,798,525,1542,-1038,-574,-243,109,181,-69
1105,4425,0,2023-03-10T14:06:43.703030,6281878,798,525,1542,-1038,-574,-243,109,181,-69
1106,4426,0,2023-03-10T14:06:43.707422,6281882,798,525,1542,-1038,-574,-243,109,181,-69
1107,4427,0,2023-03-10T14:06:43.712427,6281887,798,525,1542,-1038,-574,-243,109,181,-69
1108,4428,0,2023-03-10T14:06:43.716851,6281891,798,525,1542,-1038,-574,-243,109,181,-69
1109,4429,0,2023-03-10T14:06:43.721346,6281896,798,525,1542,-1038,-574,-243,109,181,-69
1110,4430,0,2023-03-10T14:06:43.726235,6281901,798,525,1542,-1038,-574,-243,109,181,-69
1111,4431,0,2023-03-10T14:06:43.730844,6281906,798,525,1542,-1038,-574,-243,109,181,-69
1112,4432,0,2023-03-10T14:06:43.736323,6281911,800,522,1541,-1038,-583,-229,109,181,-69
1113,4433,0,2023-03-10T14:06:43.741156,6281916,800,522,1541,-1038,-583,-229,109,181,-69
1114,4434,0,2023-03-10T14:06:43.746064,6281921,800,522,1541,-1038,-583,-229,109,181,-69
1115,4435,0,2023-03-10T14:06:43.750548,6281925,800,522,1541,-1038,-583,-229,109,181,-69
1116,4436,0,2023-03-10T14:06:43.755601,6281930,808,529,1539,-1022,-578,-235,109,181,-69
1117,4437,0,2023-03-10T14:06:43.760445,6281935,808,529,1539,-1022,-578,-235,109,181,-69
1118,4438,0,2023-03-10T14:06:43.765017,6281939,808,529,1539,-1022,-578,-235,109,181,-69
1119,4439,0,2023-03-10T14:06:43.770100,6281945,808,529,1539,-1022,-578,-235,109,181,-69
1120,4440,0,2023-03-10T14:06:43.775090,6281950,789,520,1534,-1026,-562,-212,121,187,-59
1121,4441,0,2023-03-10T14:06:43.780015,6281955,789,520,1534,-1026,-562,-212,121,187,-59
1122,4442,0,2023-03-10T14:06:43.784437,6281959,789,520,1534,-1026,-562,-212,121,187,-59
1123,4443,0,2023-03-10T14:06:43.788829,6281964,789,520,1534,-1026,-562,-212,121,187,-59
1124,4444,0,2023-03-10T14:06:43.793181,6281968,789,520,1534,-1026,-562,-212,121,187,-59
1125,4445,0,2023-03-10T14:06:43.797441,6281972,812,538,1552,-1033,-551,-268,121,187,-59
1126,4446,0,2023-03-10T14:06:43.802500,6281977,812,538,1552,-1033,-551,-268,121,187,-59
1127,4447,0,2023-03-10T14:06:43.807082,6281981,812,538,1552,-1033,-551,-268,121,187,-59
1128,4448,0,2023-03-10T14:06:43.811775,6281987,812,538,1552,-1033,-551,-268,121,187,-59
1129,4449,0,2023-03-10T14:06:43.816685,6281992,798,525,1542,-1035,-558,-199,121,187,-59
1130,4450,0,2023-03-10T14:06:43.821860,6281997,798,525,1542,-1035,-558,-199,121,187,-59
1131,4451,0,2023-03-10T14:06:43.826380,6282001,798,525,1542,-1035,-558,-199,121,187,-59
1132,4452,0,2023-03-10T14:06:43.831037,6282006,798,525,1542,-1035,-558,-199,121,187,-59
1133,4453,0,2023-03-10T14:06:43.836197,6282011,791,523,1540,-1020,-572,-217,121,187,-59
1134,4454,0,2023-03-10T14:06:43.841433,6282016,791,523,1540,-1020,-572,-217,121,187,-59
1135,4455,0,2023-03-10T14:06:43.845886,6282020,791,523,1540,-1020,-572,-217,121,187,-59
1136,4456,0,2023-03-10T14:06:43.850388,6282025,791,523,1540,-1020,-572,-217,121,187,-59
1137,4457,0,2023-03-10T14:06:43.854898,6282030,810,534,1545,-1046,-584,-288,121,187,-59
1138,4458,0,2023-03-10T14:06:43.860032,6282035,810,534,1545,-1046,-584,-288,121,187,-59
1139,4459,0,2023-03-10T14:06:43.864697,6282039,810,534,1545,-1046,-584,-288,121,187,-59
1140,4460,0,2023-03-10T14:06:43.869940,6282045,810,534,1545,-1046,-584,-288,121,187,-59
1141,4461,0,2023-03-10T14:06:43.874877,6282050,799,524,1538,-1032,-581,-209,121,187,-59
1142,4462,0,2023-03-10T14:06:43.879900,6282054,799,524,1538,-1032,-581,-209,121,187,-59
1143,4463,0,2023-03-10T14:06:43.884463,6282059,799,524,1538,-1032,-581,-209,121,187,-59
1144,4464,0,2023-03-10T14:06:43.888809,6282063,799,524,1538,-1032,-581,-209,121,187,-59
1145,4465,0,2023-03-10T14:06:43.893132,6282067,799,524,1538,-1032,-581,-209,121,187,-59
1146,4466,0,2023-03-10T14:06:43.897697,6282073,795,527,1548,-1010,-574,-219,127,183,-71
1147,4467,0,2023-03-10T14:06:43.902755,6282078,795,527,1548,-1010,-574,-219,127,183,-71
1148,4468,0,2023-03-10T14:06:43.907106,6282082,795,527,1548,-1010,-574,-219,127,183,-71
1149,4469,0,2023-03-10T14:06:43.911821,6282086,795,527,1548,-1010,-574,-219,127,183,-71
1150,4470,0,2023-03-10T14:06:43.917037,6282092,805,536,1539,-1041,-582,-275,127,183,-71
1151,4471,0,2023-03-10T14:06:43.921540,6282096,805,536,1539,-1041,-582,-275,127,183,-71
1152,4472,0,2023-03-10T14:06:43.925876,6282100,805,536,1539,-1041,-582,-275,127,183,-71
1153,4473,0,2023-03-10T14:06:43.930312,6282105,805,536,1539,-1041,-582,-275,127,183,-71
1154,4474,0,2023-03-10T14:06:43.935212,6282109,793,529,1543,-1021,-580,-209,127,183,-71
1155,4475,0,2023-03-10T14:06:43.940197,6282115,793,529,1543,-1021,-580,-209,127,183,-71
1156,4476,0,2023-03-10T14:06:43.944993,6282120,793,529,1543,-1021,-580,-209,127,183,-71
1157,4477,0,2023-03-10T14:06:43.949241,6282124,793,529,1543,-1021,-580,-209,127,183,-71
1158,4478,0,2023-03-10T14:06:43.953748,6282129,793,529,1543,-1021,-580,-209,127,183,-71
1159,4479,0,2023-03-10T14:06:43.958517,6282133,800,528,1547,-1024,-578,-248,127,183,-71
1160,4480,0,2023-03-10T14:06:43.963729,6282138,800,528,1547,-1024,-578,-248,127,183,-71
1161,4481,0,2023-03-10T14:06:43.968311,6282143,800,528,1547,-1024,-578,-248,127,183,-71
1162,4482,0,2023-03-10T14:06:43.973957,6282148,800,528,1547,-1024,-578,-248,127,183,-71
1163,4483,0,2023-03-10T14:06:43.978447,6282153,804,532,1535,-1045,-562,-250,127,183,-71
1164,4484,0,2023-03-10T14:06:43.983362,6282158,804,532,1535,-1045,-562,-250,127,183,-71
1165,4485,0,2023-03-10T14:06:43.987734,6282163,804,532,1535,-1045,-562,-250,127,183,-71
1166,4486,0,2023-03-10T14:06:43.992333,6282167,804,532,1535,-1045,-562,-250,127,183,-71
1167,4487,0,2023-03-10T14:06:43.997360,6282172,789,523,1542,-1020,-560,-195,127,183,-71
1168,4488,0,2023-03-10T14:06:44.002592,6282177,789,523,1542,-1020,-560,-195,127,183,-71
1169,4489,0,2023-03-10T14:06:44.007129,6282182,789,523,1542,-1020,-560,-195,127,183,-71
1170,4490,0,2023-03-10T14:06:44.011854,6282186,789,523,1542,-1020,-560,-195,127,183,-71
1171,4491,0,2023-03-10T14:06:44.017034,6282191,806,530,1546,-1041,-570,-264,127,183,-71
1172,4492,0,2023-03-10T14:06:44.021955,6282196,806,530,1546,-1041,-570,-264,127,183,-71
1173,4493,0,2023-03-10T14:06:44.026373,6282202,806,530,1546,-1041,-570,-264,127,183,-71
1174,4494,0,2023-03-10T14:06:44.031242,6282206,806,530,1546,-1041,-570,-264,127,183,-71
1175,4495,0,2023-03-10T14:06:44.035676,6282210,799,525,1543,-1037,-579,-229,114,176,-66
1176,4496,0,2023-03-10T14:06:44.040172,6282215,799,525,1543,-1037,-579,-229,114,176,-66
1177,4497,0,2023-03-10T14:06:44.044743,6282219,799,525,1543,-1037,-579,-229,114,176,-66
1178,4498,0,2023-03-10T14:06:44.049800,6282224,799,525,1543,-1037,-579,-229,114,176,-66
1179,4499,0,2023-03-10T14:06:44.054898,6282229,792,520,1547,-1019,-574,-224,114,176,-66
1180,4500,0,2023-03-10T14:06:44.060048,6282234,792,520,1547,-1019,-574,-224,114,176,-66
1181,4501,0,2023-03-10T14:06:44.064576,6282240,792,520,1547,-1019,-574,-224,114,176,-66
1182,4502,0,2023-03-10T14:06:44.069342,6282244,792,520,1547,-1019,-574,-224,114,176,-66
1183,4503,0,2023-03-10T14:06:44.074716,6282250,808,534,1544,-1048,-572,-270,114,176,-66
1184,4504,0,2023-03-10T14:06:44.079698,6282254,808,534,1544,-1048,-572,-270,114,176,-66
1185,4505,0,2023-03-10T14:06:44.084320,6282259,808,534,1544,-1048,-572,-270,114,176,-66
1186,4506,0,2023-03-10T14:06:44.088779,6282263,808,534,1544,-1048,-572,-270,114,176,-66
1187,4507,0,2023-03-10T14:06:44.094010,6282269,808,534,1544,-1048,-572,-270,114,176,-66
1188,4508,0,2023-03-10T14:06:44.098551,6282273,796,525,1540,-1027,-580,-219,114,176,-66
1189,4509,0,2023-03-10T14:06:44.103516,6282278,796,525,1540,-1027,-580,-219,114,176,-66
1190,4510,0,2023-03-10T14:06:44.107970,6282283,796,525,1540,-1027,-580,-219,114,176,-66
1191,4511,0,2023-03-10T14:06:44.112687,6282287,796,525,1540,-1027,-580,-219,114,176,-66
1192,4512,0,2023-03-10T14:06:44.117076,6282292,799,531,1548,-1025,-571,-257,114,176,-66
1193,4513,0,2023-03-10T14:06:44.122176,6282297,799,531,1548,-1025,-571,-257,114,176,-66
1194,4514,0,2023-03-10T14:06:44.126579,6282301,799,531,1548,-1025,-571,-257,114,176,-66
1195,4515,0,2023-03-10T14:06:44.130982,6282306,799,531,1548,-1025,-571,-257,114,176,-66
1196,4516,0,2023-03-10T14:06:44.136075,6282311,803,527,1539,-1039,-569,-228,114,176,-66
1197,4517,0,2023-03-10T14:06:44.141716,6282316,803,527,1539,-1039,-569,-228,114,176,-66
1198,4518,0,2023-03-10T14:06:44.146612,6282321,803,527,1539,-1039,-569,-228,114,176,-66
1199,4519,0,2023-03-10T14:06:44.151485,6282327,803,527,1539,-1039,-569,-228,114,176,-66
1200,4520,0,2023-03-10T14:06:44.156115,6282331,790,525,1552,-1019,-574,-216,127,187,-69
1201,4521,0,2023-03-10T14:06:44.161537,6282336,790,525,1552,-1019,-574,-216,127,187,-69
1202,4522,0,2023-03-10T14:06:44.166445,6282341,790,525,1552,-1019,-574,-216,127,187,-69
1203,4523,0,2023-03-10T14:06:44.170852,6282346,790,525,1552,-1019,-574,-216,127,187,-69
1204,4524,0,2023-03-10T14:06:44.175893,6282351,801,528,1534,-1058,-567,-260,127,187,-69
1205,4525,0,2023-03-10T14:06:44.181005,6282355,801,528,1534,-1058,-567,-260,127,187,-69
1206,4526,0,2023-03-10T14:06:44.185686,6282360,801,528,1534,-1058,-567,-260,127,187,-69
1207,4527,0,2023-03-10T14:06:44.190443,6282364,801,528,1534,-1058,-567,-260,127,187,-69
1208,4528,0,2023-03-10T14:06:44.195414,6282371,807,525,1551,-1028,-558,-241,127,187,-69
1209,4529,0,2023-03-10T14:06:44.200794,6282376,807,525,1551,-1028,-558,-241,127,187,-69
1210,4530,0,2023-03-10T14:06:44.205180,6282380,807,525,1551,-1028,-558,-241,127,187,-69
1211,4531,0,2023-03-10T14:06:44.209482,6282384,807,525,1551,-1028,-558,-241,127,187,-69
1212,4532,0,2023-03-10T14:06:44.214349,6282389,807,525,1551,-1028,-558,-241,127,187,-69
1213,4533,0,2023-03-10T14:06:44.219228,6282394,805,531,1542,-1029,-563,-247,127,187,-69
1214,4534,0,2023-03-10T14:06:44.223716,6282398,805,531,1542,-1029,-563,-247,127,187,-69
1215,4535,0,2023-03-10T14:06:44.228146,6282403,805,531,1542,-1029,-563,-247,127,187,-69
1216,4536,0,2023-03-10T14:06:44.232707,6282407,805,531,1542,-1029,-563,-247,127,187,-69
1217,4537,0,2023-03-10T14:06:44.237846,6282413,790,522,1532,-1027,-567,-204,127,187,-69
1218,4538,0,2023-03-10T14:06:44.242988,6282418,790,522,1532,-1027,-567,-204,127,187,-69
1219,4539,0,2023-03-10T14:06:44.247659,6282423,790,522,1532,-1027,-567,-204,127,187,-69
1220,4540,0,2023-03-10T14:06:44.251998,6282427,790,522,1532,-1027,-567,-204,127,187,-69
1221,4541,0,2023-03-10T14:06:44.256530,6282431,790,522,1532,-1027,-567,-204,127,187,-69
1222,4542,0,2023-03-10T14:06:44.261041,6282436,790,522,1532,-1027,-567,-204,127,187,-69
1223,4543,0,2023-03-10T14:06:44.265459,6282440,790,522,1532,-1027,-567,-204,127,187,-69
1224,4544,0,2023-03-10T14:06:44.270450,6282445,790,522,1532,-1027,-567,-204,127,187,-69
1225,4545,0,2023-03-10T14:06:44.275400,6282450,805,527,1531,-1052,-579,-257,127,187,-69
1226,4546,0,2023-03-10T14:06:44.280422,6282455,805,527,1531,-1052,-579,-257,127,187,-69
1227,4547,0,2023-03-10T14:06:44.284942,6282460,805,527,1531,-1052,-579,-257,127,187,-69
1228,4548,0,2023-03-10T14:06:44.289558,6282464,805,527,1531,-1052,-579,-257,127,187,-69
1229,4549,0,2023-03-10T14:06:44.294852,6282469,805,527,1531,-1052,-579,-257,127,187,-69
1230,4550,0,2023-03-10T14:06:44.299370,6282474,798,525,1544,-1024,-580,-239,123,183,-63
1231,4551,0,2023-03-10T14:06:44.304367,6282479,798,525,1544,-1024,-580,-239,123,183,-63
1232,4552,0,2023-03-10T14:06:44.308987,6282483,798,525,1544,-1024,-580,-239,123,183,-63
1233,4553,0,2023-03-10T14:06:44.314246,6282489,798,525,1544,-1024,-580,-239,123,183,-63
1234,4554,0,2023-03-10T14:06:44.319042,6282493,809,533,1547,-1039,-573,-251,123,183,-63
1235,4555,0,2023-03-10T14:06:44.323830,6282499,809,533,1547,-1039,-573,-251,123,183,-63
1236,4556,0,2023-03-10T14:06:44.328286,6282503,809,533,1547,-1039,-573,-251,123,183,-63
1237,4557,0,2023-03-10T14:06:44.333595,6282508,809,533,1547,-1039,-573,-251,123,183,-63
1238,4558,0,2023-03-10T14:06:44.338569,6282513,788,520,1543,-1025,-577,-210,123,183,-63
1239,4559,0,2023-03-10T14:06:44.344117,6282519,788,520,1543,-1025,-577,-210,123,183,-63
1240,4560,0,2023-03-10T14:06:44.348740,6282523,788,520,1543,-1025,-577,-210,123,183,-63
1241,4561,0,2023-03-10T14:06:44.354243,6282529,788,520,1543,-1025,-577,-210,123,183,-63
1242,4562,0,2023-03-10T14:06:44.358990,6282533,806,530,1547,-1036,-577,-266,123,183,-63
1243,4563,0,2023-03-10T14:06:44.364124,6282539,806,530,1547,-1036,-577,-266,123,183,-63
1244,4564,0,2023-03-10T14:06:44.368413,6282544,806,530,1547,-1036,-577,-266,123,183,-63
1245,4565,0,2023-03-10T14:06:44.373476,6282549,806,530,1547,-1036,-577,-266,123,183,-63
1246,4566,0,2023-03-10T14:06:44.378131,6282553,798,527,1537,-1049,-569,-236,123,183,-63
1247,4567,0,2023-03-10T14:06:44.383429,6282558,798,527,1537,-1049,-569,-236,123,183,-63
1248,4568,0,2023-03-10T14:06:44.388054,6282563,798,527,1537,-1049,-569,-236,123,183,-63
1249,4569,0,2023-03-10T14:06:44.393091,6282568,798,527,1537,-1049,-569,-236,123,183,-63
1250,4570,0,2023-03-10T14:06:44.398349,6282573,801,529,1550,-1023,-558,-252,123,183,-63
1251,4571,0,2023-03-10T14:06:44.403470,6282578,801,529,1550,-1023,-558,-252,123,183,-63
1252,4572,0,2023-03-10T14:06:44.407849,6282583,801,529,1550,-1023,-558,-252,123,183,-63
1253,4573,0,2023-03-10T14:06:44.412491,6282587,801,529,1550,-1023,-558,-252,123,183,-63
1254,4574,0,2023-03-10T14:06:44.417553,6282593,806,529,1546,-1024,-561,-226,115,185,-59
1255,4575,0,2023-03-10T14:06:44.422643,6282597,806,529,1546,-1024,-561,-226,115,185,-59
1256,4576,0,2023-03-10T14:06:44.427257,6282602,806,529,1546,-1024,-561,-226,115,185,-59
1257,4577,0,2023-03-10T14:06:44.431692,6282606,806,529,1546,-1024,-561,-226,115,185,-59
1258,4578,0,2023-03-10T14:06:44.436275,6282611,791,525,1548,-1010,-568,-234,115,185,-59
1259,4579,0,2023-03-10T14:06:44.441578,6282616,791,525,1548,-1010,-568,-234,115,185,-59
1260,4580,0,2023-03-10T14:06:44.445997,6282620,791,525,1548,-1010,-568,-234,115,185,-59
1261,4581,0,2023-03-10T14:06:44.450606,6282626,791,525,1548,-1010,-568,-234,115,185,-59
1262,4582,0,2023-03-10T14:06:44.455133,6282630,808,528,1536,-1046,-580,-271,115,185,-59
1263,4583,0,2023-03-10T14:06:44.460097,6282635,808,528,1536,-1046,-580,-271,115,185,-59
1264,4584,0,2023-03-10T14:06:44.464484,6282639,808,528,1536,-1046,-580,-271,115,185,-59
1265,4585,0,2023-03-10T14:06:44.469146,6282644,808,528,1536,-1046,-580,-271,115,185,-59
1266,4586,0,2023-03-10T14:06:44.474174,6282649,808,528,1536,-1046,-580,-271,115,185,-59
1267,4587,0,2023-03-10T14:06:44.478710,6282653,800,523,1544,-1031,-585,-233,115,185,-59
1268,4588,0,2023-03-10T14:06:44.483620,6282658,800,523,1544,-1031,-585,-233,115,185,-59
1269,4589,0,2023-03-10T14:06:44.488050,6282662,800,523,1544,-1031,-585,-233,115,185,-59
1270,4590,0,2023-03-10T14:06:44.492958,6282668,800,523,1544,-1031,-585,-233,115,185,-59
1271,4591,0,2023-03-10T14:06:44.497657,6282673,807,535,1538,-1039,-570,-251,115,185,-59
1272,4592,0,2023-03-10T14:06:44.502042,6282677,807,535,1538,-1039,-570,-251,115,185,-59
1273,4593,0,2023-03-10T14:06:44.506401,6282681,807,535,1538,-1039,-570,-251,115,185,-59
1274,4594,0,2023-03-10T14:06:44.510838,6282686,807,535,1538,-1039,-570,-251,115,185,-59
1275,4595,0,2023-03-10T14:06:44.515869,6282691,793,524,1542,-1029,-573,-199,115,185,-59
1276,4596,0,2023-03-10T14:06:44.521165,6282696,793,524,1542,-1029,-573,-199,115,185,-59
1277,4597,0,2023-03-10T14:06:44.525614,6282700,793,524,1542,-1029,-573,-199,115,185,-59
1278,4598,0,2023-03-10T14:06:44.529900,6282704,793,524,1542,-1029,-573,-199,115,185,-59
1279,4599,0,2023-03-10T14:06:44.534760,6282710,793,524,1542,-1029,-573,-199,115,185,-59
1280,4600,0,2023-03-10T14:06:44.539191,6282714,796,526,1549,-1030,-571,-251,116,182,-74
1281,4601,0,2023-03-10T14:06:44.544863,6282719,796,526,1549,-1030,-571,-251,116,182,-74
1282,4602,0,2023-03-10T14:06:44.549300,6282724,796,526,1549,-1030,-571,-251,116,182,-74
1283,4603,0,2023-03-10T14:06:44.554235,6282729,796,526,1549,-1030,-571,-251,116,182,-74
1284,4604,0,2023-03-10T14:06:44.558892,6282733,811,528,1543,-1039,-588,-251,116,182,-74
1285,4605,0,2023-03-10T14:06:44.563954,6282739,811,528,1543,-1039,-588,-251,116,182,-74
1286,4606,0,2023-03-10T14:06:44.568570,6282743,811,528,1543,-1039,-588,-251,116,182,-74
1287,4607,0,2023-03-10T14:06:44.573542,6282748,811,528,1543,-1039,-588,-251,116,182,-74
1288,4608,0,2023-03-10T14:06:44.577763,6282753,789,520,1544,-1012,-555,-185,116,182,-74
1289,4609,0,2023-03-10T14:06:44.582562,6282758,789,520,1544,-1012,-555,-185,116,182,-74
1290,4610,0,2023-03-10T14:06:44.586991,6282762,789,520,1544,-1012,-555,-185,116,182,-74
1291,4611,0,2023-03-10T14:06:44.591184,6282766,789,520,1544,-1012,-555,-185,116,182,-74
1292,4612,0,2023-03-10T14:06:44.596164,6282771,811,529,1554,-1044,-562,-272,116,182,-74
1293,4613,0,2023-03-10T14:06:44.601383,6282776,811,529,1554,-1044,-562,-272,116,182,-74
1294,4614,0,2023-03-10T14:06:44.605879,6282780,811,529,1554,-1044,-562,-272,116,182,-74
1295,4615,0,2023-03-10T14:06:44.610250,6282785,811,529,1554,-1044,-562,-272,116,182,-74
1296,4616,0,2023-03-10T14:06:44.615238,6282789,811,529,1554,-1044,-562,-272,116,182,-74
1297,4617,0,2023-03-10T14:06:44.619816,6282795,804,527,1540,-1031,-564,-234,116,182,-74
1298,4618,0,2023-03-10T14:06:44.625041,6282800,804,527,1540,-1031,-564,-234,116,182,-74
1299,4619,0,2023-03-10T14:06:44.629443,6282805,804,527,1540,-1031,-564,-234,116,182,-74
1300,4620,0,2023-03-10T14:06:44.634267,6282809,804,527,1540,-1031,-564,-234,116,182,-74
1301,4621,0,2023-03-10T14:06:44.638716,6282814,795,525,1539,-1026,-571,-241,116,182,-74
1302,4622,0,2023-03-10T14:06:44.643749,6282818,795,525,1539,-1026,-571,-241,116,182,-74
1303,4623,0,2023-03-10T14:06:44.648268,6282823,795,525,1539,-1026,-571,-241,116,182,-74
1304,4624,0,2023-03-10T14:06:44.653398,6282828,795,525,1539,-1026,-571,-241,116,182,-74
1305,4625,0,2023-03-10T14:06:44.657960,6282832,814,535,1550,-1043,-565,-272,116,182,-74
1306,4626,0,2023-03-10T14:06:44.662983,6282838,814,535,1550,-1043,-565,-272,116,182,-74
1307,4627,0,2023-03-10T14:06:44.667397,6282842,814,535,1550,-1043,-565,-272,116,182,-74
1308,4628,0,2023-03-10T14:06:44.672478,6282847,814,535,1550,-1043,-565,-272,116,182,-74
1309,4629,0,2023-03-10T14:06:44.677188,6282852,789,520,1549,-1032,-569,-192,117,191,-65
1310,4630,0,2023-03-10T14:06:44.682340,6282857,789,520,1549,-1032,-569,-192,117,191,-65
1311,4631,0,2023-03-10T14:06:44.686837,6282862,789,520,1549,-1032,-569,-192,117,191,-65
1312,4632,0,2023-03-10T14:06:44.691391,6282866,789,520,1549,-1032,-569,-192,117,191,-65
1313,4633,0,2023-03-10T14:06:44.696311,6282871,799,526,1546,-1040,-585,-258,117,191,-65
1314,4634,0,2023-03-10T14:06:44.701441,6282876,799,526,1546,-1040,-585,-258,117,191,-65
1315,4635,0,2023-03-10T14:06:44.705822,6282881,799,526,1546,-1040,-585,-258,117,191,-65
1316,4636,0,2023-03-10T14:06:44.710370,6282886,799,526,1546,-1040,-585,-258,117,191,-65
1317,4637,0,2023-03-10T14:06:44.715216,6282890,799,526,1546,-1040,-585,-258,117,191,-65
1318,4638,0,2023-03-10T14:06:44.719633,6282895,815,533,1536,-1037,-586,-273,117,191,-65
1319,4639,0,2023-03-10T14:06:44.724969,6282899,815,533,1536,-1037,-586,-273,117,191,-65
1320,4640,0,2023-03-10T14:06:44.729400,6282904,815,533,1536,-1037,-586,-273,117,191,-65
1321,4641,0,2023-03-10T14:06:44.734373,6282909,815,533,1536,-1037,-586,-273,117,191,-65
1322,4642,0,2023-03-10T14:06:44.739128,6282913,788,521,1538,-1008,-581,-177,117,191,-65
1323,4643,0,2023-03-10T14:06:44.744439,6282919,788,521,1538,-1008,-581,-177,117,191,-65
1324,4644,0,2023-03-10T14:06:44.748766,6282924,788,521,1538,-1008,-581,-177,117,191,-65
1325,4645,0,2023-03-10T14:06:44.753956,6282929,788,521,1538,-1008,-581,-177,117,191,-65
1326,4646,0,2023-03-10T14:06:44.758414,6282933,805,529,1543,-1022,-580,-251,117,191,-65
1327,4647,0,2023-03-10T14:06:44.763271,6282938,805,529,1543,-1022,-580,-251,117,191,-65
1328,4648,0,2023-03-10T14:06:44.767882,6282943,805,529,1543,-1022,-580,-251,117,191,-65
1329,4649,0,2023-03-10T14:06:44.772883,6282947,805,529,1543,-1022,-580,-251,117,191,-65
1330,4650,0,2023-03-10T14:06:44.778218,6282953,808,536,1535,-1050,-566,-275,117,191,-65
1331,4651,0,2023-03-10T14:06:44.782830,6282957,808,536,1535,-1050,-566,-275,117,191,-65
1332,4652,0,2023-03-10T14:06:44.787099,6282962,808,536,1535,-1050,-566,-275,117,191,-65
1333,4653,0,2023-03-10T14:06:44.791531,6282967,808,536,1535,-1050,-566,-275,117,191,-65
1334,4654,0,2023-03-10T14:06:44.796420,6282972,793,522,1544,-1017,-555,-215,124,186,-72
1335,4655,0,2023-03-10T14:06:44.800887,6282976,793,522,1544,-1017,-555,-215,124,186,-72
1336,4656,0,2023-03-10T14:06:44.805291,6282980,793,522,1544,-1017,-555,-215,124,186,-72
1337,4657,0,2023-03-10T14:06:44.809766,6282985,793,522,1544,-1017,-555,-215,124,186,-72
1338,4658,0,2023-03-10T14:06:44.814855,6282989,793,522,1544,-1017,-555,-215,124,186,-72
1339,4659,0,2023-03-10T14:06:44.819440,6282994,808,529,1545,-1038,-567,-270,124,186,-72
1340,4660,0,2023-03-10T14:06:44.824609,6282999,808,529,1545,-1038,-567,-270,124,186,-72
1341,4661,0,2023-03-10T14:06:44.829174,6283004,808,529,1545,-1038,-567,-270,124,186,-72
1342,4662,0,2023-03-10T14:06:44.834234,6283009,808,529,1545,-1038,-567,-270,124,186,-72
1343,4663,0,2023-03-10T14:06:44.838971,6283014,796,525,1536,-1041,-581,-253,124,186,-72
1344,4664,0,2023-03-10T14:06:44.843974,6283019,796,525,1536,-1041,-581,-253,124,186,-72
1345,4665,0,2023-03-10T14:06:44.848528,6283023,796,525,1536,-1041,-581,-253,124,186,-72
1346,4666,0,2023-03-10T14:06:44.853882,6283029,796,525,1536,-1041,-581,-253,124,186,-72
1347,4667,0,2023-03-10T14:06:44.859183,6283034,803,529,1544,-1032,-572,-253,124,186,-72
1348,4668,0,2023-03-10T14:06:44.864269,6283039,803,529,1544,-1032,-572,-253,124,186,-72
1349,4669,0,2023-03-10T14:06:44.868691,6283043,803,529,1544,-1032,-572,-253,124,186,-72
1350,4670,0,2023-03-10T14:06:44.873570,6283048,803,529,1544,-1032,-572,-253,124,186,-72
1351,4671,0,2023-03-10T14:06:44.878438,6283053,800,523,1546,-1051,-582,-245,124,186,-72
1352,4672,0,2023-03-10T14:06:44.883360,6283058,800,523,1546,-1051,-582,-245,124,186,-72
1353,4673,0,2023-03-10T14:06:44.887711,6283063,800,523,1546,-1051,-582,-245,124,186,-72
1354,4674,0,2023-03-10T14:06:44.892412,6283067,800,523,1546,-1051,-582,-245,124,186,-72
1355,4675,0,2023-03-10T14:06:44.896908,6283072,806,532,1541,-1032,-574,-250,124,186,-72
1356,4676,0,2023-03-10T14:06:44.902007,6283077,806,532,1541,-1032,-574,-250,124,186,-72
1357,4677,0,2023-03-10T14:06:44.906362,6283081,806,532,1541,-1032,-574,-250,124,186,-72
1358,4678,0,2023-03-10T14:06:44.911268,6283086,806,532,1541,-1032,-574,-250,124,186,-72
1359,4679,0,2023-03-10T14:06:44.915786,6283090,794,525,1546,-1037,-570,-210,124,186,-72
1360,4680,0,2023-03-10T14:06:44.920962,6283096,794,525,1546,-1037,-570,-210,124,186,-72
1361,4681,0,2023-03-10T14:06:44.925660,6283101,794,525,1546,-1037,-570,-210,124,186,-72
1362,4682,0,2023-03-10T14:06:44.930226,6283105,794,525,1546,-1037,-570,-210,124,186,-72
1363,4683,0,2023-03-10T14:06:44.934598,6283110,794,525,1546,-1037,-570,-210,124,186,-72
1364,4684,0,2023-03-10T14:06:44.939400,6283114,800,528,1553,-1018,-575,-247,122,188,-68
1365,4685,0,2023-03-10T14:06:44.944404,6283119,800,528,1553,-1018,-575,-247,122,188,-68
1366,4686,0,2023-03-10T14:06:44.948979,6283123,800,528,1553,-1018,-575,-247,122,188,-68
1367,4687,0,2023-03-10T14:06:44.954487,6283129,800,528,1553,-1018,-575,-247,122,188,-68
1368,4688,0,2023-03-10T14:06:44.958979,6283133,803,524,1541,-1038,-584,-231,122,188,-68
1369,4689,0,2023-03-10T14:06:44.964366,6283139,803,524,1541,-1038,-584,-231,122,188,-68
1370,4690,0,2023-03-10T14:06:44.968906,6283144,803,524,1541,-1038,-584,-231,122,188,-68
1371,4691,0,2023-03-10T14:06:44.974013,6283149,803,524,1541,-1038,-584,-231,122,188,-68
1372,4692,0,2023-03-10T14:06:44.978729,6283154,794,521,1537,-1037,-567,-223,122,188,-68
1373,4693,0,2023-03-10T14:06:44.983250,6283158,794,521,1537,-1037,-567,-223,122,188,-68
1374,4694,0,2023-03-10T14:06:44.987950,6283162,794,521,1537,-1037,-567,-223,122,188,-68
