,Unnamed: 0,imu,server_time,arduino_time,ax,ay,az,gx,gy,gz,mx,my,mz
1803,5123,0,2023-03-10T14:06:47.037628,6285212,802,523,1542,-1036,-576,-238,121,189,-69
1804,5124,0,2023-03-10T14:06:47.042180,6285217,808,519,1546,-1035,-572,-234,121,189,-69
1805,5125,0,2023-03-10T14:06:47.047444,6285222,808,519,1546,-1035,-572,-234,121,189,-69
1806,5126,0,2023-03-10T14:06:47.051853,6285227,808,519,1546,-1035,-572,-234,121,189,-69
1807,5127,0,2023-03-10T14:06:47.056442,6285232,808,519,1546,-1035,-572,-234,121,189,-69
1808,5128,0,2023-03-10T14:06:47.060845,6285236,808,528,1543,-1033,-572,-244,121,189,-69
1809,5129,0,2023-03-10T14:06:47.065779,6285241,808,528,1543,-1033,-572,-244,121,189,-69
1810,5130,0,2023-03-10T14:06:47.070168,6285245,808,528,1543,-1033,-572,-244,121,189,-69
1811,5131,0,2023-03-10T14:06:47.075292,6285250,808,528,1543,-1033,-572,-244,121,189,-69
1812,5132,0,2023-03-10T14:06:47.079702,6285254,808,528,1543,-1033,-572,-244,121,189,-69
1813,5133,0,2023-03-10T14:06:47.084381,6285259,808,528,1543,-1033,-572,-244,121,189,-69
1814,5134,0,2023-03-10T14:06:47.088845,6285263,808,528,1543,-1033,-572,-244,121,189,-69
1815,5135,0,2023-03-10T14:06:47.093965,6285268,808,528,1543,-1033,-572,-244,121,189,-69
1816,5136,0,2023-03-10T14:06:47.099153,6285274,804,526,1547,-1032,-577,-242,121,189,-69
1817,5137,0,2023-03-10T14:06:47.104286,6285279,804,526,1547,-1032,-577,-242,121,189,-69
1818,5138,0,2023-03-10T14:06:47.108830,6285284,804,526,1547,-1032,-577,-242,121,189,-69
1819,5139,0,2023-03-10T14:06:47.113374,6285288,804,526,1547,-1032,-577,-242,121,189,-69
1820,5140,0,2023-03-10T14:06:47.118290,6285293,804,526,1547,-1032,-577,-242,121,189,-69
1821,5141,0,2023-03-10T14:06:47.122751,6285297,805,527,1547,-1032,-571,-236,125,189,-73
1822,5142,0,2023-03-10T14:06:47.127807,6285302,805,527,1547,-1032,-571,-236,125,189,-73
1823,5143,0,2023-03-10T14:06:47.132266,6285307,805,527,1547,-1032,-571,-236,125,189,-73
1824,5144,0,2023-03-10T14:06:47.137367,6285313,805,527,1547,-1032,-571,-236,125,189,-73
1825,5145,0,2023-03-10T14:06:47.142080,6285317,806,523,1552,-1022,-546,-235,125,189,-73
1826,5146,0,2023-03-10T14:06:47.146905,6285322,806,523,1552,-1022,-546,-235,125,189,-73
1827,5147,0,2023-03-10T14:06:47.151349,6285326,806,523,1552,-1022,-546,-235,125,189,-73
1828,5148,0,2023-03-10T14:06:47.156230,6285331,806,523,1552,-1022,-546,-235,125,189,-73
1829,5149,0,2023-03-10T14:06:47.160719,6285335,806,523,1531,-1034,-559,-245,125,189,-73
1830,5150,0,2023-03-10T14:06:47.165510,6285340,806,523,1531,-1034,-559,-245,125,189,-73
1831,5151,0,2023-03-10T14:06:47.170022,6285345,806,523,1531,-1034,-559,-245,125,189,-73
1832,5152,0,2023-03-10T14:06:47.175388,6285350,806,523,1531,-1034,-559,-245,125,189,-73
1833,5153,0,2023-03-10T14:06:47.180057,6285355,800,519,1550,-1024,-569,-221,125,189,-73
1834,5154,0,2023-03-10T14:06:47.185231,6285360,800,519,1550,-1024,-569,-221,125,189,-73
1835,5155,0,2023-03-10T14:06:47.189758,6285365,800,519,1550,-1024,-569,-221,125,189,-73
1836,5156,0,2023-03-10T14:06:47.195261,6285370,800,519,1550,-1024,-569,-221,125,189,-73
1837,5157,0,2023-03-10T14:06:47.199830,6285375,803,524,1542,-1020,-576,-250,125,189,-73
1838,5158,0,2023-03-10T14:06:47.204292,6285379,803,524,1542,-1020,-576,-250,125,189,-73
1839,5159,0,2023-03-10T14:06:47.209282,6285383,803,524,1542,-1020,-576,-250,125,189,-73
1840,5160,0,2023-03-10T14:06:47.213910,6285388,803,524,1542,-1020,-576,-250,125,189,-73
1841,5161,0,2023-03-10T14:06:47.219258,6285394,814,531,1534,-1041,-562,-247,125,189,-73
1842,5162,0,2023-03-10T14:06:47.224240,6285399,814,531,1534,-1041,-562,-247,125,189,-73
1843,5163,0,2023-03-10T14:06:47.228514,6285404,814,531,1534,-1041,-562,-247,125,189,-73
1844,5164,0,2023-03-10T14:06:47.232941,6285408,814,531,1534,-1041,-562,-247,125,189,-73
1845,5165,0,2023-03-10T14:06:47.237851,6285413,814,531,1534,-1041,-562,-247,125,189,-73
1846,5166,0,2023-03-10T14:06:47.242406,6285417,791,518,1549,-999,-565,-177,118,186,-58
1847,5167,0,2023-03-10T14:06:47.247522,6285422,791,518,1549,-999,-565,-177,118,186,-58
1848,5168,0,2023-03-10T14:06:47.252043,6285427,791,518,1549,-999,-565,-177,118,186,-58
1849,5169,0,2023-03-10T14:06:47.257780,6285432,791,518,1549,-999,-565,-177,118,186,-58
1850,5170,0,2023-03-10T14:06:47.262642,6285437,811,525,1548,-1044,-573,-273,118,186,-58
1851,5171,0,2023-03-10T14:06:47.267885,6285443,811,525,1548,-1044,-573,-273,118,186,-58
1852,5172,0,2023-03-10T14:06:47.273863,6285448,811,525,1548,-1044,-573,-273,118,186,-58
1853,5173,0,2023-03-10T14:06:47.279383,6285454,808,523,1535,-1050,-570,-248,118,186,-58
1854,5174,0,2023-03-10T14:06:47.284392,6285459,808,523,1535,-1050,-570,-248,118,186,-58
1855,5175,0,2023-03-10T14:06:47.288820,6285464,808,523,1535,-1050,-570,-248,118,186,-58
1856,5176,0,2023-03-10T14:06:47.293294,6285468,808,523,1535,-1050,-570,-248,118,186,-58
1857,5177,0,2023-03-10T14:06:47.298253,6285473,808,523,1535,-1050,-570,-248,118,186,-58
1858,5178,0,2023-03-10T14:06:47.302741,6285477,808,523,1535,-1050,-570,-248,118,186,-58
1859,5179,0,2023-03-10T14:06:47.307408,6285483,808,523,1535,-1050,-570,-248,118,186,-58
1860,5180,0,2023-03-10T14:06:47.311738,6285487,808,523,1535,-1050,-570,-248,118,186,-58
1861,5181,0,2023-03-10T14:06:47.316701,6285492,808,523,1535,-1050,-570,-248,118,186,-58
1862,5182,0,2023-03-10T14:06:47.321334,6285496,806,522,1542,-1045,-565,-239,118,186,-58
1863,5183,0,2023-03-10T14:06:47.326441,6285501,806,522,1542,-1045,-565,-239,118,186,-58
1864,5184,0,2023-03-10T14:06:47.330730,6285506,806,522,1542,-1045,-565,-239,118,186,-58
1865,5185,0,2023-03-10T14:06:47.335647,6285511,806,522,1542,-1045,-565,-239,118,186,-58
1866,5186,0,2023-03-10T14:06:47.340016,6285515,800,529,1538,-1026,-571,-238,118,186,-58
1867,5187,0,2023-03-10T14:06:47.344873,6285519,800,529,1538,-1026,-571,-238,118,186,-58
1868,5188,0,2023-03-10T14:06:47.349494,6285524,800,529,1538,-1026,-571,-238,118,186,-58
1869,5189,0,2023-03-10T14:06:47.354394,6285530,800,529,1538,-1026,-571,-238,118,186,-58
1870,5190,0,2023-03-10T14:06:47.358959,6285534,800,529,1538,-1026,-571,-238,118,186,-58
1871,5191,0,2023-03-10T14:06:47.363604,6285539,799,520,1541,-1042,-575,-226,118,186,-58
1872,5192,0,2023-03-10T14:06:47.368843,6285544,799,520,1541,-1042,-575,-226,118,186,-58
1873,5193,0,2023-03-10T14:06:47.373715,6285548,799,520,1541,-1042,-575,-226,118,186,-58
1874,5194,0,2023-03-10T14:06:47.378918,6285554,799,523,1550,-1020,-575,-239,118,186,-58
1875,5195,0,2023-03-10T14:06:47.384031,6285559,799,523,1550,-1020,-575,-239,127,189,-71
1876,5196,0,2023-03-10T14:06:47.388649,6285563,799,523,1550,-1020,-575,-239,127,189,-71
1877,5197,0,2023-03-10T14:06:47.393027,6285568,799,523,1550,-1020,-575,-239,127,189,-71
1878,5198,0,2023-03-10T14:06:47.397814,6285573,799,523,1550,-1020,-575,-239,127,189,-71
1879,5199,0,2023-03-10T14:06:47.402614,6285578,805,521,1533,-1043,-588,-238,127,189,-71
1880,5200,0,2023-03-10T14:06:47.407863,6285583,805,521,1533,-1043,-588,-238,127,189,-71
1881,5201,0,2023-03-10T14:06:47.412382,6285587,805,521,1533,-1043,-588,-238,127,189,-71
1882,5202,0,2023-03-10T14:06:47.417366,6285592,805,521,1533,-1043,-588,-238,127,189,-71
1883,5203,0,2023-03-10T14:06:47.421773,6285596,803,524,1548,-1031,-572,-235,127,189,-71
1884,5204,0,2023-03-10T14:06:47.426977,6285601,803,524,1548,-1031,-572,-235,127,189,-71
1885,5205,0,2023-03-10T14:06:47.431485,6285606,803,524,1548,-1031,-572,-235,127,189,-71
1886,5206,0,2023-03-10T14:06:47.436690,6285612,803,524,1548,-1031,-572,-235,127,189,-71
1887,5207,0,2023-03-10T14:06:47.441443,6285616,806,528,1550,-1038,-551,-246,127,189,-71
1888,5208,0,2023-03-10T14:06:47.446589,6285622,806,528,1550,-1038,-551,-246,127,189,-71
1889,5209,0,2023-03-10T14:06:47.451115,6285626,806,528,1550,-1038,-551,-246,127,189,-71
1890,5210,0,2023-03-10T14:06:47.456426,6285631,806,528,1550,-1038,-551,-246,127,189,-71
1891,5211,0,2023-03-10T14:06:47.461337,6285636,799,520,1535,-1033,-564,-241,127,189,-71
1892,5212,0,2023-03-10T14:06:47.466714,6285641,799,520,1535,-1033,-564,-241,127,189,-71
1893,5213,0,2023-03-10T14:06:47.471013,6285646,799,520,1535,-1033,-564,-241,127,189,-71
1894,5214,0,2023-03-10T14:06:47.475887,6285650,799,520,1535,-1033,-564,-241,127,189,-71
1895,5215,0,2023-03-10T14:06:47.480532,6285656,808,529,1545,-1035,-575,-251,127,189,-71
1896,5216,0,2023-03-10T14:06:47.485613,6285661,808,529,1545,-1035,-575,-251,127,189,-71
1897,5217,0,2023-03-10T14:06:47.490247,6285665,808,529,1545,-1035,-575,-251,127,189,-71
1898,5218,0,2023-03-10T14:06:47.494879,6285670,808,529,1545,-1035,-575,-251,127,189,-71
1899,5219,0,2023-03-10T14:06:47.499397,6285674,802,524,1547,-1034,-578,-231,114,182,-68
1900,5220,0,2023-03-10T14:06:47.504511,6285679,802,524,1547,-1034,-578,-231,114,182,-68
1901,5221,0,2023-03-10T14:06:47.508947,6285684,802,524,1547,-1034,-578,-231,114,182,-68
1902,5222,0,2023-03-10T14:06:47.513305,6285688,802,524,1547,-1034,-578,-231,114,182,-68
1903,5223,0,2023-03-10T14:06:47.518424,6285693,802,524,1547,-1034,-578,-231,114,182,-68
1904,5224,0,2023-03-10T14:06:47.522661,6285698,803,524,1541,-1038,-579,-238,114,182,-68
1905,5225,0,2023-03-10T14:06:47.527969,6285703,803,524,1541,-1038,-579,-238,114,182,-68
1906,5226,0,2023-03-10T14:06:47.532451,6285708,803,524,1541,-1038,-579,-238,114,182,-68
1907,5227,0,2023-03-10T14:06:47.537551,6285713,803,524,1541,-1038,-579,-238,114,182,-68
1908,5228,0,2023-03-10T14:06:47.542119,6285717,803,524,1541,-1038,-579,-238,114,182,-68
1909,5229,0,2023-03-10T14:06:47.546617,6285721,803,524,1541,-1038,-579,-238,114,182,-68
1910,5230,0,2023-03-10T14:06:47.551206,6285726,803,524,1541,-1038,-579,-238,114,182,-68
1911,5231,0,2023-03-10T14:06:47.556190,6285731,803,524,1541,-1038,-579,-238,114,182,-68
1912,5232,0,2023-03-10T14:06:47.560893,6285735,800,523,1538,-1028,-563,-236,114,182,-68
1913,5233,0,2023-03-10T14:06:47.565373,6285741,800,523,1538,-1028,-563,-236,114,182,-68
1914,5234,0,2023-03-10T14:06:47.570167,6285745,800,523,1538,-1028,-563,-236,114,182,-68
1915,5235,0,2023-03-10T14:06:47.575653,6285750,800,523,1538,-1028,-563,-236,114,182,-68
1916,5236,0,2023-03-10T14:06:47.580694,6285755,809,524,1547,-1027,-556,-244,114,182,-68
1917,5237,0,2023-03-10T14:06:47.586397,6285761,809,524,1547,-1027,-556,-244,114,182,-68
1918,5238,0,2023-03-10T14:06:47.590974,6285766,809,524,1547,-1027,-556,-244,114,182,-68
1919,5239,0,2023-03-10T14:06:47.595589,6285770,809,524,1547,-1027,-556,-244,114,182,-68
1920,5240,0,2023-03-10T14:06:47.600968,6285775,802,524,1537,-1032,-565,-243,114,182,-68
1921,5241,0,2023-03-10T14:06:47.607177,6285782,802,524,1537,-1032,-565,-243,114,182,-68
1922,5242,0,2023-03-10T14:06:47.611789,6285787,802,524,1537,-1032,-565,-243,114,182,-68
1923,5243,0,2023-03-10T14:06:47.618145,6285793,802,524,1537,-1032,-565,-243,114,182,-68
1924,5244,0,2023-03-10T14:06:47.622713,6285798,806,524,1539,-1024,-569,-245,117,191,-69
1925,5245,0,2023-03-10T14:06:47.628155,6285803,806,524,1539,-1024,-569,-245,117,191,-69
1926,5246,0,2023-03-10T14:06:47.632966,6285807,806,524,1539,-1024,-569,-245,117,191,-69
1927,5247,0,2023-03-10T14:06:47.638982,6285813,806,524,1539,-1024,-569,-245,117,191,-69
1928,5248,0,2023-03-10T14:06:47.644239,6285818,805,525,1545,-1031,-577,-235,117,191,-69
1929,5249,0,2023-03-10T14:06:47.649604,6285825,805,525,1545,-1031,-577,-235,117,191,-69
1930,5250,0,2023-03-10T14:06:47.654447,6285829,805,525,1545,-1031,-577,-235,117,191,-69
1931,5251,0,2023-03-10T14:06:47.659784,6285835,801,519,1538,-1030,-582,-234,117,191,-69
1932,5252,0,2023-03-10T14:06:47.665271,6285840,801,519,1538,-1030,-582,-234,117,191,-69
1933,5253,0,2023-03-10T14:06:47.670055,6285845,801,519,1538,-1030,-582,-234,117,191,-69
1934,5254,0,2023-03-10T14:06:47.675807,6285850,801,519,1538,-1030,-582,-234,117,191,-69
1935,5255,0,2023-03-10T14:06:47.680524,6285855,804,531,1541,-1030,-555,-241,117,191,-69
1936,5256,0,2023-03-10T14:06:47.685741,6285860,804,531,1541,-1030,-555,-241,117,191,-69
1937,5257,0,2023-03-10T14:06:47.690491,6285865,804,531,1541,-1030,-555,-241,117,191,-69
1938,5258,0,2023-03-10T14:06:47.696230,6285871,804,531,1541,-1030,-555,-241,117,191,-69
1939,5259,0,2023-03-10T14:06:47.701204,6285876,807,522,1552,-1036,-547,-241,117,191,-69
1940,5260,0,2023-03-10T14:06:47.706312,6285881,807,522,1552,-1036,-547,-241,117,191,-69
1941,5261,0,2023-03-10T14:06:47.711072,6285886,807,522,1552,-1036,-547,-241,117,191,-69
1942,5262,0,2023-03-10T14:06:47.716826,6285892,807,522,1552,-1036,-547,-241,117,191,-69
1943,5263,0,2023-03-10T14:06:47.721383,6285896,797,526,1531,-1040,-563,-231,117,191,-69
1944,5264,0,2023-03-10T14:06:47.726581,6285901,797,526,1531,-1040,-563,-231,117,191,-69
1945,5265,0,2023-03-10T14:06:47.731073,6285905,797,526,1531,-1040,-563,-231,117,191,-69
1946,5266,0,2023-03-10T14:06:47.735759,6285911,797,526,1531,-1040,-563,-231,117,191,-69
1947,5267,0,2023-03-10T14:06:47.740387,6285915,810,529,1538,-1038,-572,-239,117,191,-69
1948,5268,0,2023-03-10T14:06:47.745550,6285921,810,529,1538,-1038,-572,-239,117,191,-69
1949,5269,0,2023-03-10T14:06:47.750249,6285925,810,529,1538,-1038,-572,-239,117,191,-69
1950,5270,0,2023-03-10T14:06:47.756275,6285930,810,529,1538,-1038,-572,-239,117,191,-69
1951,5271,0,2023-03-10T14:06:47.760808,6285936,800,519,1551,-1039,-580,-233,119,193,-55
1952,5272,0,2023-03-10T14:06:47.766006,6285940,800,519,1551,-1039,-580,-233,119,193,-55
1953,5273,0,2023-03-10T14:06:47.770461,6285945,800,519,1551,-1039,-580,-233,119,193,-55
1954,5274,0,2023-03-10T14:06:47.776148,6285950,800,519,1551,-1039,-580,-233,119,193,-55
1955,5275,0,2023-03-10T14:06:47.780594,6285956,807,528,1545,-1036,-573,-254,119,193,-55
1956,5276,0,2023-03-10T14:06:47.785719,6285961,807,528,1545,-1036,-573,-254,119,193,-55
1957,5277,0,2023-03-10T14:06:47.790370,6285965,807,528,1545,-1036,-573,-254,119,193,-55
1958,5278,0,2023-03-10T14:06:47.795672,6285970,807,528,1545,-1036,-573,-254,119,193,-55
1959,5279,0,2023-03-10T14:06:47.800365,6285975,803,520,1538,-1043,-553,-248,119,193,-55
1960,5280,0,2023-03-10T14:06:47.805628,6285980,803,520,1538,-1043,-553,-248,119,193,-55
1961,5281,0,2023-03-10T14:06:47.810429,6285985,803,520,1538,-1043,-553,-248,119,193,-55
1962,5282,0,2023-03-10T14:06:47.815482,6285990,803,520,1538,-1043,-553,-248,119,193,-55
1963,5283,0,2023-03-10T14:06:47.820594,6285996,801,526,1550,-1027,-541,-245,119,193,-55
1964,5284,0,2023-03-10T14:06:47.825200,6286000,801,526,1550,-1027,-541,-245,119,193,-55
1965,5285,0,2023-03-10T14:06:47.829685,6286005,801,526,1550,-1027,-541,-245,119,193,-55
1966,5286,0,2023-03-10T14:06:47.834774,6286010,801,526,1550,-1027,-541,-245,119,193,-55
1967,5287,0,2023-03-10T14:06:47.840129,6286015,814,527,1542,-1033,-531,-250,119,193,-55
1968,5288,0,2023-03-10T14:06:47.845265,6286020,814,527,1542,-1033,-531,-250,119,193,-55
1969,5289,0,2023-03-10T14:06:47.849711,6286024,814,527,1542,-1033,-531,-250,119,193,-55
1970,5290,0,2023-03-10T14:06:47.854992,6286029,814,527,1542,-1033,-531,-250,119,193,-55
1971,5291,0,2023-03-10T14:06:47.859483,6286034,814,527,1542,-1033,-531,-250,119,193,-55
1972,5292,0,2023-03-10T14:06:47.864176,6286039,788,517,1538,-1029,-549,-230,119,193,-55
1973,5293,0,2023-03-10T14:06:47.869239,6286044,788,517,1538,-1029,-549,-230,119,193,-55
1974,5294,0,2023-03-10T14:06:47.873751,6286049,788,517,1538,-1029,-549,-230,119,193,-55
1975,5295,0,2023-03-10T14:06:47.878983,6286054,788,517,1538,-1029,-549,-230,119,193,-55
1976,5296,0,2023-03-10T14:06:47.883687,6286059,811,527,1549,-1037,-557,-251,121,185,-67
1977,5297,0,2023-03-10T14:06:47.888660,6286063,811,527,1549,-1037,-557,-251,121,185,-67
1978,5298,0,2023-03-10T14:06:47.893115,6286068,811,527,1549,-1037,-557,-251,121,185,-67
1979,5299,0,2023-03-10T14:06:47.897999,6286072,811,527,1549,-1037,-557,-251,121,185,-67
1980,5300,0,2023-03-10T14:06:47.902708,6286077,803,527,1548,-1034,-566,-239,121,185,-67
1981,5301,0,2023-03-10T14:06:47.907634,6286083,803,527,1548,-1034,-566,-239,121,185,-67
1982,5302,0,2023-03-10T14:06:47.912114,6286087,803,527,1548,-1034,-566,-239,121,185,-67
1983,5303,0,2023-03-10T14:06:47.916781,6286092,803,527,1548,-1034,-566,-239,121,185,-67
1984,5304,0,2023-03-10T14:06:47.921367,6286096,798,524,1537,-1046,-505,-239,121,185,-67
1985,5305,0,2023-03-10T14:06:47.926609,6286101,798,524,1537,-1046,-505,-239,121,185,-67
1986,5306,0,2023-03-10T14:06:47.931699,6286106,798,524,1537,-1046,-505,-239,121,185,-67
1987,5307,0,2023-03-10T14:06:47.937011,6286111,798,524,1537,-1046,-505,-239,121,185,-67
1988,5308,0,2023-03-10T14:06:47.941996,6286116,801,526,1543,-1031,-549,-252,121,185,-67
1989,5309,0,2023-03-10T14:06:47.947474,6286123,801,526,1543,-1031,-549,-252,121,185,-67
1990,5310,0,2023-03-10T14:06:47.952491,6286127,801,526,1543,-1031,-549,-252,121,185,-67
1991,5311,0,2023-03-10T14:06:47.957309,6286132,801,526,1543,-1031,-549,-252,121,185,-67
1992,5312,0,2023-03-10T14:06:47.962631,6286137,805,525,1558,-1048,-567,-256,121,185,-67
1993,5313,0,2023-03-10T14:06:47.969554,6286144,805,525,1558,-1048,-567,-256,121,185,-67
1994,5314,0,2023-03-10T14:06:47.974470,6286149,805,525,1558,-1048,-567,-256,121,185,-67
1995,5315,0,2023-03-10T14:06:47.980243,6286154,805,525,1558,-1048,-567,-256,121,185,-67
1996,5316,0,2023-03-10T14:06:47.985491,6286160,811,530,1532,-1035,-559,-267,121,185,-67
1997,5317,0,2023-03-10T14:06:47.991043,6286166,811,530,1532,-1035,-559,-267,121,185,-67
1998,5318,0,2023-03-10T14:06:47.997382,6286172,811,530,1532,-1035,-559,-267,121,185,-67
1999,5319,0,2023-03-10T14:06:48.002822,6286177,797,518,1546,-1043,-510,-239,121,185,-67
2000,5320,0,2023-03-10T14:06:48.008772,6286183,797,518,1546,-1043,-510,-239,121,185,-67
2001,5321,0,2023-03-10T14:06:48.014775,6286189,797,518,1546,-1043,-510,-239,121,185,-67
2002,5322,0,2023-03-10T14:06:48.021783,6286196,811,529,1545,-1040,-553,-273,124,188,-60
2003,5323,0,2023-03-10T14:06:48.027202,6286201,811,529,1545,-1040,-553,-273,124,188,-60
2004,5324,0,2023-03-10T14:06:48.032047,6286206,811,529,1545,-1040,-553,-273,124,188,-60
2005,5325,0,2023-03-10T14:06:48.038284,6286213,811,529,1545,-1040,-553,-273,124,188,-60
2006,5326,0,2023-03-10T14:06:48.043094,6286218,799,520,1537,-1055,-548,-248,124,188,-60
2007,5327,0,2023-03-10T14:06:48.048520,6286224,799,520,1537,-1055,-548,-248,124,188,-60
2008,5328,0,2023-03-10T14:06:48.053459,6286228,799,520,1537,-1055,-548,-248,124,188,-60
2009,5329,0,2023-03-10T14:06:48.058589,6286233,799,520,1537,-1055,-548,-248,124,188,-60
2010,5330,0,2023-03-10T14:06:48.063414,6286238,790,527,1532,-1045,-487,-260,124,188,-60
2011,5331,0,2023-03-10T14:06:48.068538,6286243,790,527,1532,-1045,-487,-260,124,188,-60
2012,5332,0,2023-03-10T14:06:48.073313,6286248,790,527,1532,-1045,-487,-260,124,188,-60
2013,5333,0,2023-03-10T14:06:48.077992,6286253,790,527,1532,-1045,-487,-260,124,188,-60
2014,5334,0,2023-03-10T14:06:48.082546,6286258,815,525,1554,-1044,-519,-259,124,188,-60
2015,5335,0,2023-03-10T14:06:48.087574,6286263,815,525,1554,-1044,-519,-259,124,188,-60
2016,5336,0,2023-03-10T14:06:48.092365,6286267,815,525,1554,-1044,-519,-259,124,188,-60
2017,5337,0,2023-03-10T14:06:48.097761,6286272,815,525,1554,-1044,-519,-259,124,188,-60
2018,5338,0,2023-03-10T14:06:48.102675,6286277,810,524,1534,-1029,-548,-279,124,188,-60
2019,5339,0,2023-03-10T14:06:48.107963,6286283,810,524,1534,-1029,-548,-279,124,188,-60
2020,5340,0,2023-03-10T14:06:48.112753,6286287,810,524,1534,-1029,-548,-279,124,188,-60
2021,5341,0,2023-03-10T14:06:48.117337,6286292,810,524,1534,-1029,-548,-279,124,188,-60
2022,5342,0,2023-03-10T14:06:48.121892,6286297,796,515,1522,-1060,-472,-253,124,188,-60
2023,5343,0,2023-03-10T14:06:48.127099,6286302,796,515,1522,-1060,-472,-253,124,188,-60
2024,5344,0,2023-03-10T14:06:48.131642,6286307,796,515,1522,-1060,-472,-253,124,188,-60
2025,5345,0,2023-03-10T14:06:48.136879,6286312,796,515,1522,-1060,-472,-253,124,188,-60
2026,5346,0,2023-03-10T14:06:48.141362,6286316,808,536,1567,-1018,-511,-275,124,186,-56
2027,5347,0,2023-03-10T14:06:48.146813,6286321,808,536,1567,-1018,-511,-275,124,186,-56
2028,5348,0,2023-03-10T14:06:48.151260,6286326,808,536,1567,-1018,-511,-275,124,186,-56
2029,5349,0,2023-03-10T14:06:48.156817,6286331,808,536,1567,-1018,-511,-275,124,186,-56
2030,5350,0,2023-03-10T14:06:48.161333,6286337,802,519,1546,-1038,-571,-237,124,186,-56
2031,5351,0,2023-03-10T14:06:48.166439,6286342,802,519,1546,-1038,-571,-237,124,186,-56
2032,5352,0,2023-03-10T14:06:48.171385,6286347,802,519,1546,-1038,-571,-237,124,186,-56
2033,5353,0,2023-03-10T14:06:48.176656,6286351,802,519,1546,-1038,-571,-237,124,186,-56
2034,5354,0,2023-03-10T14:06:48.181557,6286356,800,528,1534,-1036,-546,-269,124,186,-56
2035,5355,0,2023-03-10T14:06:48.186829,6286362,800,528,1534,-1036,-546,-269,124,186,-56
2036,5356,0,2023-03-10T14:06:48.191725,6286366,800,528,1534,-1036,-546,-269,124,186,-56
2037,5357,0,2023-03-10T14:06:48.196853,6286371,800,528,1534,-1036,-546,-269,124,186,-56
2038,5358,0,2023-03-10T14:06:48.201503,6286376,805,526,1552,-1050,-454,-266,124,186,-56
2039,5359,0,2023-03-10T14:06:48.206936,6286382,805,526,1552,-1050,-454,-266,124,186,-56
2040,5360,0,2023-03-10T14:06:48.211748,6286387,805,526,1552,-1050,-454,-266,124,186,-56
2041,5361,0,2023-03-10T14:06:48.217921,6286393,805,526,1552,-1050,-454,-266,124,186,-56
2042,5362,0,2023-03-10T14:06:48.222498,6286397,791,519,1546,-1028,-525,-256,124,186,-56
2043,5363,0,2023-03-10T14:06:48.227885,6286403,791,519,1546,-1028,-525,-256,124,186,-56
2044,5364,0,2023-03-10T14:06:48.232924,6286407,791,519,1546,-1028,-525,-256,124,186,-56
2045,5365,0,2023-03-10T14:06:48.238378,6286413,791,519,1546,-1028,-525,-256,124,186,-56
2046,5366,0,2023-03-10T14:06:48.243536,6286418,818,535,1542,-1044,-559,-277,124,186,-56
2047,5367,0,2023-03-10T14:06:48.248842,6286424,818,535,1542,-1044,-559,-277,124,186,-56
2048,5368,0,2023-03-10T14:06:48.253285,6286428,818,535,1542,-1044,-559,-277,124,186,-56
2049,5369,0,2023-03-10T14:06:48.258934,6286434,818,535,1542,-1044,-559,-277,124,186,-56
2050,5370,0,2023-03-10T14:06:48.263907,6286439,781,513,1549,-1026,-520,-183,124,186,-56
2051,5371,0,2023-03-10T14:06:48.269358,6286444,781,513,1549,-1026,-520,-183,124,186,-56
2052,5372,0,2023-03-10T14:06:48.274853,6286450,781,513,1549,-1026,-520,-183,124,186,-56
2053,5373,0,2023-03-10T14:06:48.280508,6286455,781,513,1549,-1026,-520,-183,124,186,-56
2054,5374,0,2023-03-10T14:06:48.285532,6286460,801,528,1556,-1036,-529,-274,123,189,-69
2055,5375,0,2023-03-10T14:06:48.291120,6286466,801,528,1556,-1036,-529,-274,123,189,-69
2056,5376,0,2023-03-10T14:06:48.297220,6286472,801,528,1556,-1036,-529,-274,123,189,-69
2057,5377,0,2023-03-10T14:06:48.302174,6286477,807,523,1539,-1052,-553,-283,123,189,-69
2058,5378,0,2023-03-10T14:06:48.307374,6286482,807,523,1539,-1052,-553,-283,123,189,-69
2059,5379,0,2023-03-10T14:06:48.312607,6286487,807,523,1539,-1052,-553,-283,123,189,-69
2060,5380,0,2023-03-10T14:06:48.319196,6286493,807,523,1539,-1052,-553,-283,123,189,-69
2061,5381,0,2023-03-10T14:06:48.324104,6286498,781,511,1535,-1036,-466,-243,123,189,-69
2062,5382,0,2023-03-10T14:06:48.329553,6286504,781,511,1535,-1036,-466,-243,123,189,-69
2063,5383,0,2023-03-10T14:06:48.334424,6286509,781,511,1535,-1036,-466,-243,123,189,-69
2064,5384,0,2023-03-10T14:06:48.339740,6286515,781,511,1535,-1036,-466,-243,123,189,-69
2065,5385,0,2023-03-10T14:06:48.344732,6286520,820,533,1559,-1043,-487,-286,123,189,-69
2066,5386,0,2023-03-10T14:06:48.349959,6286525,820,533,1559,-1043,-487,-286,123,189,-69
2067,5387,0,2023-03-10T14:06:48.354721,6286529,820,533,1559,-1043,-487,-286,123,189,-69
2068,5388,0,2023-03-10T14:06:48.359612,6286534,820,533,1559,-1043,-487,-286,123,189,-69
2069,5389,0,2023-03-10T14:06:48.364403,6286539,783,518,1543,-1028,-555,-202,123,189,-69
2070,5390,0,2023-03-10T14:06:48.369510,6286544,783,518,1543,-1028,-555,-202,123,189,-69
2071,5391,0,2023-03-10T14:06:48.373922,6286548,783,518,1543,-1028,-555,-202,123,189,-69
2072,5392,0,2023-03-10T14:06:48.378464,6286554,783,518,1543,-1028,-555,-202,123,189,-69
2073,5393,0,2023-03-10T14:06:48.383125,6286558,802,527,1526,-1049,-562,-286,123,189,-69
2074,5394,0,2023-03-10T14:06:48.388131,6286563,802,527,1526,-1049,-562,-286,123,189,-69
2075,5395,0,2023-03-10T14:06:48.393037,6286568,802,527,1526,-1049,-562,-286,123,189,-69
2076,5396,0,2023-03-10T14:06:48.397828,6286573,802,527,1526,-1049,-562,-286,123,189,-69
2077,5397,0,2023-03-10T14:06:48.402327,6286577,805,524,1553,-1047,-454,-271,116,188,-60
2078,5398,0,2023-03-10T14:06:48.407387,6286582,805,524,1553,-1047,-454,-271,116,188,-60
2079,5399,0,2023-03-10T14:06:48.411902,6286586,805,524,1553,-1047,-454,-271,116,188,-60
2080,5400,0,2023-03-10T14:06:48.417278,6286593,805,524,1553,-1047,-454,-271,116,188,-60
2081,5401,0,2023-03-10T14:06:48.422139,6286597,791,515,1540,-1043,-528,-259,116,188,-60
2082,5402,0,2023-03-10T14:06:48.427296,6286602,791,515,1540,-1043,-528,-259,116,188,-60
2083,5403,0,2023-03-10T14:06:48.431829,6286607,791,515,1540,-1043,-528,-259,116,188,-60
2084,5404,0,2023-03-10T14:06:48.436950,6286612,791,515,1540,-1043,-528,-259,116,188,-60
2085,5405,0,2023-03-10T14:06:48.441698,6286616,815,527,1547,-1036,-553,-273,116,188,-60
2086,5406,0,2023-03-10T14:06:48.446748,6286621,815,527,1547,-1036,-553,-273,116,188,-60
2087,5407,0,2023-03-10T14:06:48.451483,6286626,815,527,1547,-1036,-553,-273,116,188,-60
2088,5408,0,2023-03-10T14:06:48.456153,6286631,815,527,1547,-1036,-553,-273,116,188,-60
2089,5409,0,2023-03-10T14:06:48.461172,6286637,775,512,1543,-1034,-503,-191,116,188,-60
2090,5410,0,2023-03-10T14:06:48.466303,6286641,775,512,1543,-1034,-503,-191,116,188,-60
2091,5411,0,2023-03-10T14:06:48.470832,6286646,775,512,1543,-1034,-503,-191,116,188,-60
2092,5412,0,2023-03-10T14:06:48.475812,6286651,775,512,1543,-1034,-503,-191,116,188,-60
2093,5413,0,2023-03-10T14:06:48.480453,6286655,775,512,1543,-1034,-503,-191,116,188,-60
2094,5414,0,2023-03-10T14:06:48.485129,6286660,792,524,1550,-1044,-523,-285,116,188,-60
2095,5415,0,2023-03-10T14:06:48.490062,6286665,792,524,1550,-1044,-523,-285,116,188,-60
2096,5416,0,2023-03-10T14:06:48.494532,6286669,792,524,1550,-1044,-523,-285,116,188,-60
2097,5417,0,2023-03-10T14:06:48.498881,6286673,792,524,1550,-1044,-523,-285,116,188,-60
2098,5418,0,2023-03-10T14:06:48.503287,6286679,803,524,1550,-1060,-562,-293,116,188,-60
2099,5419,0,2023-03-10T14:06:48.508392,6286684,803,524,1550,-1060,-562,-293,116,188,-60
2100,5420,0,2023-03-10T14:06:48.512915,6286688,803,524,1550,-1060,-562,-293,116,188,-60
2101,5421,0,2023-03-10T14:06:48.518460,6286693,803,524,1550,-1060,-562,-293,116,188,-60
2102,5422,0,2023-03-10T14:06:48.522870,6286698,803,524,1550,-1060,-562,-293,114,192,-68
2103,5423,0,2023-03-10T14:06:48.527100,6286702,803,524,1550,-1060,-562,-293,114,192,-68
2104,5424,0,2023-03-10T14:06:48.531588,6286706,803,524,1550,-1060,-562,-293,114,192,-68
2105,5425,0,2023-03-10T14:06:48.536241,6286711,803,524,1550,-1060,-562,-293,114,192,-68
2106,5426,0,2023-03-10T14:06:48.540799,6286715,800,521,1551,-1038,-501,-280,114,192,-68
2107,5427,0,2023-03-10T14:06:48.546065,6286721,800,521,1551,-1038,-501,-280,114,192,-68
2108,5428,0,2023-03-10T14:06:48.550547,6286726,800,521,1551,-1038,-501,-280,114,192,-68
2109,5429,0,2023-03-10T14:06:48.554997,6286730,800,521,1551,-1038,-501,-280,114,192,-68
2110,5430,0,2023-03-10T14:06:48.559661,6286735,800,521,1551,-1038,-501,-280,114,192,-68
2111,5431,0,2023-03-10T14:06:48.564325,6286739,806,531,1555,-1034,-552,-253,114,192,-68
2112,5432,0,2023-03-10T14:06:48.569124,6286744,806,531,1555,-1034,-552,-253,114,192,-68
2113,5433,0,2023-03-10T14:06:48.573651,6286748,806,531,1555,-1034,-552,-253,114,192,-68
2114,5434,0,2023-03-10T14:06:48.579363,6286754,806,531,1555,-1034,-552,-253,114,192,-68
2115,5435,0,2023-03-10T14:06:48.584225,6286759,780,519,1532,-1041,-552,-196,114,192,-68
2116,5436,0,2023-03-10T14:06:48.589461,6286765,780,519,1532,-1041,-552,-196,114,192,-68
2117,5437,0,2023-03-10T14:06:48.594079,6286769,780,519,1532,-1041,-552,-196,114,192,-68
2118,5438,0,2023-03-10T14:06:48.599121,6286774,780,519,1532,-1041,-552,-196,114,192,-68
2119,5439,0,2023-03-10T14:06:48.603584,6286779,805,525,1560,-1045,-483,-291,114,192,-68
2120,5440,0,2023-03-10T14:06:48.608787,6286784,805,525,1560,-1045,-483,-291,114,192,-68
2121,5441,0,2023-03-10T14:06:48.613516,6286788,805,525,1560,-1045,-483,-291,114,192,-68
2122,5442,0,2023-03-10T14:06:48.618892,6286794,805,525,1560,-1045,-483,-291,114,192,-68
2123,5443,0,2023-03-10T14:06:48.623648,6286798,802,527,1537,-1046,-550,-265,114,192,-68
2124,5444,0,2023-03-10T14:06:48.628585,6286803,802,527,1537,-1046,-550,-265,114,192,-68
2125,5445,0,2023-03-10T14:06:48.633177,6286808,802,527,1537,-1046,-550,-265,114,192,-68
2126,5446,0,2023-03-10T14:06:48.638395,6286814,802,527,1537,-1046,-550,-265,114,192,-68
2127,5447,0,2023-03-10T14:06:48.642798,6286818,785,518,1544,-1042,-534,-226,114,192,-68
2128,5448,0,2023-03-10T14:06:48.648080,6286823,785,518,1544,-1042,-534,-226,114,192,-68
2129,5449,0,2023-03-10T14:06:48.652430,6286827,785,518,1544,-1042,-534,-226,114,192,-68
2130,5450,0,2023-03-10T14:06:48.657841,6286833,785,518,1544,-1042,-534,-226,114,192,-68
2131,5451,0,2023-03-10T14:06:48.662188,6286837,789,522,1547,-1057,-505,-284,122,178,-70
2132,5452,0,2023-03-10T14:06:48.667434,6286842,789,522,1547,-1057,-505,-284,122,178,-70
2133,5453,0,2023-03-10T14:06:48.671933,6286846,789,522,1547,-1057,-505,-284,122,178,-70
2134,5454,0,2023-03-10T14:06:48.676503,6286852,789,522,1547,-1057,-505,-284,122,178,-70
2135,5455,0,2023-03-10T14:06:48.681307,6286856,796,523,1559,-1040,-529,-258,122,178,-70
2136,5456,0,2023-03-10T14:06:48.686510,6286862,796,523,1559,-1040,-529,-258,122,178,-70
2137,5457,0,2023-03-10T14:06:48.691185,6286866,796,523,1559,-1040,-529,-258,122,178,-70
2138,5458,0,2023-03-10T14:06:48.696233,6286871,796,523,1559,-1040,-529,-258,122,178,-70
2139,5459,0,2023-03-10T14:06:48.700582,6286875,800,527,1543,-1043,-551,-276,122,178,-70
2140,5460,0,2023-03-10T14:06:48.705753,6286880,800,527,1543,-1043,-551,-276,122,178,-70
2141,5461,0,2023-03-10T14:06:48.710148,6286885,800,527,1543,-1043,-551,-276,122,178,-70
2142,5462,0,2023-03-10T14:06:48.715285,6286891,800,527,1543,-1043,-551,-276,122,178,-70
2143,5463,0,2023-03-10T14:06:48.719848,6286895,800,527,1543,-1043,-551,-276,122,178,-70
2144,5464,0,2023-03-10T14:06:48.724413,6286900,782,514,1533,-1063,-436,-244,122,178,-70
2145,5465,0,2023-03-10T14:06:48.729908,6286905,782,514,1533,-1063,-436,-244,122,178,-70
2146,5466,0,2023-03-10T14:06:48.734513,6286909,782,514,1533,-1063,-436,-244,122,178,-70
2147,5467,0,2023-03-10T14:06:48.739595,6286915,782,514,1533,-1063,-436,-244,122,178,-70
2148,5468,0,2023-03-10T14:06:48.744085,6286919,795,525,1553,-1020,-504,-281,122,178,-70
2149,5469,0,2023-03-10T14:06:48.749065,6286924,795,525,1553,-1020,-504,-281,122,178,-70
2150,5470,0,2023-03-10T14:06:48.753580,6286928,795,525,1553,-1020,-504,-281,122,178,-70
2151,5471,0,2023-03-10T14:06:48.758606,6286934,795,525,1553,-1020,-504,-281,122,178,-70
2152,5472,0,2023-03-10T14:06:48.763195,6286938,801,526,1543,-1043,-558,-256,122,178,-70
2153,5473,0,2023-03-10T14:06:48.768281,6286944,801,526,1543,-1043,-558,-256,122,178,-70
2154,5474,0,2023-03-10T14:06:48.772753,6286948,801,526,1543,-1043,-558,-256,122,178,-70
2155,5475,0,2023-03-10T14:06:48.777232,6286952,801,526,1543,-1043,-558,-256,122,178,-70
2156,5476,0,2023-03-10T14:06:48.781793,6286957,771,516,1538,-1019,-530,-191,132,186,-62
2157,5477,0,2023-03-10T14:06:48.787308,6286962,771,516,1538,-1019,-530,-191,132,186,-62
2158,5478,0,2023-03-10T14:06:48.791844,6286967,771,516,1538,-1019,-530,-191,132,186,-62
2159,5479,0,2023-03-10T14:06:48.796882,6286971,771,516,1538,-1019,-530,-191,132,186,-62
2160,5480,0,2023-03-10T14:06:48.801603,6286977,812,526,1560,-1064,-451,-297,132,186,-62
2161,5481,0,2023-03-10T14:06:48.806619,6286982,812,526,1560,-1064,-451,-297,132,186,-62
2162,5482,0,2023-03-10T14:06:48.811144,6286986,812,526,1560,-1064,-451,-297,132,186,-62
2163,5483,0,2023-03-10T14:06:48.816259,6286991,812,526,1560,-1064,-451,-297,132,186,-62
2164,5484,0,2023-03-10T14:06:48.820921,6286996,787,518,1540,-1044,-541,-260,132,186,-62
2165,5485,0,2023-03-10T14:06:48.825819,6287001,787,518,1540,-1044,-541,-260,132,186,-62
2166,5486,0,2023-03-10T14:06:48.830328,6287005,787,518,1540,-1044,-541,-260,132,186,-62
2167,5487,0,2023-03-10T14:06:48.834990,6287010,787,518,1540,-1044,-541,-260,132,186,-62
2168,5488,0,2023-03-10T14:06:48.839486,6287014,787,518,1540,-1044,-541,-260,132,186,-62
2169,5489,0,2023-03-10T14:06:48.843817,6287019,797,524,1546,-1032,-568,-274,132,186,-62
2170,5490,0,2023-03-10T14:06:48.848848,6287024,797,524,1546,-1032,-568,-274,132,186,-62
2171,5491,0,2023-03-10T14:06:48.853428,6287029,797,524,1546,-1032,-568,-274,132,186,-62
2172,5492,0,2023-03-10T14:06:48.858407,6287033,797,524,1546,-1032,-568,-274,132,186,-62
2173,5493,0,2023-03-10T14:06:48.862840,6287038,777,522,1545,-1046,-499,-249,132,186,-62
2174,5494,0,2023-03-10T14:06:48.867726,6287043,777,522,1545,-1046,-499,-249,132,186,-62
2175,5495,0,2023-03-10T14:06:48.872160,6287047,777,522,1545,-1046,-499,-249,132,186,-62
2176,5496,0,2023-03-10T14:06:48.877578,6287052,777,522,1545,-1046,-499,-249,132,186,-62
2177,5497,0,2023-03-10T14:06:48.881981,6287057,800,530,1560,-1040,-422,-284,132,186,-62
2178,5498,0,2023-03-10T14:06:48.887173,6287062,800,530,1560,-1040,-422,-284,132,186,-62
2179,5499,0,2023-03-10T14:06:48.891788,6287067,800,530,1560,-1040,-422,-284,132,186,-62
2180,5500,0,2023-03-10T14:06:48.896094,6287071,800,530,1560,-1040,-422,-284,132,186,-62
2181,5501,0,2023-03-10T14:06:48.900501,6287076,800,530,1560,-1040,-422,-284,132,186,-62
2182,5502,0,2023-03-10T14:06:48.904950,6287080,784,520,1541,-1041,-533,-249,132,186,-62
2183,5503,0,2023-03-10T14:06:48.909737,6287085,784,520,1541,-1041,-533,-249,132,186,-62
2184,5504,0,2023-03-10T14:06:48.914787,6287089,784,520,1541,-1041,-533,-249,132,186,-62
2185,5505,0,2023-03-10T14:06:48.920258,6287095,784,520,1541,-1041,-533,-249,132,186,-62
2186,5506,0,2023-03-10T14:06:48.924857,6287099,792,523,1547,-1035,-580,-253,112,192,-62
2187,5507,0,2023-03-10T14:06:48.929851,6287105,792,523,1547,-1035,-580,-253,112,192,-62
2188,5508,0,2023-03-10T14:06:48.934511,6287110,792,523,1547,-1035,-580,-253,112,192,-62
2189,5509,0,2023-03-10T14:06:48.939701,6287115,792,523,1547,-1035,-580,-253,112,192,-62
2190,5510,0,2023-03-10T14:06:48.944141,6287119,797,523,1553,-1039,-568,-255,112,192,-62
2191,5511,0,2023-03-10T14:06:48.949019,6287124,797,523,1553,-1039,-568,-255,112,192,-62
2192,5512,0,2023-03-10T14:06:48.953797,6287129,797,523,1553,-1039,-568,-255,112,192,-62
2193,5513,0,2023-03-10T14:06:48.958853,6287134,797,523,1553,-1039,-568,-255,112,192,-62
2194,5514,0,2023-03-10T14:06:48.963141,6287138,794,523,1529,-1044,-511,-256,112,192,-62
2195,5515,0,2023-03-10T14:06:48.967615,6287142,794,523,1529,-1044,-511,-256,112,192,-62
2196,5516,0,2023-03-10T14:06:48.972172,6287148,794,523,1529,-1044,-511,-256,112,192,-62
2197,5517,0,2023-03-10T14:06:48.977207,6287152,794,523,1529,-1044,-511,-256,112,192,-62
2198,5518,0,2023-03-10T14:06:48.981846,6287157,785,527,1551,-1025,-522,-241,112,192,-62
2199,5519,0,2023-03-10T14:06:48.987109,6287162,785,527,1551,-1025,-522,-241,112,192,-62
2200,5520,0,2023-03-10T14:06:48.991524,6287167,785,527,1551,-1025,-522,-241,112,192,-62
2201,5521,0,2023-03-10T14:06:48.997096,6287172,785,527,1551,-1025,-522,-241,112,192,-62
2202,5522,0,2023-03-10T14:06:49.001595,6287176,774,518,1543,-1044,-516,-230,112,192,-62
2203,5523,0,2023-03-10T14:06:49.006681,6287181,774,518,1543,-1044,-516,-230,112,192,-62
2204,5524,0,2023-03-10T14:06:49.011253,6287186,774,518,1543,-1044,-516,-230,112,192,-62
2205,5525,0,2023-03-10T14:06:49.016688,6287192,774,518,1543,-1044,-516,-230,112,192,-62
2206,5526,0,2023-03-10T14:06:49.021197,6287196,791,523,1550,-1060,-525,-302,112,192,-62
2207,5527,0,2023-03-10T14:06:49.026233,6287201,791,523,1550,-1060,-525,-302,112,192,-62
2208,5528,0,2023-03-10T14:06:49.030870,6287206,791,523,1550,-1060,-525,-302,112,192,-62
2209,5529,0,2023-03-10T14:06:49.035427,6287210,791,523,1550,-1060,-525,-302,112,192,-62
2210,5530,0,2023-03-10T14:06:49.039992,6287215,791,523,1550,-1060,-525,-302,112,192,-62
2211,5531,0,2023-03-10T14:06:49.044390,6287219,798,524,1545,-1035,-551,-245,121,195,-61
2212,5532,0,2023-03-10T14:06:49.049797,6287224,798,524,1545,-1035,-551,-245,121,195,-61
2213,5533,0,2023-03-10T14:06:49.054064,6287229,798,524,1545,-1035,-551,-245,121,195,-61
2214,5534,0,2023-03-10T14:06:49.058757,6287234,798,524,1545,-1035,-551,-245,121,195,-61
2215,5535,0,2023-03-10T14:06:49.063418,6287239,776,520,1542,-1027,-493,-236,121,195,-61
2216,5536,0,2023-03-10T14:06:49.068389,6287244,776,520,1542,-1027,-493,-236,121,195,-61
2217,5537,0,2023-03-10T14:06:49.072941,6287248,776,520,1542,-1027,-493,-236,121,195,-61
2218,5538,0,2023-03-10T14:06:49.078025,6287253,776,520,1542,-1027,-493,-236,121,195,-61
2219,5539,0,2023-03-10T14:06:49.082916,6287257,798,528,1539,-1047,-535,-299,121,195,-61
2220,5540,0,2023-03-10T14:06:49.088108,6287263,798,528,1539,-1047,-535,-299,121,195,-61
2221,5541,0,2023-03-10T14:06:49.092627,6287267,798,528,1539,-1047,-535,-299,121,195,-61
2222,5542,0,2023-03-10T14:06:49.098192,6287273,798,528,1539,-1047,-535,-299,121,195,-61
2223,5543,0,2023-03-10T14:06:49.102864,6287278,785,523,1546,-1029,-508,-253,121,195,-61
2224,5544,0,2023-03-10T14:06:49.107939,6287283,785,523,1546,-1029,-508,-253,121,195,-61
2225,5545,0,2023-03-10T14:06:49.112479,6287288,785,523,1546,-1029,-508,-253,121,195,-61
2226,5546,0,2023-03-10T14:06:49.118010,6287293,785,523,1546,-1029,-508,-253,121,195,-61
2227,5547,0,2023-03-10T14:06:49.122434,6287297,785,520,1547,-1034,-496,-275,121,195,-61
2228,5548,0,2023-03-10T14:06:49.126939,6287302,785,520,1547,-1034,-496,-275,121,195,-61
2229,5549,0,2023-03-10T14:06:49.131577,6287306,785,520,1547,-1034,-496,-275,121,195,-61
2230,5550,0,2023-03-10T14:06:49.136163,6287311,785,520,1547,-1034,-496,-275,121,195,-61
2231,5551,0,2023-03-10T14:06:49.140881,6287315,785,520,1547,-1034,-496,-275,121,195,-61
2232,5552,0,2023-03-10T14:06:49.145432,6287321,786,520,1547,-1040,-554,-288,121,195,-61
2233,5553,0,2023-03-10T14:06:49.150362,6287326,786,520,1547,-1040,-554,-288,121,195,-61
2234,5554,0,2023-03-10T14:06:49.155321,6287330,786,520,1547,-1040,-554,-288,121,195,-61
2235,5555,0,2023-03-10T14:06:49.159935,6287335,786,520,1547,-1040,-554,-288,121,195,-61
2236,5556,0,2023-03-10T14:06:49.164362,6287339,778,518,1547,-1053,-483,-255,118,190,-70
2237,5557,0,2023-03-10T14:06:49.169174,6287344,778,518,1547,-1053,-483,-255,118,190,-70
2238,5558,0,2023-03-10T14:06:49.173656,6287348,778,518,1547,-1053,-483,-255,118,190,-70
2239,5559,0,2023-03-10T14:06:49.178090,6287353,778,518,1547,-1053,-483,-255,118,190,-70
2240,5560,0,2023-03-10T14:06:49.182487,6287357,789,525,1555,-1040,-527,-275,118,190,-70
2241,5561,0,2023-03-10T14:06:49.187418,6287363,789,525,1555,-1040,-527,-275,118,190,-70
2242,5562,0,2023-03-10T14:06:49.191928,6287367,789,525,1555,-1040,-527,-275,118,190,-70
2243,5563,0,2023-03-10T14:06:49.197614,6287373,789,525,1555,-1040,-527,-275,118,190,-70
2244,5564,0,2023-03-10T14:06:49.202385,6287377,778,517,1555,-1041,-537,-222,118,190,-70
2245,5565,0,2023-03-10T14:06:49.207276,6287382,778,517,1555,-1041,-537,-222,118,190,-70
2246,5566,0,2023-03-10T14:06:49.211722,6287386,778,517,1555,-1041,-537,-222,118,190,-70
2247,5567,0,2023-03-10T14:06:49.216916,6287391,778,517,1555,-1041,-537,-222,118,190,-70
2248,5568,0,2023-03-10T14:06:49.221354,6287396,788,528,1546,-1039,-533,-258,118,190,-70
2249,5569,0,2023-03-10T14:06:49.226424,6287401,788,528,1546,-1039,-533,-258,118,190,-70
2250,5570,0,2023-03-10T14:06:49.230741,6287406,788,528,1546,-1039,-533,-258,118,190,-70
2251,5571,0,2023-03-10T14:06:49.235851,6287411,788,528,1546,-1039,-533,-258,118,190,-70
2252,5572,0,2023-03-10T14:06:49.240437,6287415,788,528,1546,-1039,-533,-258,118,190,-70
2253,5573,0,2023-03-10T14:06:49.245022,6287420,795,526,1555,-1047,-519,-265,118,190,-70
2254,5574,0,2023-03-10T14:06:49.250286,6287425,795,526,1555,-1047,-519,-265,118,190,-70
2255,5575,0,2023-03-10T14:06:49.255393,6287430,795,526,1555,-1047,-519,-265,118,190,-70
2256,5576,0,2023-03-10T14:06:49.260367,6287435,795,526,1555,-1047,-519,-265,118,190,-70
2257,5577,0,2023-03-10T14:06:49.265508,6287440,788,528,1537,-1042,-509,-276,118,190,-70
2258,5578,0,2023-03-10T14:06:49.270374,6287446,788,528,1537,-1042,-509,-276,118,190,-70
2259,5579,0,2023-03-10T14:06:49.275693,6287451,788,528,1537,-1042,-509,-276,118,190,-70
2260,5580,0,2023-03-10T14:06:49.280211,6287455,788,528,1537,-1042,-509,-276,118,190,-70
2261,5581,0,2023-03-10T14:06:49.284896,6287460,776,519,1548,-1039,-516,-231,118,190,-70
2262,5582,0,2023-03-10T14:06:49.289684,6287465,776,519,1548,-1039,-516,-231,118,190,-70
2263,5583,0,2023-03-10T14:06:49.294205,6287469,776,519,1548,-1039,-516,-231,118,190,-70
2264,5584,0,2023-03-10T14:06:49.299351,6287474,776,519,1548,-1039,-516,-231,118,190,-70
2265,5585,0,2023-03-10T14:06:49.303860,6287478,773,517,1556,-1031,-518,-243,117,195,-63
2266,5586,0,2023-03-10T14:06:49.308699,6287483,773,517,1556,-1031,-518,-243,117,195,-63
2267,5587,0,2023-03-10T14:06:49.313217,6287489,773,517,1556,-1031,-518,-243,117,195,-63
2268,5588,0,2023-03-10T14:06:49.318468,6287494,773,517,1556,-1031,-518,-243,117,195,-63
2269,5589,0,2023-03-10T14:06:49.322967,6287498,798,526,1550,-1069,-513,-307,117,195,-63
2270,5590,0,2023-03-10T14:06:49.327991,6287503,798,526,1550,-1069,-513,-307,117,195,-63
2271,5591,0,2023-03-10T14:06:49.332527,6287507,798,526,1550,-1069,-513,-307,117,195,-63
2272,5592,0,2023-03-10T14:06:49.337523,6287512,798,526,1550,-1069,-513,-307,117,195,-63
2273,5593,0,2023-03-10T14:06:49.342202,6287517,787,519,1541,-1032,-547,-244,117,195,-63
2274,5594,0,2023-03-10T14:06:49.346622,6287521,787,519,1541,-1032,-547,-244,117,195,-63
2275,5595,0,2023-03-10T14:06:49.351344,6287526,787,519,1541,-1032,-547,-244,117,195,-63
2276,5596,0,2023-03-10T14:06:49.356397,6287532,787,519,1541,-1032,-547,-244,117,195,-63
2277,5597,0,2023-03-10T14:06:49.360940,6287536,787,519,1541,-1032,-547,-244,117,195,-63
2278,5598,0,2023-03-10T14:06:49.365365,6287541,794,524,1546,-1040,-492,-276,117,195,-63
2279,5599,0,2023-03-10T14:06:49.370282,6287545,794,524,1546,-1040,-492,-276,117,195,-63
2280,5600,0,2023-03-10T14:06:49.375743,6287551,794,524,1546,-1040,-492,-276,117,195,-63
2281,5601,0,2023-03-10T14:06:49.380960,6287556,794,524,1546,-1040,-492,-276,117,195,-63
2282,5602,0,2023-03-10T14:06:49.385730,6287560,774,519,1555,-1016,-527,-219,117,195,-63
2283,5603,0,2023-03-10T14:06:49.390815,6287566,774,519,1555,-1016,-527,-219,117,195,-63
2284,5604,0,2023-03-10T14:06:49.396132,6287570,774,519,1555,-1016,-527,-219,117,195,-63
2285,5605,0,2023-03-10T14:06:49.400708,6287576,774,519,1555,-1016,-527,-219,117,195,-63
2286,5606,0,2023-03-10T14:06:49.405273,6287580,769,518,1553,-1030,-518,-235,117,195,-63
2287,5607,0,2023-03-10T14:06:49.410169,6287585,769,518,1553,-1030,-518,-235,117,195,-63
2288,5608,0,2023-03-10T14:06:49.414462,6287590,769,518,1553,-1030,-518,-235,117,195,-63
2289,5609,0,2023-03-10T14:06:49.419102,6287594,769,518,1553,-1030,-518,-235,117,195,-63
2290,5610,0,2023-03-10T14:06:49.424127,6287599,791,523,1550,-1061,-526,-307,126,196,-66
2291,5611,0,2023-03-10T14:06:49.429295,6287604,791,523,1550,-1061,-526,-307,126,196,-66
2292,5612,0,2023-03-10T14:06:49.433631,6287608,791,523,1550,-1061,-526,-307,126,196,-66
2293,5613,0,2023-03-10T14:06:49.438678,6287613,791,523,1550,-1061,-526,-307,126,196,-66
2294,5614,0,2023-03-10T14:06:49.444904,6287620,787,520,1548,-1037,-550,-263,126,196,-66
2295,5615,0,2023-03-10T14:06:49.450148,6287625,787,520,1548,-1037,-550,-263,126,196,-66
2296,5616,0,2023-03-10T14:06:49.454804,6287630,787,520,1548,-1037,-550,-263,126,196,-66
2297,5617,0,2023-03-10T14:06:49.460134,6287635,787,520,1548,-1037,-550,-263,126,196,-66
2298,5618,0,2023-03-10T14:06:49.464730,6287640,799,526,1550,-1044,-504,-283,126,196,-66
2299,5619,0,2023-03-10T14:06:49.469895,6287645,799,526,1550,-1044,-504,-283,126,196,-66
2300,5620,0,2023-03-10T14:06:49.474394,6287649,799,526,1550,-1044,-504,-283,126,196,-66
2301,5621,0,2023-03-10T14:06:49.479172,6287654,799,526,1550,-1044,-504,-283,126,196,-66
2302,5622,0,2023-03-10T14:06:49.483869,6287659,771,519,1550,-1022,-523,-221,126,196,-66
2303,5623,0,2023-03-10T14:06:49.488967,6287664,771,519,1550,-1022,-523,-221,126,196,-66
2304,5624,0,2023-03-10T14:06:49.493299,6287669,771,519,1550,-1022,-523,-221,126,196,-66
2305,5625,0,2023-03-10T14:06:49.498350,6287674,771,519,1550,-1022,-523,-221,126,196,-66
2306,5626,0,2023-03-10T14:06:49.502880,6287678,773,516,1550,-1043,-510,-264,126,196,-66
2307,5627,0,2023-03-10T14:06:49.507224,6287682,773,516,1550,-1043,-510,-264,126,196,-66
2308,5628,0,2023-03-10T14:06:49.511622,6287687,773,516,1550,-1043,-510,-264,126,196,-66
2309,5629,0,2023-03-10T14:06:49.516758,6287691,773,516,1550,-1043,-510,-264,126,196,-66
2310,5630,0,2023-03-10T14:06:49.521440,6287696,773,516,1550,-1043,-510,-264,126,196,-66
2311,5631,0,2023-03-10T14:06:49.525791,6287700,794,530,1546,-1046,-534,-296,126,196,-66
2312,5632,0,2023-03-10T14:06:49.530709,6287706,794,530,1546,-1046,-534,-296,126,196,-66
2313,5633,0,2023-03-10T14:06:49.536050,6287711,794,530,1546,-1046,-534,-296,126,196,-66
2314,5634,0,2023-03-10T14:06:49.540673,6287716,794,530,1546,-1046,-534,-296,126,196,-66
2315,5635,0,2023-03-10T14:06:49.545081,6287720,783,519,1547,-1034,-532,-229,126,196,-66
2316,5636,0,2023-03-10T14:06:49.550106,6287725,783,519,1547,-1034,-532,-229,126,196,-66
2317,5637,0,2023-03-10T14:06:49.554568,6287729,783,519,1547,-1034,-532,-229,126,196,-66
2318,5638,0,2023-03-10T14:06:49.559624,6287734,783,519,1547,-1034,-532,-229,126,196,-66
2319,5639,0,2023-03-10T14:06:49.564263,6287739,789,523,1554,-1046,-500,-271,109,187,-63
2320,5640,0,2023-03-10T14:06:49.569452,6287745,789,523,1554,-1046,-500,-271,109,187,-63
2321,5641,0,2023-03-10T14:06:49.574046,6287749,789,523,1554,-1046,-500,-271,109,187,-63
2322,5642,0,2023-03-10T14:06:49.579605,6287755,789,523,1554,-1046,-500,-271,109,187,-63
2323,5643,0,2023-03-10T14:06:49.584073,6287759,781,520,1537,-1040,-530,-256,109,187,-63
2324,5644,0,2023-03-10T14:06:49.589121,6287764,781,520,1537,-1040,-530,-256,109,187,-63
2325,5645,0,2023-03-10T14:06:49.593887,6287769,781,520,1537,-1040,-530,-256,109,187,-63
2326,5646,0,2023-03-10T14:06:49.599520,6287774,781,520,1537,-1040,-530,-256,109,187,-63
2327,5647,0,2023-03-10T14:06:49.604183,6287779,782,522,1553,-1033,-495,-255,109,187,-63
2328,5648,0,2023-03-10T14:06:49.609140,6287784,782,522,1553,-1033,-495,-255,109,187,-63
2329,5649,0,2023-03-10T14:06:49.613632,6287789,782,522,1553,-1033,-495,-255,109,187,-63
2330,5650,0,2023-03-10T14:06:49.618744,6287794,782,522,1553,-1033,-495,-255,109,187,-63
2331,5651,0,2023-03-10T14:06:49.623229,6287799,777,521,1545,-1038,-532,-257,109,187,-63
2332,5652,0,2023-03-10T14:06:49.628512,6287803,777,521,1545,-1038,-532,-257,109,187,-63
2333,5653,0,2023-03-10T14:06:49.633286,6287808,777,521,1545,-1038,-532,-257,109,187,-63
2334,5654,0,2023-03-10T14:06:49.638585,6287813,777,521,1545,-1038,-532,-257,109,187,-63
2335,5655,0,2023-03-10T14:06:49.643169,6287818,794,530,1547,-1037,-542,-262,109,187,-63
2336,5656,0,2023-03-10T14:06:49.648207,6287823,794,530,1547,-1037,-542,-262,109,187,-63
2337,5657,0,2023-03-10T14:06:49.652738,6287827,794,530,1547,-1037,-542,-262,109,187,-63
2338,5658,0,2023-03-10T14:06:49.657943,6287833,794,530,1547,-1037,-542,-262,109,187,-63
2339,5659,0,2023-03-10T14:06:49.662608,6287838,777,520,1544,-1042,-481,-252,109,187,-63
2340,5660,0,2023-03-10T14:06:49.667619,6287843,777,520,1544,-1042,-481,-252,109,187,-63
2341,5661,0,2023-03-10T14:06:49.672430,6287847,777,520,1544,-1042,-481,-252,109,187,-63
2342,5662,0,2023-03-10T14:06:49.678032,6287853,777,520,1544,-1042,-481,-252,109,187,-63
2343,5663,0,2023-03-10T14:06:49.682414,6287857,778,519,1543,-1037,-537,-259,120,194,-70
2344,5664,0,2023-03-10T14:06:49.687411,6287862,778,519,1543,-1037,-537,-259,120,194,-70
2345,5665,0,2023-03-10T14:06:49.691894,6287866,778,519,1543,-1037,-537,-259,120,194,-70
2346,5666,0,2023-03-10T14:06:49.697055,6287872,778,519,1543,-1037,-537,-259,120,194,-70
2347,5667,0,2023-03-10T14:06:49.701630,6287877,778,519,1543,-1037,-537,-259,120,194,-70
2348,5668,0,2023-03-10T14:06:49.706101,6287881,776,525,1562,-1027,-506,-234,120,194,-70
2349,5669,0,2023-03-10T14:06:49.710903,6287886,776,525,1562,-1027,-506,-234,120,194,-70
2350,5670,0,2023-03-10T14:06:49.715200,6287890,776,525,1562,-1027,-506,-234,120,194,-70
2351,5671,0,2023-03-10T14:06:49.719718,6287895,776,525,1562,-1027,-506,-234,120,194,-70
2352,5672,0,2023-03-10T14:06:49.724233,6287899,792,524,1550,-1045,-450,-257,120,194,-70
2353,5673,0,2023-03-10T14:06:49.729266,6287904,792,524,1550,-1045,-450,-257,120,194,-70
2354,5674,0,2023-03-10T14:06:49.733824,6287908,792,524,1550,-1045,-450,-257,120,194,-70
2355,5675,0,2023-03-10T14:06:49.738338,6287913,792,524,1550,-1045,-450,-257,120,194,-70
2356,5676,0,2023-03-10T14:06:49.743265,6287919,771,515,1547,-1047,-535,-236,120,194,-70
2357,5677,0,2023-03-10T14:06:49.748397,6287924,771,515,1547,-1047,-535,-236,120,194,-70
2358,5678,0,2023-03-10T14:06:49.753043,6287928,771,515,1547,-1047,-535,-236,120,194,-70
2359,5679,0,2023-03-10T14:06:49.759067,6287934,771,515,1547,-1047,-535,-236,120,194,-70
2360,5680,0,2023-03-10T14:06:49.763732,6287939,792,527,1557,-1033,-582,-251,120,194,-70
2361,5681,0,2023-03-10T14:06:49.769012,6287944,792,527,1557,-1033,-582,-251,120,194,-70
2362,5682,0,2023-03-10T14:06:49.773541,6287948,792,527,1557,-1033,-582,-251,120,194,-70
2363,5683,0,2023-03-10T14:06:49.778840,6287953,792,527,1557,-1033,-582,-251,120,194,-70
2364,5684,0,2023-03-10T14:06:49.783181,6287959,772,518,1540,-1041,-532,-236,120,194,-70
2365,5685,0,2023-03-10T14:06:49.788161,6287964,772,518,1540,-1041,-532,-236,120,194,-70
2366,5686,0,2023-03-10T14:06:49.792410,6287968,772,518,1540,-1041,-532,-236,120,194,-70
2367,5687,0,2023-03-10T14:06:49.797339,6287972,772,518,1540,-1041,-532,-236,120,194,-70
2368,5688,0,2023-03-10T14:06:49.802052,6287977,772,518,1540,-1041,-532,-236,120,194,-70
2369,5689,0,2023-03-10T14:06:49.806616,6287981,776,519,1543,-1037,-527,-227,120,194,-70
2370,5690,0,2023-03-10T14:06:49.811623,6287986,776,519,1543,-1037,-527,-227,120,194,-70
2371,5691,0,2023-03-10T14:06:49.816161,6287991,776,519,1543,-1037,-527,-227,120,194,-70
2372,5692,0,2023-03-10T14:06:49.820781,6287995,776,519,1543,-1037,-527,-227,120,194,-70
2373,5693,0,2023-03-10T14:06:49.825393,6288001,774,519,1564,-1028,-561,-228,120,186,-58
2374,5694,0,2023-03-10T14:06:49.830471,6288006,774,519,1564,-1028,-561,-228,120,186,-58
2375,5695,0,2023-03-10T14:06:49.835172,6288010,774,519,1564,-1028,-561,-228,120,186,-58
2376,5696,0,2023-03-10T14:06:49.840860,6288016,774,519,1564,-1028,-561,-228,120,186,-58
2377,5697,0,2023-03-10T14:06:49.845251,6288020,792,534,1545,-1044,-560,-272,120,186,-58
2378,5698,0,2023-03-10T14:06:49.850274,6288025,792,534,1545,-1044,-560,-272,120,186,-58
2379,5699,0,2023-03-10T14:06:49.854875,6288029,792,534,1545,-1044,-560,-272,120,186,-58
2380,5700,0,2023-03-10T14:06:49.860245,6288035,792,534,1545,-1044,-560,-272,120,186,-58
2381,5701,0,2023-03-10T14:06:49.864913,6288039,769,516,1543,-1035,-517,-188,120,186,-58
2382,5702,0,2023-03-10T14:06:49.870039,6288045,769,516,1543,-1035,-517,-188,120,186,-58
2383,5703,0,2023-03-10T14:06:49.874591,6288050,769,516,1543,-1035,-517,-188,120,186,-58
2384,5704,0,2023-03-10T14:06:49.879413,6288055,769,516,1543,-1035,-517,-188,120,186,-58
2385,5705,0,2023-03-10T14:06:49.883984,6288059,783,526,1556,-1033,-551,-278,120,186,-58
2386,5706,0,2023-03-10T14:06:49.889221,6288064,783,526,1556,-1033,-551,-278,120,186,-58
2387,5707,0,2023-03-10T14:06:49.893690,6288069,783,526,1556,-1033,-551,-278,120,186,-58
2388,5708,0,2023-03-10T14:06:49.899126,6288074,783,526,1556,-1033,-551,-278,120,186,-58
2389,5709,0,2023-03-10T14:06:49.903811,6288078,785,522,1547,-1046,-555,-242,120,186,-58
2390,5710,0,2023-03-10T14:06:49.909138,6288084,785,522,1547,-1046,-555,-242,120,186,-58
2391,5711,0,2023-03-10T14:06:49.913907,6288089,785,522,1547,-1046,-555,-242,120,186,-58
2392,5712,0,2023-03-10T14:06:49.919256,6288094,785,522,1547,-1046,-555,-242,120,186,-58
2393,5713,0,2023-03-10T14:06:49.923958,6288099,763,515,1551,-1025,-560,-240,120,186,-58
2394,5714,0,2023-03-10T14:06:49.929918,6288104,763,515,1551,-1025,-560,-240,120,186,-58
2395,5715,0,2023-03-10T14:06:49.934443,6288109,763,515,1551,-1025,-560,-240,120,186,-58
2396,5716,0,2023-03-10T14:06:49.939238,6288114,763,515,1551,-1025,-560,-240,120,186,-58
2397,5717,0,2023-03-10T14:06:49.943879,6288119,788,531,1551,-1065,-536,-289,128,198,-76
2398,5718,0,2023-03-10T14:06:49.948903,6288123,788,531,1551,-1065,-536,-289,128,198,-76
2399,5719,0,2023-03-10T14:06:49.953337,6288129,788,531,1551,-1065,-536,-289,128,198,-76
2400,5720,0,2023-03-10T14:06:49.957712,6288133,788,531,1551,-1065,-536,-289,128,198,-76
2401,5721,0,2023-03-10T14:06:49.962251,6288137,788,531,1551,-1065,-536,-289,128,198,-76
2402,5722,0,2023-03-10T14:06:49.966575,6288142,773,520,1565,-1015,-520,-199,128,198,-76
2403,5723,0,2023-03-10T14:06:49.971540,6288147,773,520,1565,-1015,-520,-199,128,198,-76
2404,5724,0,2023-03-10T14:06:49.976713,6288152,773,520,1565,-1015,-520,-199,128,198,-76
2405,5725,0,2023-03-10T14:06:49.981393,6288156,773,520,1565,-1015,-520,-199,128,198,-76
2406,5726,0,2023-03-10T14:06:49.985729,6288161,767,519,1545,-1041,-561,-256,128,198,-76
2407,5727,0,2023-03-10T14:06:49.990890,6288165,767,519,1545,-1041,-561,-256,128,198,-76
2408,5728,0,2023-03-10T14:06:49.996584,6288172,767,519,1545,-1041,-561,-256,128,198,-76
2409,5729,0,2023-03-10T14:06:50.001307,6288177,767,519,1545,-1041,-561,-256,128,198,-76
2410,5730,0,2023-03-10T14:06:50.005870,6288181,787,521,1549,-1056,-568,-287,128,198,-76
2411,5731,0,2023-03-10T14:06:50.010880,6288186,787,521,1549,-1056,-568,-287,128,198,-76
2412,5732,0,2023-03-10T14:06:50.015998,6288191,787,521,1549,-1056,-568,-287,128,198,-76
2413,5733,0,2023-03-10T14:06:50.020570,6288196,787,521,1549,-1056,-568,-287,128,198,-76
2414,5734,0,2023-03-10T14:06:50.025109,6288200,778,523,1560,-1028,-565,-244,128,198,-76
2415,5735,0,2023-03-10T14:06:50.030346,6288205,778,523,1560,-1028,-565,-244,128,198,-76
2416,5736,0,2023-03-10T14:06:50.034909,6288209,778,523,1560,-1028,-565,-244,128,198,-76
2417,5737,0,2023-03-10T14:06:50.040286,6288216,778,523,1560,-1028,-565,-244,128,198,-76
2418,5738,0,2023-03-10T14:06:50.044774,6288220,776,518,1541,-1057,-570,-251,128,198,-76
2419,5739,0,2023-03-10T14:06:50.049830,6288225,776,518,1541,-1057,-570,-251,128,198,-76
2420,5740,0,2023-03-10T14:06:50.054460,6288229,776,518,1541,-1057,-570,-251,128,198,-76
2421,5741,0,2023-03-10T14:06:50.059885,6288235,776,518,1541,-1057,-570,-251,128,198,-76
2422,5742,0,2023-03-10T14:06:50.064528,6288239,774,517,1562,-1026,-566,-240,117,201,-65
2423,5743,0,2023-03-10T14:06:50.069668,6288244,774,517,1562,-1026,-566,-240,117,201,-65
2424,5744,0,2023-03-10T14:06:50.074100,6288249,774,517,1562,-1026,-566,-240,117,201,-65
2425,5745,0,2023-03-10T14:06:50.079234,6288254,774,517,1562,-1026,-566,-240,117,201,-65
2426,5746,0,2023-03-10T14:06:50.083908,6288259,778,525,1554,-1055,-578,-263,117,201,-65
2427,5747,0,2023-03-10T14:06:50.088991,6288264,778,525,1554,-1055,-578,-263,117,201,-65
2428,5748,0,2023-03-10T14:06:50.093573,6288269,778,525,1554,-1055,-578,-263,117,201,-65
2429,5749,0,2023-03-10T14:06:50.099254,6288274,778,525,1554,-1055,-578,-263,117,201,-65
2430,5750,0,2023-03-10T14:06:50.103958,6288279,774,523,1550,-1039,-573,-248,117,201,-65
2431,5751,0,2023-03-10T14:06:50.109069,6288284,774,523,1550,-1039,-573,-248,117,201,-65
2432,5752,0,2023-03-10T14:06:50.113759,6288288,774,523,1550,-1039,-573,-248,117,201,-65
2433,5753,0,2023-03-10T14:06:50.118670,6288293,774,523,1550,-1039,-573,-248,117,201,-65
2434,5754,0,2023-03-10T14:06:50.123247,6288299,780,522,1553,-1036,-584,-247,117,201,-65
2435,5755,0,2023-03-10T14:06:50.128277,6288304,780,522,1553,-1036,-584,-247,117,201,-65
2436,5756,0,2023-03-10T14:06:50.132702,6288308,780,522,1553,-1036,-584,-247,117,201,-65
2437,5757,0,2023-03-10T14:06:50.138055,6288313,780,522,1553,-1036,-584,-247,117,201,-65
2438,5758,0,2023-03-10T14:06:50.142947,6288318,775,516,1540,-1031,-581,-246,117,201,-65
2439,5759,0,2023-03-10T14:06:50.148254,6288323,775,516,1540,-1031,-581,-246,117,201,-65
2440,5760,0,2023-03-10T14:06:50.152653,6288328,775,516,1540,-1031,-581,-246,117,201,-65
2441,5761,0,2023-03-10T14:06:50.157871,6288332,775,516,1540,-1031,-581,-246,117,201,-65
2442,5762,0,2023-03-10T14:06:50.162215,6288337,775,516,1540,-1031,-581,-246,117,201,-65
2443,5763,0,2023-03-10T14:06:50.166729,6288342,783,519,1554,-1031,-580,-264,117,201,-65
2444,5764,0,2023-03-10T14:06:50.172073,6288347,783,519,1554,-1031,-580,-264,117,201,-65
2445,5765,0,2023-03-10T14:06:50.176920,6288352,783,519,1554,-1031,-580,-264,117,201,-65
2446,5766,0,2023-03-10T14:06:50.181255,6288357,783,519,1554,-1031,-580,-264,117,201,-65
2447,5767,0,2023-03-10T14:06:50.185783,6288361,778,522,1549,-1035,-570,-240,117,201,-65
2448,5768,0,2023-03-10T14:06:50.190996,6288366,778,522,1549,-1035,-570,-240,117,201,-65
2449,5769,0,2023-03-10T14:06:50.196109,6288371,778,522,1549,-1035,-570,-240,117,201,-65
2450,5770,0,2023-03-10T14:06:50.200755,6288375,778,522,1549,-1035,-570,-240,117,201,-65
2451,5771,0,2023-03-10T14:06:50.205178,6288380,765,515,1551,-1038,-573,-223,120,192,-66
2452,5772,0,2023-03-10T14:06:50.210500,6288386,765,515,1551,-1038,-573,-223,120,192,-66
2453,5773,0,2023-03-10T14:06:50.215288,6288390,765,515,1551,-1038,-573,-223,120,192,-66
2454,5774,0,2023-03-10T14:06:50.220578,6288396,765,515,1551,-1038,-573,-223,120,192,-66
2455,5775,0,2023-03-10T14:06:50.225365,6288401,791,532,1565,-1046,-590,-300,120,192,-66
2456,5776,0,2023-03-10T14:06:50.230547,6288405,791,532,1565,-1046,-590,-300,120,192,-66
2457,5777,0,2023-03-10T14:06:50.235047,6288410,791,532,1565,-1046,-590,-300,120,192,-66
2458,5778,0,2023-03-10T14:06:50.240683,6288416,791,532,1565,-1046,-590,-300,120,192,-66
2459,5779,0,2023-03-10T14:06:50.245389,6288420,781,518,1544,-1059,-593,-257,120,192,-66
2460,5780,0,2023-03-10T14:06:50.250454,6288425,781,518,1544,-1059,-593,-257,120,192,-66
2461,5781,0,2023-03-10T14:06:50.254848,6288430,781,518,1544,-1059,-593,-257,120,192,-66
2462,5782,0,2023-03-10T14:06:50.260761,6288436,781,518,1544,-1059,-593,-257,120,192,-66
2463,5783,0,2023-03-10T14:06:50.265419,6288440,774,511,1550,-1045,-587,-246,120,192,-66
2464,5784,0,2023-03-10T14:06:50.270497,6288446,774,511,1550,-1045,-587,-246,120,192,-66
2465,5785,0,2023-03-10T14:06:50.274937,6288450,774,511,1550,-1045,-587,-246,120,192,-66
2466,5786,0,2023-03-10T14:06:50.279756,6288455,774,511,1550,-1045,-587,-246,120,192,-66
2467,5787,0,2023-03-10T14:06:50.284210,6288459,790,529,1557,-1040,-583,-272,120,192,-66
2468,5788,0,2023-03-10T14:06:50.289209,6288464,790,529,1557,-1040,-583,-272,120,192,-66
2469,5789,0,2023-03-10T14:06:50.293643,6288468,790,529,1557,-1040,-583,-272,120,192,-66
2470,5790,0,2023-03-10T14:06:50.299101,6288474,790,529,1557,-1040,-583,-272,120,192,-66
2471,5791,0,2023-03-10T14:06:50.303629,6288479,768,517,1546,-1041,-591,-237,120,192,-66
2472,5792,0,2023-03-10T14:06:50.308653,6288484,768,517,1546,-1041,-591,-237,120,192,-66
2473,5793,0,2023-03-10T14:06:50.313388,6288488,768,517,1546,-1041,-591,-237,120,192,-66
2474,5794,0,2023-03-10T14:06:50.318669,6288494,768,517,1546,-1041,-591,-237,120,192,-66
2475,5795,0,2023-03-10T14:06:50.323383,6288498,768,523,1544,-1050,-600,-271,111,187,-66
2476,5796,0,2023-03-10T14:06:50.328526,6288503,768,523,1544,-1050,-600,-271,111,187,-67
2477,5797,0,2023-03-10T14:06:50.332987,6288508,768,523,1544,-1050,-600,-271,111,187,-67
2478,5798,0,2023-03-10T14:06:50.338167,6288514,768,523,1544,-1050,-600,-271,111,187,-67
2479,5799,0,2023-03-10T14:06:50.342651,6288518,768,523,1544,-1050,-600,-271,111,187,-67
2480,5800,0,2023-03-10T14:06:50.347357,6288523,789,523,1563,-1049,-623,-272,111,187,-67
2481,5801,0,2023-03-10T14:06:50.352281,6288528,789,523,1563,-1049,-623,-272,111,187,-67
2482,5802,0,2023-03-10T14:06:50.357687,6288533,789,523,1563,-1049,-623,-272,111,187,-67
2483,5803,0,2023-03-10T14:06:50.362243,6288537,789,523,1563,-1049,-623,-272,111,187,-67
2484,5804,0,2023-03-10T14:06:50.366710,6288541,784,528,1558,-1036,-623,-248,111,187,-67
2485,5805,0,2023-03-10T14:06:50.372119,6288547,784,528,1558,-1036,-623,-248,111,187,-67
2486,5806,0,2023-03-10T14:06:50.377928,6288552,784,528,1558,-1036,-623,-248,111,187,-67
2487,5807,0,2023-03-10T14:06:50.382905,6288558,784,528,1558,-1036,-623,-248,111,187,-67
2488,5808,0,2023-03-10T14:06:50.387285,6288563,764,512,1529,-1036,-636,-214,111,187,-67
2489,5809,0,2023-03-10T14:06:50.392205,6288568,764,512,1529,-1036,-636,-214,111,187,-67
2490,5810,0,2023-03-10T14:06:50.396756,6288572,764,512,1529,-1036,-636,-214,111,187,-67
2491,5811,0,2023-03-10T14:06:50.401632,6288576,764,512,1529,-1036,-636,-214,111,187,-67
2492,5812,0,2023-03-10T14:06:50.406446,6288581,794,529,1559,-1037,-603,-296,111,187,-67
2493,5813,0,2023-03-10T14:06:50.411237,6288586,794,529,1559,-1037,-603,-296,111,187,-67
2494,5814,0,2023-03-10T14:06:50.416475,6288591,794,529,1559,-1037,-603,-296,111,187,-67
2495,5815,0,2023-03-10T14:06:50.421227,6288595,794,529,1559,-1037,-603,-296,111,187,-67
2496,5816,0,2023-03-10T14:06:50.426124,6288601,779,521,1547,-1037,-643,-257,111,187,-67
2497,5817,0,2023-03-10T14:06:50.431589,6288607,779,521,1547,-1037,-643,-257,111,187,-67
2498,5818,0,2023-03-10T14:06:50.437606,6288613,779,521,1547,-1037,-643,-257,111,187,-67
2499,5819,0,2023-03-10T14:06:50.442269,6288617,779,521,1547,-1037,-643,-257,111,187,-67
2500,5820,0,2023-03-10T14:06:50.447120,6288622,779,520,1541,-1039,-627,-265,111,187,-67
2501,5821,0,2023-03-10T14:06:50.452389,6288627,779,520,1541,-1039,-627,-265,111,187,-67
2502,5822,0,2023-03-10T14:06:50.458044,6288633,779,520,1541,-1039,-627,-265,111,187,-67
2503,5823,0,2023-03-10T14:06:50.462776,6288637,779,520,1541,-1039,-627,-265,111,187,-67
2504,5824,0,2023-03-10T14:06:50.467394,6288643,766,512,1551,-1042,-637,-253,129,193,-75
2505,5825,0,2023-03-10T14:06:50.472219,6288648,766,512,1551,-1042,-637,-253,129,193,-75
2506,5826,0,2023-03-10T14:06:50.477752,6288653,766,512,1551,-1042,-637,-253,129,193,-75
2507,5827,0,2023-03-10T14:06:50.482393,6288658,766,512,1551,-1042,-637,-253,129,193,-75
2508,5828,0,2023-03-10T14:06:50.486711,6288662,789,526,1551,-1027,-628,-270,129,193,-75
2509,5829,0,2023-03-10T14:06:50.491562,6288666,789,526,1551,-1027,-628,-270,129,193,-75
2510,5830,0,2023-03-10T14:06:50.496046,6288671,789,526,1551,-1027,-628,-270,129,193,-75
2511,5831,0,2023-03-10T14:06:50.500429,6288675,789,526,1551,-1027,-628,-270,129,193,-75
2512,5832,0,2023-03-10T14:06:50.504855,6288679,777,517,1548,-1032,-647,-230,129,193,-75
2513,5833,0,2023-03-10T14:06:50.509742,6288685,777,517,1548,-1032,-647,-230,129,193,-75
2514,5834,0,2023-03-10T14:06:50.514187,6288690,777,517,1548,-1032,-647,-230,129,193,-75
2515,5835,0,2023-03-10T14:06:50.519200,6288694,777,517,1548,-1032,-647,-230,129,193,-75
2516,5836,0,2023-03-10T14:06:50.524228,6288699,779,518,1539,-1043,-628,-260,129,193,-75
2517,5837,0,2023-03-10T14:06:50.529288,6288704,779,518,1539,-1043,-628,-260,129,193,-75
2518,5838,0,2023-03-10T14:06:50.533724,6288709,779,518,1539,-1043,-628,-260,129,193,-75
2519,5839,0,2023-03-10T14:06:50.539287,6288714,779,518,1539,-1043,-628,-260,129,193,-75
2520,5840,0,2023-03-10T14:06:50.543764,6288719,779,520,1548,-1039,-624,-255,129,193,-75
2521,5841,0,2023-03-10T14:06:50.549045,6288723,779,520,1548,-1039,-624,-255,129,193,-75
2522,5842,0,2023-03-10T14:06:50.553446,6288729,779,520,1548,-1039,-624,-255,129,193,-75
2523,5843,0,2023-03-10T14:06:50.558710,6288734,779,520,1548,-1039,-624,-255,129,193,-75
2524,5844,0,2023-03-10T14:06:50.563573,6288739,786,528,1565,-1027,-646,-251,129,193,-75
2525,5845,0,2023-03-10T14:06:50.568768,6288744,786,528,1565,-1027,-646,-251,129,193,-75
2526,5846,0,2023-03-10T14:06:50.573256,6288748,786,528,1565,-1027,-646,-251,129,193,-75
2527,5847,0,2023-03-10T14:06:50.578422,6288753,786,528,1565,-1027,-646,-251,129,193,-75
2528,5848,0,2023-03-10T14:06:50.582966,6288758,786,528,1565,-1027,-646,-251,129,193,-75
2529,5849,0,2023-03-10T14:06:50.587549,6288762,786,530,1537,-1053,-624,-258,120,188,-62
2530,5850,0,2023-03-10T14:06:50.592443,6288768,786,530,1537,-1053,-624,-258,120,188,-62
2531,5851,0,2023-03-10T14:06:50.597374,6288773,786,530,1537,-1053,-624,-258,120,188,-62
2532,5852,0,2023-03-10T14:06:50.601912,6288777,786,530,1537,-1053,-624,-258,120,188,-62
2533,5853,0,2023-03-10T14:06:50.606349,6288782,757,512,1553,-1030,-614,-198,120,188,-62
2534,5854,0,2023-03-10T14:06:50.611538,6288787,757,512,1553,-1030,-614,-198,120,188,-62
2535,5855,0,2023-03-10T14:06:50.616201,6288791,757,512,1553,-1030,-614,-198,120,188,-62
2536,5856,0,2023-03-10T14:06:50.620517,6288796,757,512,1553,-1030,-614,-198,120,188,-62
2537,5857,0,2023-03-10T14:06:50.625272,6288800,783,524,1556,-1035,-676,-280,120,188,-62
2538,5858,0,2023-03-10T14:06:50.630342,6288805,783,524,1556,-1035,-676,-280,120,188,-62
2539,5859,0,2023-03-10T14:06:50.634794,6288809,783,524,1556,-1035,-676,-280,120,188,-62
2540,5860,0,2023-03-10T14:06:50.639763,6288815,783,524,1556,-1035,-676,-280,120,188,-62
2541,5861,0,2023-03-10T14:06:50.644167,6288820,785,515,1551,-1051,-622,-261,120,188,-62
2542,5862,0,2023-03-10T14:06:50.649353,6288824,785,515,1551,-1051,-622,-261,120,188,-62
2543,5863,0,2023-03-10T14:06:50.653735,6288829,785,515,1551,-1051,-622,-261,120,188,-62
2544,5864,0,2023-03-10T14:06:50.658185,6288833,785,515,1551,-1051,-622,-261,120,188,-62
2545,5865,0,2023-03-10T14:06:50.663091,6288838,785,515,1551,-1051,-622,-261,120,188,-62
2546,5866,0,2023-03-10T14:06:50.667925,6288843,787,521,1543,-1022,-647,-255,120,188,-62
2547,5867,0,2023-03-10T14:06:50.672862,6288848,787,521,1543,-1022,-647,-255,120,188,-62
2548,5868,0,2023-03-10T14:06:50.678304,6288854,787,521,1543,-1022,-647,-255,120,188,-62
2549,5869,0,2023-03-10T14:06:50.683027,6288858,787,521,1543,-1022,-647,-255,120,188,-62
2550,5870,0,2023-03-10T14:06:50.687566,6288863,788,520,1545,-1047,-614,-240,120,188,-62
2551,5871,0,2023-03-10T14:06:50.692505,6288868,788,520,1545,-1047,-614,-240,120,188,-62
2552,5872,0,2023-03-10T14:06:50.697405,6288873,788,520,1545,-1047,-614,-240,120,188,-62
2553,5873,0,2023-03-10T14:06:50.702174,6288877,788,520,1545,-1047,-614,-240,120,188,-62
2554,5874,0,2023-03-10T14:06:50.706620,6288881,771,518,1559,-1019,-625,-224,118,190,-60
2555,5875,0,2023-03-10T14:06:50.711786,6288886,771,518,1559,-1019,-625,-224,118,190,-60
2556,5876,0,2023-03-10T14:06:50.716928,6288892,771,518,1559,-1019,-625,-224,118,190,-60
2557,5877,0,2023-03-10T14:06:50.721345,6288897,771,518,1559,-1019,-625,-224,118,190,-60
2558,5878,0,2023-03-10T14:06:50.726074,6288901,801,526,1554,-1051,-650,-301,118,190,-60
2559,5879,0,2023-03-10T14:06:50.731376,6288906,801,526,1554,-1051,-650,-301,118,190,-60
2560,5880,0,2023-03-10T14:06:50.736493,6288912,801,526,1554,-1051,-650,-301,118,190,-60
2561,5881,0,2023-03-10T14:06:50.741094,6288916,801,526,1554,-1051,-650,-301,118,190,-60
2562,5882,0,2023-03-10T14:06:50.745841,6288921,779,515,1541,-1046,-632,-250,118,190,-60
2563,5883,0,2023-03-10T14:06:50.750902,6288926,779,515,1541,-1046,-632,-250,118,190,-60
2564,5884,0,2023-03-10T14:06:50.755302,6288930,779,515,1541,-1046,-632,-250,118,190,-60
2565,5885,0,2023-03-10T14:06:50.760442,6288935,779,515,1541,-1046,-632,-250,118,190,-60
2566,5886,0,2023-03-10T14:06:50.765183,6288941,796,523,1548,-1038,-639,-271,118,190,-60
2567,5887,0,2023-03-10T14:06:50.770178,6288945,796,523,1548,-1038,-639,-271,118,190,-60
2568,5888,0,2023-03-10T14:06:50.774750,6288950,796,523,1548,-1038,-639,-271,118,190,-60
2569,5889,0,2023-03-10T14:06:50.780642,6288956,796,523,1548,-1038,-639,-271,118,190,-60
2570,5890,0,2023-03-10T14:06:50.785023,6288960,777,520,1547,-1032,-646,-217,118,190,-60
2571,5891,0,2023-03-10T14:06:50.789908,6288965,777,520,1547,-1032,-646,-217,118,190,-60
2572,5892,0,2023-03-10T14:06:50.794396,6288969,777,520,1547,-1032,-646,-217,118,190,-60
2573,5893,0,2023-03-10T14:06:50.799889,6288975,777,520,1547,-1032,-646,-217,118,190,-60
2574,5894,0,2023-03-10T14:06:50.804357,6288979,791,520,1543,-1018,-627,-263,118,190,-60
2575,5895,0,2023-03-10T14:06:50.809250,6288985,791,520,1543,-1018,-627,-263,118,190,-60
2576,5896,0,2023-03-10T14:06:50.813932,6288989,791,520,1543,-1018,-627,-263,118,190,-60
2577,5897,0,2023-03-10T14:06:50.819124,6288994,791,520,1543,-1018,-627,-263,118,190,-60
2578,5898,0,2023-03-10T14:06:50.823463,6288999,793,520,1544,-1049,-636,-283,118,190,-60
2579,5899,0,2023-03-10T14:06:50.828542,6289004,793,520,1544,-1049,-636,-283,118,190,-60
2580,5900,0,2023-03-10T14:06:50.833031,6289008,793,520,1544,-1049,-636,-283,118,190,-60
2581,5901,0,2023-03-10T14:06:50.838425,6289013,793,520,1544,-1049,-636,-283,118,190,-60
2582,5902,0,2023-03-10T14:06:50.843237,6289018,793,520,1544,-1049,-636,-283,118,190,-60
2583,5903,0,2023-03-10T14:06:50.847732,6289022,780,520,1542,-1038,-662,-220,115,189,-61
2584,5904,0,2023-03-10T14:06:50.852713,6289028,780,520,1542,-1038,-662,-220,115,189,-61
2585,5905,0,2023-03-10T14:06:50.857475,6289033,780,520,1542,-1038,-662,-220,115,189,-61
2586,5906,0,2023-03-10T14:06:50.861856,6289037,780,520,1542,-1038,-662,-220,115,189,-61
2587,5907,0,2023-03-10T14:06:50.866283,6289042,794,521,1563,-1038,-613,-262,115,189,-61
2588,5908,0,2023-03-10T14:06:50.871438,6289046,794,521,1563,-1038,-613,-262,115,189,-61
2589,5909,0,2023-03-10T14:06:50.876283,6289051,794,521,1563,-1038,-613,-262,115,189,-61
2590,5910,0,2023-03-10T14:06:50.881094,6289056,794,521,1563,-1038,-613,-262,115,189,-61
2591,5911,0,2023-03-10T14:06:50.885563,6289060,793,526,1538,-1040,-652,-285,115,189,-61
2592,5912,0,2023-03-10T14:06:50.890653,6289065,793,526,1538,-1040,-652,-285,115,189,-61
2593,5913,0,2023-03-10T14:06:50.895411,6289071,793,526,1538,-1040,-652,-285,115,189,-61
2594,5914,0,2023-03-10T14:06:50.900462,6289076,793,526,1538,-1040,-652,-285,115,189,-61
2595,5915,0,2023-03-10T14:06:50.905150,6289080,789,516,1544,-1042,-635,-261,115,189,-61
2596,5916,0,2023-03-10T14:06:50.910363,6289086,789,516,1544,-1042,-635,-261,115,189,-61
2597,5917,0,2023-03-10T14:06:50.914868,6289090,789,516,1544,-1042,-635,-261,115,189,-61
2598,5918,0,2023-03-10T14:06:50.920395,6289095,789,516,1544,-1042,-635,-261,115,189,-61
2599,5919,0,2023-03-10T14:06:50.924800,6289100,775,518,1550,-1040,-622,-264,115,189,-61
2600,5920,0,2023-03-10T14:06:50.929870,6289105,775,518,1550,-1040,-622,-264,115,189,-61
2601,5921,0,2023-03-10T14:06:50.934453,6289110,775,518,1550,-1040,-622,-264,115,189,-61
2602,5922,0,2023-03-10T14:06:50.938826,6289114,775,518,1550,-1040,-622,-264,115,189,-61
2603,5923,0,2023-03-10T14:06:50.943398,6289119,775,518,1550,-1040,-622,-264,115,189,-61
2604,5924,0,2023-03-10T14:06:50.947954,6289123,792,519,1551,-1047,-662,-275,115,189,-61
2605,5925,0,2023-03-10T14:06:50.953041,6289128,792,519,1551,-1047,-662,-275,115,189,-61
2606,5926,0,2023-03-10T14:06:50.958074,6289133,792,519,1551,-1047,-662,-275,115,189,-61
2607,5927,0,2023-03-10T14:06:50.962656,6289138,792,519,1551,-1047,-662,-275,115,189,-61
2608,5928,0,2023-03-10T14:06:50.967108,6289142,795,530,1555,-1034,-629,-268,120,190,-66
2609,5929,0,2023-03-10T14:06:50.972224,6289147,795,530,1555,-1034,-629,-268,120,190,-66
2610,5930,0,2023-03-10T14:06:50.976863,6289152,795,530,1555,-1034,-629,-268,120,190,-66
2611,5931,0,2023-03-10T14:06:50.981383,6289157,795,530,1555,-1034,-629,-268,120,190,-66
2612,5932,0,2023-03-10T14:06:50.986106,6289161,771,509,1539,-1035,-628,-207,120,190,-66
2613,5933,0,2023-03-10T14:06:50.991162,6289166,771,509,1539,-1035,-628,-207,120,190,-66
2614,5934,0,2023-03-10T14:06:50.996413,6289171,771,509,1539,-1035,-628,-207,120,190,-66
2615,5935,0,2023-03-10T14:06:51.000723,6289176,771,509,1539,-1035,-628,-207,120,190,-66
2616,5936,0,2023-03-10T14:06:51.005147,6289180,788,521,1547,-1028,-665,-267,120,190,-66
2617,5937,0,2023-03-10T14:06:51.010107,6289185,788,521,1547,-1028,-665,-267,120,190,-66
2618,5938,0,2023-03-10T14:06:51.014519,6289189,788,521,1547,-1028,-665,-267,120,190,-66
2619,5939,0,2023-03-10T14:06:51.020197,6289196,788,521,1547,-1028,-665,-267,120,190,-66
2620,5940,0,2023-03-10T14:06:51.024814,6289200,806,525,1544,-1045,-618,-282,120,190,-66
2621,5941,0,2023-03-10T14:06:51.030351,6289206,806,525,1544,-1045,-618,-282,120,190,-66
2622,5942,0,2023-03-10T14:06:51.034723,6289210,806,525,1544,-1045,-618,-282,120,190,-66
2623,5943,0,2023-03-10T14:06:51.039824,6289215,806,525,1544,-1045,-618,-282,120,190,-66
2624,5944,0,2023-03-10T14:06:51.044448,6289219,785,516,1539,-1017,-644,-237,120,190,-66
2625,5945,0,2023-03-10T14:06:51.049599,6289224,785,516,1539,-1017,-644,-237,120,190,-66
2626,5946,0,2023-03-10T14:06:51.054215,6289229,785,516,1539,-1017,-644,-237,120,190,-66
2627,5947,0,2023-03-10T14:06:51.059482,6289234,785,516,1539,-1017,-644,-237,120,190,-66
2628,5948,0,2023-03-10T14:06:51.063878,6289240,800,526,1545,-1045,-626,-271,120,190,-66
2629,5949,0,2023-03-10T14:06:51.069072,6289244,800,526,1545,-1045,-626,-271,120,190,-66
2630,5950,0,2023-03-10T14:06:51.073584,6289249,800,526,1545,-1045,-626,-271,120,190,-66
2631,5951,0,2023-03-10T14:06:51.079548,6289255,800,526,1545,-1045,-626,-271,120,190,-66
2632,5952,0,2023-03-10T14:06:51.084184,6289259,769,510,1546,-1045,-615,-242,120,190,-66
2633,5953,0,2023-03-10T14:06:51.089248,6289264,769,510,1546,-1045,-615,-242,120,190,-66
2634,5954,0,2023-03-10T14:06:51.093893,6289269,769,510,1546,-1045,-615,-242,120,190,-66
2635,5955,0,2023-03-10T14:06:51.098924,6289274,769,510,1546,-1045,-615,-242,120,190,-66
2636,5956,0,2023-03-10T14:06:51.103992,6289278,789,523,1553,-1040,-668,-267,120,190,-66
2637,5957,0,2023-03-10T14:06:51.108997,6289284,789,523,1553,-1040,-668,-267,123,183,-69
2638,5958,0,2023-03-10T14:06:51.113505,6289289,789,523,1553,-1040,-668,-267,123,183,-69
2639,5959,0,2023-03-10T14:06:51.119271,6289294,789,523,1553,-1040,-668,-267,123,183,-69
2640,5960,0,2023-03-10T14:06:51.123682,6289299,789,523,1553,-1040,-668,-267,123,183,-69
2641,5961,0,2023-03-10T14:06:51.128260,6289303,787,519,1553,-1052,-619,-266,123,183,-69
2642,5962,0,2023-03-10T14:06:51.133293,6289308,787,519,1553,-1052,-619,-266,123,183,-69
2643,5963,0,2023-03-10T14:06:51.138507,6289313,787,519,1553,-1052,-619,-266,123,183,-69
2644,5964,0,2023-03-10T14:06:51.143257,6289318,787,519,1553,-1052,-619,-266,123,183,-69
2645,5965,0,2023-03-10T14:06:51.147932,6289323,797,521,1548,-1036,-668,-257,123,183,-69
2646,5966,0,2023-03-10T14:06:51.153036,6289328,797,521,1548,-1036,-668,-257,123,183,-69
2647,5967,0,2023-03-10T14:06:51.158018,6289333,797,521,1548,-1036,-668,-257,123,183,-69
2648,5968,0,2023-03-10T14:06:51.162952,6289338,797,521,1548,-1036,-668,-257,123,183,-69
2649,5969,0,2023-03-10T14:06:51.167354,6289342,792,518,1541,-1043,-632,-260,123,183,-69
2650,5970,0,2023-03-10T14:06:51.172318,6289347,792,518,1541,-1043,-632,-260,123,183,-69
2651,5971,0,2023-03-10T14:06:51.177489,6289352,792,518,1541,-1043,-632,-260,123,183,-69
2652,5972,0,2023-03-10T14:06:51.182233,6289357,792,518,1541,-1043,-632,-260,123,183,-69
2653,5973,0,2023-03-10T14:06:51.186964,6289362,791,516,1548,-1034,-613,-259,123,183,-69
2654,5974,0,2023-03-10T14:06:51.191994,6289367,791,516,1548,-1034,-613,-259,123,183,-69
2655,5975,0,2023-03-10T14:06:51.197543,6289373,791,516,1548,-1034,-613,-259,123,183,-69
2656,5976,0,2023-03-10T14:06:51.202052,6289377,791,516,1548,-1034,-613,-259,123,183,-69
2657,5977,0,2023-03-10T14:06:51.206452,6289382,803,532,1553,-1025,-644,-280,123,183,-69
2658,5978,0,2023-03-10T14:06:51.211430,6289386,803,532,1553,-1025,-644,-280,123,183,-69
2659,5979,0,2023-03-10T14:06:51.216130,6289391,803,532,1553,-1025,-644,-280,123,183,-69
2660,5980,0,2023-03-10T14:06:51.220583,6289395,803,532,1553,-1025,-644,-280,123,183,-69
2661,5981,0,2023-03-10T14:06:51.225730,6289400,782,514,1548,-1044,-636,-210,121,189,-67
2662,5982,0,2023-03-10T14:06:51.230655,6289405,782,514,1548,-1044,-636,-210,121,189,-67
2663,5983,0,2023-03-10T14:06:51.235176,6289411,782,514,1548,-1044,-636,-210,121,189,-67
2664,5984,0,2023-03-10T14:06:51.240119,6289415,782,514,1548,-1044,-636,-210,121,189,-67
2665,5985,0,2023-03-10T14:06:51.244845,6289420,783,516,1545,-1040,-653,-259,121,189,-67
2666,5986,0,2023-03-10T14:06:51.249899,6289425,783,516,1545,-1040,-653,-259,121,189,-67
2667,5987,0,2023-03-10T14:06:51.254508,6289430,783,516,1545,-1040,-653,-259,121,189,-67
2668,5988,0,2023-03-10T14:06:51.260226,6289435,783,516,1545,-1040,-653,-259,121,189,-67
2669,5989,0,2023-03-10T14:06:51.264884,6289440,805,522,1549,-1066,-638,-292,121,189,-67
2670,5990,0,2023-03-10T14:06:51.269930,6289445,805,522,1549,-1066,-638,-292,121,189,-67
2671,5991,0,2023-03-10T14:06:51.274344,6289449,805,522,1549,-1066,-638,-292,121,189,-67
2672,5992,0,2023-03-10T14:06:51.279392,6289455,805,522,1549,-1066,-638,-292,121,189,-67
2673,5993,0,2023-03-10T14:06:51.284119,6289459,800,522,1543,-1032,-657,-252,121,189,-67
2674,5994,0,2023-03-10T14:06:51.289050,6289464,800,522,1543,-1032,-657,-252,121,189,-67
2675,5995,0,2023-03-10T14:06:51.293509,6289469,800,522,1543,-1032,-657,-252,121,189,-67
2676,5996,0,2023-03-10T14:06:51.298565,6289474,800,522,1543,-1032,-657,-252,121,189,-67
2677,5997,0,2023-03-10T14:06:51.303352,6289478,800,522,1543,-1032,-657,-252,121,189,-67
2678,5998,0,2023-03-10T14:06:51.307817,6289483,798,511,1537,-1039,-627,-269,121,189,-67
2679,5999,0,2023-03-10T14:06:51.312772,6289487,798,511,1537,-1039,-627,-269,121,189,-67
2680,6000,0,2023-03-10T14:06:51.318351,6289494,798,511,1537,-1039,-627,-269,121,189,-67
2681,6001,0,2023-03-10T14:06:51.322902,6289498,798,511,1537,-1039,-627,-269,121,189,-67
2682,6002,0,2023-03-10T14:06:51.327434,6289503,788,521,1541,-1028,-612,-257,121,189,-67
2683,6003,0,2023-03-10T14:06:51.332472,6289508,788,521,1541,-1028,-612,-257,121,189,-67
2684,6004,0,2023-03-10T14:06:51.337898,6289513,788,521,1541,-1028,-612,-257,121,189,-67
2685,6005,0,2023-03-10T14:06:51.342711,6289518,788,521,1541,-1028,-612,-257,121,189,-67
2686,6006,0,2023-03-10T14:06:51.347307,6289522,788,520,1552,-1026,-625,-223,121,189,-67
2687,6007,0,2023-03-10T14:06:51.352419,6289527,788,520,1552,-1026,-625,-223,121,189,-67
2688,6008,0,2023-03-10T14:06:51.357359,6289532,788,520,1552,-1026,-625,-223,121,189,-67
2689,6009,0,2023-03-10T14:06:51.361848,6289537,788,520,1552,-1026,-625,-223,121,189,-67
2690,6010,0,2023-03-10T14:06:51.366485,6289542,801,528,1552,-1037,-654,-283,116,188,-68
2691,6011,0,2023-03-10T14:06:51.371500,6289547,801,528,1552,-1037,-654,-283,116,188,-68
2692,6012,0,2023-03-10T14:06:51.376479,6289552,801,528,1552,-1037,-654,-283,116,188,-68
2693,6013,0,2023-03-10T14:06:51.380981,6289556,801,528,1552,-1037,-654,-283,116,188,-68
2694,6014,0,2023-03-10T14:06:51.385531,6289560,796,521,1525,-1050,-645,-264,116,188,-68
2695,6015,0,2023-03-10T14:06:51.390682,6289566,796,521,1525,-1050,-645,-264,116,188,-68
2696,6016,0,2023-03-10T14:06:51.395494,6289570,796,521,1525,-1050,-645,-264,116,188,-68
2697,6017,0,2023-03-10T14:06:51.401405,6289576,796,521,1525,-1050,-645,-264,116,188,-68
2698,6018,0,2023-03-10T14:06:51.406172,6289582,804,521,1555,-1028,-632,-260,116,188,-68
2699,6019,0,2023-03-10T14:06:51.411362,6289587,804,521,1555,-1028,-632,-260,116,188,-68
2700,6020,0,2023-03-10T14:06:51.416015,6289591,804,521,1555,-1028,-632,-260,116,188,-68
2701,6021,0,2023-03-10T14:06:51.420801,6289596,804,521,1555,-1028,-632,-260,116,188,-68
2702,6022,0,2023-03-10T14:06:51.425176,6289600,790,520,1534,-1046,-651,-267,116,188,-68
2703,6023,0,2023-03-10T14:06:51.430447,6289605,790,520,1534,-1046,-651,-267,116,188,-68
2704,6024,0,2023-03-10T14:06:51.434919,6289610,790,520,1534,-1046,-651,-267,116,188,-68
2705,6025,0,2023-03-10T14:06:51.440609,6289615,790,520,1534,-1046,-651,-267,116,188,-68
2706,6026,0,2023-03-10T14:06:51.444969,6289620,799,520,1544,-1033,-603,-237,116,188,-68
2707,6027,0,2023-03-10T14:06:51.450385,6289626,799,520,1544,-1033,-603,-237,116,188,-68
2708,6028,0,2023-03-10T14:06:51.455287,6289630,799,520,1544,-1033,-603,-237,116,188,-68
2709,6029,0,2023-03-10T14:06:51.460942,6289636,799,520,1544,-1033,-603,-237,116,188,-68
2710,6030,0,2023-03-10T14:06:51.465653,6289641,788,517,1558,-1011,-647,-233,116,188,-68
2711,6031,0,2023-03-10T14:06:51.470956,6289646,788,517,1558,-1011,-647,-233,116,188,-68
2712,6032,0,2023-03-10T14:06:51.476002,6289651,788,517,1558,-1011,-647,-233,116,188,-68
2713,6033,0,2023-03-10T14:06:51.481778,6289656,788,517,1558,-1011,-647,-233,116,188,-68
2714,6034,0,2023-03-10T14:06:51.486519,6289661,788,510,1535,-1059,-640,-279,119,185,-69
2715,6035,0,2023-03-10T14:06:51.491725,6289667,788,510,1535,-1059,-640,-279,119,185,-69
2716,6036,0,2023-03-10T14:06:51.496781,6289672,788,510,1535,-1059,-640,-279,119,185,-69
2717,6037,0,2023-03-10T14:06:51.501150,6289676,788,510,1535,-1059,-640,-279,119,185,-69
2718,6038,0,2023-03-10T14:06:51.505530,6289681,809,523,1554,-1038,-643,-270,119,185,-69
2719,6039,0,2023-03-10T14:06:51.510560,6289686,809,523,1554,-1038,-643,-270,119,185,-69
2720,6040,0,2023-03-10T14:06:51.514961,6289690,809,523,1554,-1038,-643,-270,119,185,-69
2721,6041,0,2023-03-10T14:06:51.519395,6289694,809,523,1554,-1038,-643,-270,119,185,-69
2722,6042,0,2023-03-10T14:06:51.523792,6289699,809,523,1554,-1038,-643,-270,119,185,-69
2723,6043,0,2023-03-10T14:06:51.528230,6289703,802,516,1546,-1037,-638,-245,119,185,-69
2724,6044,0,2023-03-10T14:06:51.533501,6289709,802,516,1546,-1037,-638,-245,119,185,-69
2725,6045,0,2023-03-10T14:06:51.538396,6289714,802,516,1546,-1037,-638,-245,119,185,-69
2726,6046,0,2023-03-10T14:06:51.542785,6289718,802,516,1546,-1037,-638,-245,119,185,-69
2727,6047,0,2023-03-10T14:06:51.548032,6289723,799,524,1532,-1045,-619,-277,119,185,-69
2728,6048,0,2023-03-10T14:06:51.553355,6289729,799,524,1532,-1045,-619,-277,119,185,-69
2729,6049,0,2023-03-10T14:06:51.558216,6289733,799,524,1532,-1045,-619,-277,119,185,-69
2730,6050,0,2023-03-10T14:06:51.562700,6289737,799,524,1532,-1045,-619,-277,119,185,-69
2731,6051,0,2023-03-10T14:06:51.567358,6289742,783,517,1547,-1028,-652,-210,119,185,-69
2732,6052,0,2023-03-10T14:06:51.572493,6289747,783,517,1547,-1028,-652,-210,119,185,-69
2733,6053,0,2023-03-10T14:06:51.577838,6289753,783,517,1547,-1028,-652,-210,119,185,-69
2734,6054,0,2023-03-10T14:06:51.582353,6289758,783,517,1547,-1028,-652,-210,119,185,-69
2735,6055,0,2023-03-10T14:06:51.586823,6289762,801,524,1554,-1035,-620,-260,119,185,-69
2736,6056,0,2023-03-10T14:06:51.591660,6289767,801,524,1554,-1035,-620,-260,119,185,-69
2737,6057,0,2023-03-10T14:06:51.596201,6289771,801,524,1554,-1035,-620,-260,119,185,-69
2738,6058,0,2023-03-10T14:06:51.601207,6289776,801,524,1554,-1035,-620,-260,119,185,-69
2739,6059,0,2023-03-10T14:06:51.605813,6289781,798,523,1529,-1054,-663,-283,115,197,-61
2740,6060,0,2023-03-10T14:06:51.611033,6289786,798,523,1529,-1054,-663,-283,115,197,-61
2741,6061,0,2023-03-10T14:06:51.615461,6289790,798,523,1529,-1054,-663,-283,115,197,-61
2742,6062,0,2023-03-10T14:06:51.621142,6289797,798,523,1529,-1054,-663,-283,115,197,-61
2743,6063,0,2023-03-10T14:06:51.625769,6289801,810,518,1545,-1043,-639,-250,115,197,-61
2744,6064,0,2023-03-10T14:06:51.630525,6289806,810,518,1545,-1043,-639,-250,115,197,-61
2745,6065,0,2023-03-10T14:06:51.635245,6289810,810,518,1545,-1043,-639,-250,115,197,-61
2746,6066,0,2023-03-10T14:06:51.640058,6289815,810,518,1545,-1043,-639,-250,115,197,-61
2747,6067,0,2023-03-10T14:06:51.644610,6289820,798,513,1534,-1034,-642,-258,115,197,-61
2748,6068,0,2023-03-10T14:06:51.649801,6289825,798,513,1534,-1034,-642,-258,115,197,-61
2749,6069,0,2023-03-10T14:06:51.654361,6289829,798,513,1534,-1034,-642,-258,115,197,-61
2750,6070,0,2023-03-10T14:06:51.659788,6289835,798,513,1534,-1034,-642,-258,115,197,-61
2751,6071,0,2023-03-10T14:06:51.664193,6289840,798,513,1534,-1034,-642,-258,115,197,-61
2752,6072,0,2023-03-10T14:06:51.668467,6289844,807,523,1548,-1043,-604,-264,115,197,-61
2753,6073,0,2023-03-10T14:06:51.673357,6289849,807,523,1548,-1043,-604,-264,115,197,-61
2754,6074,0,2023-03-10T14:06:51.679102,6289854,807,523,1548,-1043,-604,-264,115,197,-61
2755,6075,0,2023-03-10T14:06:51.683823,6289859,807,523,1548,-1043,-604,-264,115,197,-61
2756,6076,0,2023-03-10T14:06:51.688262,6289863,780,519,1547,-1016,-662,-212,115,197,-61
2757,6077,0,2023-03-10T14:06:51.693123,6289868,780,519,1547,-1016,-662,-212,115,197,-61
2758,6078,0,2023-03-10T14:06:51.698403,6289873,780,519,1547,-1016,-662,-212,115,197,-61
2759,6079,0,2023-03-10T14:06:51.702776,6289878,780,519,1547,-1016,-662,-212,115,197,-61
2760,6080,0,2023-03-10T14:06:51.707322,6289883,809,522,1540,-1061,-631,-283,115,197,-61
2761,6081,0,2023-03-10T14:06:51.712397,6289888,809,522,1540,-1061,-631,-283,115,197,-61
2762,6082,0,2023-03-10T14:06:51.717548,6289893,809,522,1540,-1061,-631,-283,115,197,-61
2763,6083,0,2023-03-10T14:06:51.722611,6289898,809,522,1540,-1061,-631,-283,115,197,-61
2764,6084,0,2023-03-10T14:06:51.727023,6289902,799,512,1544,-1044,-639,-277,115,197,-61
2765,6085,0,2023-03-10T14:06:51.732300,6289907,799,512,1544,-1044,-639,-277,115,197,-61
2766,6086,0,2023-03-10T14:06:51.737536,6289912,799,512,1544,-1044,-639,-277,115,197,-61
2767,6087,0,2023-03-10T14:06:51.742364,6289917,799,512,1544,-1044,-639,-277,115,197,-61
2768,6088,0,2023-03-10T14:06:51.746956,6289922,803,517,1546,-1037,-658,-243,118,188,-70
2769,6089,0,2023-03-10T14:06:51.752019,6289927,803,517,1546,-1037,-658,-243,118,188,-70
2770,6090,0,2023-03-10T14:06:51.757234,6289933,803,517,1546,-1037,-658,-243,118,188,-70
2771,6091,0,2023-03-10T14:06:51.761817,6289937,803,517,1546,-1037,-658,-243,118,188,-70
2772,6092,0,2023-03-10T14:06:51.766276,6289941,814,529,1541,-1030,-625,-282,118,188,-70
2773,6093,0,2023-03-10T14:06:51.771414,6289946,814,529,1541,-1030,-625,-282,118,188,-70
2774,6094,0,2023-03-10T14:06:51.776378,6289951,814,529,1541,-1030,-625,-282,118,188,-70
2775,6095,0,2023-03-10T14:06:51.781644,6289956,814,529,1541,-1030,-625,-282,118,188,-70
2776,6096,0,2023-03-10T14:06:51.786430,6289961,786,511,1534,-1033,-621,-222,118,188,-70
2777,6097,0,2023-03-10T14:06:51.791759,6289967,786,511,1534,-1033,-621,-222,118,188,-70
2778,6098,0,2023-03-10T14:06:51.796900,6289972,786,511,1534,-1033,-621,-222,118,188,-70
2779,6099,0,2023-03-10T14:06:51.801475,6289977,786,511,1534,-1033,-621,-222,118,188,-70
2780,6100,0,2023-03-10T14:06:51.806023,6289981,791,518,1551,-1013,-679,-241,118,188,-70
2781,6101,0,2023-03-10T14:06:51.811080,6289986,791,518,1551,-1013,-679,-241,118,188,-70
2782,6102,0,2023-03-10T14:06:51.815417,6289990,791,518,1551,-1013,-679,-241,118,188,-70
2783,6103,0,2023-03-10T14:06:51.820156,6289995,791,518,1551,-1013,-679,-241,118,188,-70
2784,6104,0,2023-03-10T14:06:51.824431,6289999,791,518,1551,-1013,-679,-241,118,188,-70
2785,6105,0,2023-03-10T14:06:51.828962,6290004,807,521,1551,-1056,-622,-293,118,188,-70
2786,6106,0,2023-03-10T14:06:51.833979,6290010,807,521,1551,-1056,-622,-293,118,188,-70
2787,6107,0,2023-03-10T14:06:51.838988,6290014,807,521,1551,-1056,-622,-293,118,188,-70
2788,6108,0,2023-03-10T14:06:51.843477,6290019,807,521,1551,-1056,-622,-293,118,188,-70
2789,6109,0,2023-03-10T14:06:51.847844,6290023,806,522,1530,-1039,-669,-275,118,188,-70
2790,6110,0,2023-03-10T14:06:51.852346,6290027,806,522,1530,-1039,-669,-275,118,188,-70
2791,6111,0,2023-03-10T14:06:51.857645,6290033,806,522,1530,-1039,-669,-275,118,188,-70
2792,6112,0,2023-03-10T14:06:51.862114,6290037,806,522,1530,-1039,-669,-275,118,188,-70
2793,6113,0,2023-03-10T14:06:51.866800,6290042,803,515,1545,-1034,-626,-265,121,193,-69
2794,6114,0,2023-03-10T14:06:51.871768,6290046,803,515,1545,-1034,-626,-265,121,193,-69
2795,6115,0,2023-03-10T14:06:51.876974,6290052,803,515,1545,-1034,-626,-265,121,193,-69
2796,6116,0,2023-03-10T14:06:51.882637,6290058,803,515,1545,-1034,-626,-265,121,193,-69
2797,6117,0,2023-03-10T14:06:51.887190,6290062,808,525,1542,-1035,-619,-262,121,193,-69
2798,6118,0,2023-03-10T14:06:51.892485,6290067,808,525,1542,-1035,-619,-262,121,193,-69
2799,6119,0,2023-03-10T14:06:51.896935,6290072,808,525,1542,-1035,-619,-262,121,193,-69
2800,6120,0,2023-03-10T14:06:51.902343,6290077,808,525,1542,-1035,-619,-262,121,193,-69
2801,6121,0,2023-03-10T14:06:51.906881,6290081,806,522,1547,-1017,-651,-226,121,193,-69
2802,6122,0,2023-03-10T14:06:51.912048,6290087,806,522,1547,-1017,-651,-226,121,193,-69
2803,6123,0,2023-03-10T14:06:51.917581,6290093,806,522,1547,-1017,-651,-226,121,193,-69
2804,6124,0,2023-03-10T14:06:51.922325,6290097,806,522,1547,-1017,-651,-226,121,193,-69
2805,6125,0,2023-03-10T14:06:51.927042,6290102,794,512,1532,-1037,-624,-261,121,193,-69
2806,6126,0,2023-03-10T14:06:51.932048,6290107,794,512,1532,-1037,-624,-261,121,193,-69
2807,6127,0,2023-03-10T14:06:51.936404,6290112,794,512,1532,-1037,-624,-261,121,193,-69
2808,6128,0,2023-03-10T14:06:51.941005,6290116,794,512,1532,-1037,-624,-261,121,193,-69
2809,6129,0,2023-03-10T14:06:51.945703,6290121,811,523,1543,-1042,-624,-272,121,193,-69
2810,6130,0,2023-03-10T14:06:51.950699,6290126,811,523,1543,-1042,-624,-272,121,193,-69
2811,6131,0,2023-03-10T14:06:51.955256,6290130,811,523,1543,-1042,-624,-272,121,193,-69
2812,6132,0,2023-03-10T14:06:51.960103,6290136,811,523,1543,-1042,-624,-272,121,193,-69
2813,6133,0,2023-03-10T14:06:51.964785,6290140,811,523,1543,-1042,-624,-272,121,193,-69
2814,6134,0,2023-03-10T14:06:51.969447,6290145,817,522,1553,-1028,-669,-249,121,193,-69
2815,6135,0,2023-03-10T14:06:51.974545,6290150,817,522,1553,-1028,-669,-249,121,193,-69
2816,6136,0,2023-03-10T14:06:51.979554,6290155,817,522,1553,-1028,-669,-249,121,193,-69
2817,6137,0,2023-03-10T14:06:51.984086,6290159,817,522,1553,-1028,-669,-249,121,193,-69
2818,6138,0,2023-03-10T14:06:51.988433,6290163,817,522,1553,-1028,-669,-249,121,193,-69
2819,6139,0,2023-03-10T14:06:51.992812,6290168,817,522,1553,-1028,-669,-249,121,193,-69
2820,6140,0,2023-03-10T14:06:51.997618,6290172,817,522,1553,-1028,-669,-249,121,193,-69
2821,6141,0,2023-03-10T14:06:52.002441,6290178,817,522,1553,-1028,-669,-249,121,193,-69
2822,6142,0,2023-03-10T14:06:52.006739,6290182,802,519,1545,-1037,-613,-246,124,188,-58
2823,6143,0,2023-03-10T14:06:52.012200,6290187,802,519,1545,-1037,-613,-246,124,188,-58
2824,6144,0,2023-03-10T14:06:52.017240,6290192,802,519,1545,-1037,-613,-246,124,188,-58
2825,6145,0,2023-03-10T14:06:52.022001,6290197,802,519,1545,-1037,-613,-246,124,188,-58
2826,6146,0,2023-03-10T14:06:52.026476,6290202,797,521,1550,-1039,-644,-252,124,188,-58
2827,6147,0,2023-03-10T14:06:52.031138,6290206,797,521,1550,-1039,-644,-252,124,188,-58
2828,6148,0,2023-03-10T14:06:52.035697,6290211,797,521,1550,-1039,-644,-252,124,188,-58
2829,6149,0,2023-03-10T14:06:52.040265,6290215,797,521,1550,-1039,-644,-252,124,188,-58
2830,6150,0,2023-03-10T14:06:52.045066,6290221,797,521,1550,-1039,-644,-252,124,188,-58
2831,6151,0,2023-03-10T14:06:52.049599,6290225,819,526,1543,-1056,-648,-289,124,188,-58
2832,6152,0,2023-03-10T14:06:52.054444,6290230,819,526,1543,-1056,-648,-289,124,188,-58
2833,6153,0,2023-03-10T14:06:52.059480,6290235,819,526,1543,-1056,-648,-289,124,188,-58
2834,6154,0,2023-03-10T14:06:52.064217,6290239,819,526,1543,-1056,-648,-289,124,188,-58
2835,6155,0,2023-03-10T14:06:52.068771,6290244,796,516,1533,-1032,-629,-249,124,188,-58
2836,6156,0,2023-03-10T14:06:52.073821,6290249,796,516,1533,-1032,-629,-249,124,188,-58
2837,6157,0,2023-03-10T14:06:52.079359,6290254,796,516,1533,-1032,-629,-249,124,188,-58
2838,6158,0,2023-03-10T14:06:52.084502,6290259,796,516,1533,-1032,-629,-249,124,188,-58
2839,6159,0,2023-03-10T14:06:52.088944,6290264,819,528,1544,-1045,-621,-260,124,188,-58
2840,6160,0,2023-03-10T14:06:52.093866,6290269,819,528,1544,-1045,-621,-260,124,188,-58
2841,6161,0,2023-03-10T14:06:52.099049,6290274,819,528,1544,-1045,-621,-260,124,188,-58
2842,6162,0,2023-03-10T14:06:52.103291,6290279,819,528,1544,-1045,-621,-260,124,188,-58
2843,6163,0,2023-03-10T14:06:52.107777,6290283,808,521,1552,-1020,-660,-222,124,188,-58
2844,6164,0,2023-03-10T14:06:52.112918,6290288,808,521,1552,-1020,-660,-222,124,188,-58
2845,6165,0,2023-03-10T14:06:52.118031,6290293,808,521,1552,-1020,-660,-222,124,188,-58
2846,6166,0,2023-03-10T14:06:52.122672,6290297,808,521,1552,-1020,-660,-222,124,188,-58
2847,6167,0,2023-03-10T14:06:52.127386,6290302,798,518,1527,-1042,-632,-264,133,189,-71
2848,6168,0,2023-03-10T14:06:52.132760,6290308,798,518,1527,-1042,-632,-264,133,189,-71
2849,6169,0,2023-03-10T14:06:52.137954,6290313,798,518,1527,-1042,-632,-264,133,189,-71
2850,6170,0,2023-03-10T14:06:52.142449,6290318,798,518,1527,-1042,-632,-264,133,189,-71
2851,6171,0,2023-03-10T14:06:52.146863,6290322,817,518,1545,-1036,-623,-285,133,189,-71
2852,6172,0,2023-03-10T14:06:52.151261,6290326,817,518,1545,-1036,-623,-285,133,189,-71
2853,6173,0,2023-03-10T14:06:52.155869,6290331,817,518,1545,-1036,-623,-285,133,189,-71
2854,6174,0,2023-03-10T14:06:52.161010,6290336,817,518,1545,-1036,-623,-285,133,189,-71
2855,6175,0,2023-03-10T14:06:52.165926,6290341,803,520,1548,-1032,-643,-261,133,189,-71
2856,6176,0,2023-03-10T14:06:52.170729,6290345,803,520,1548,-1032,-643,-261,133,189,-71
2857,6177,0,2023-03-10T14:06:52.175187,6290351,803,520,1548,-1032,-643,-261,133,189,-71
2858,6178,0,2023-03-10T14:06:52.180204,6290356,803,520,1548,-1032,-643,-261,133,189,-71
2859,6179,0,2023-03-10T14:06:52.184502,6290360,803,520,1548,-1032,-643,-261,133,189,-71
2860,6180,0,2023-03-10T14:06:52.188913,6290364,821,518,1529,-1052,-629,-273,133,189,-71
2861,6181,0,2023-03-10T14:06:52.193676,6290369,821,518,1529,-1052,-629,-273,133,189,-71
2862,6182,0,2023-03-10T14:06:52.198704,6290374,821,518,1529,-1052,-629,-273,133,189,-71
2863,6183,0,2023-03-10T14:06:52.203116,6290378,821,518,1529,-1052,-629,-273,133,189,-71
2864,6184,0,2023-03-10T14:06:52.207639,6290382,793,508,1544,-1027,-619,-243,133,189,-71
2865,6185,0,2023-03-10T14:06:52.212780,6290387,793,508,1544,-1027,-619,-243,133,189,-71
2866,6186,0,2023-03-10T14:06:52.217755,6290393,793,508,1544,-1027,-619,-243,133,189,-71
2867,6187,0,2023-03-10T14:06:52.222254,6290398,793,508,1544,-1027,-619,-243,133,189,-71
2868,6188,0,2023-03-10T14:06:52.226826,6290402,821,526,1545,-1029,-628,-271,133,189,-71
2869,6189,0,2023-03-10T14:06:52.231985,6290407,821,526,1545,-1029,-628,-271,133,189,-71
2870,6190,0,2023-03-10T14:06:52.237443,6290413,821,526,1545,-1029,-628,-271,133,189,-71
2871,6191,0,2023-03-10T14:06:52.241932,6290417,821,526,1545,-1029,-628,-271,133,189,-71
2872,6192,0,2023-03-10T14:06:52.246308,6290421,814,520,1537,-1035,-652,-243,122,190,-78
2873,6193,0,2023-03-10T14:06:52.251183,6290426,814,520,1537,-1035,-652,-243,122,190,-78
2874,6194,0,2023-03-10T14:06:52.255739,6290430,814,520,1537,-1035,-652,-243,122,190,-78
2875,6195,0,2023-03-10T14:06:52.260969,6290436,814,520,1537,-1035,-652,-243,122,190,-78
2876,6196,0,2023-03-10T14:06:52.265672,6290441,799,517,1523,-1042,-646,-251,122,190,-78
2877,6197,0,2023-03-10T14:06:52.270864,6290446,799,517,1523,-1042,-646,-251,122,190,-78
2878,6198,0,2023-03-10T14:06:52.275348,6290451,799,517,1523,-1042,-646,-251,122,190,-78
2879,6199,0,2023-03-10T14:06:52.280417,6290455,799,517,1523,-1042,-646,-251,122,190,-78
2880,6200,0,2023-03-10T14:06:52.284763,6290460,799,517,1523,-1042,-646,-251,122,190,-78
2881,6201,0,2023-03-10T14:06:52.289262,6290464,817,513,1548,-1031,-614,-265,122,190,-78
2882,6202,0,2023-03-10T14:06:52.294318,6290469,817,513,1548,-1031,-614,-265,122,190,-78
2883,6203,0,2023-03-10T14:06:52.299792,6290475,817,513,1548,-1031,-614,-265,122,190,-78
2884,6204,0,2023-03-10T14:06:52.304636,6290480,817,513,1548,-1031,-614,-265,122,190,-78
2885,6205,0,2023-03-10T14:06:52.309380,6290485,807,517,1545,-1022,-656,-252,122,190,-78
2886,6206,0,2023-03-10T14:06:52.314201,6290490,807,517,1545,-1022,-656,-252,122,190,-78
2887,6207,0,2023-03-10T14:06:52.319402,6290495,807,517,1545,-1022,-656,-252,122,190,-78
2888,6208,0,2023-03-10T14:06:52.324048,6290499,807,517,1545,-1022,-656,-252,122,190,-78
2889,6209,0,2023-03-10T14:06:52.328452,6290503,821,525,1534,-1059,-613,-267,122,190,-78
2890,6210,0,2023-03-10T14:06:52.333872,6290508,821,525,1534,-1059,-613,-267,122,190,-78
2891,6211,0,2023-03-10T14:06:52.338998,6290514,821,525,1534,-1059,-613,-267,122,190,-78
2892,6212,0,2023-03-10T14:06:52.343705,6290519,821,525,1534,-1059,-613,-267,122,190,-78
2893,6213,0,2023-03-10T14:06:52.348139,6290524,800,514,1549,-1036,-613,-262,122,190,-78
2894,6214,0,2023-03-10T14:06:52.352646,6290528,800,514,1549,-1036,-613,-262,122,190,-78
2895,6215,0,2023-03-10T14:06:52.357950,6290533,800,514,1549,-1036,-613,-262,122,190,-78
2896,6216,0,2023-03-10T14:06:52.362547,6290538,800,514,1549,-1036,-613,-262,122,190,-78
2897,6217,0,2023-03-10T14:06:52.367360,6290542,818,525,1540,-1045,-644,-253,122,190,-78
2898,6218,0,2023-03-10T14:06:52.372110,6290547,818,525,1540,-1045,-644,-253,122,190,-78
2899,6219,0,2023-03-10T14:06:52.377296,6290552,818,525,1540,-1045,-644,-253,122,190,-78
2900,6220,0,2023-03-10T14:06:52.382513,6290557,818,525,1540,-1045,-644,-253,122,190,-78
2901,6221,0,2023-03-10T14:06:52.387031,6290563,809,518,1548,-1020,-641,-220,122,188,-74
2902,6222,0,2023-03-10T14:06:52.392372,6290568,809,518,1548,-1020,-641,-220,122,188,-74
2903,6223,0,2023-03-10T14:06:52.397402,6290573,809,518,1548,-1020,-641,-220,122,188,-74
2904,6224,0,2023-03-10T14:06:52.402140,6290577,809,518,1548,-1020,-641,-220,122,188,-74
2905,6225,0,2023-03-10T14:06:52.406781,6290582,806,518,1528,-1049,-633,-280,122,188,-74
2906,6226,0,2023-03-10T14:06:52.411722,6290587,806,518,1528,-1049,-633,-280,122,188,-74
2907,6227,0,2023-03-10T14:06:52.416775,6290592,806,518,1528,-1049,-633,-280,122,188,-74
2908,6228,0,2023-03-10T14:06:52.421875,6290597,806,518,1528,-1049,-633,-280,122,188,-74
2909,6229,0,2023-03-10T14:06:52.426615,6290601,811,516,1540,-1041,-656,-257,122,188,-74
2910,6230,0,2023-03-10T14:06:52.431464,6290607,811,516,1540,-1041,-656,-257,122,188,-74
2911,6231,0,2023-03-10T14:06:52.436741,6290612,811,516,1540,-1041,-656,-257,122,188,-74
2912,6232,0,2023-03-10T14:06:52.441362,6290617,811,516,1540,-1041,-656,-257,122,188,-74
2913,6233,0,2023-03-10T14:06:52.445658,6290621,820,526,1548,-1035,-618,-276,122,188,-74
2914,6234,0,2023-03-10T14:06:52.450947,6290626,820,526,1548,-1035,-618,-276,122,188,-74
2915,6235,0,2023-03-10T14:06:52.455823,6290630,820,526,1548,-1035,-618,-276,122,188,-74
2916,6236,0,2023-03-10T14:06:52.460816,6290636,820,526,1548,-1035,-618,-276,122,188,-74
2917,6237,0,2023-03-10T14:06:52.465563,6290640,820,526,1548,-1035,-618,-276,122,188,-74
2918,6238,0,2023-03-10T14:06:52.470142,6290646,808,520,1529,-1042,-645,-242,122,188,-74
2919,6239,0,2023-03-10T14:06:52.475091,6290651,808,520,1529,-1042,-645,-242,122,188,-74
2920,6240,0,2023-03-10T14:06:52.479678,6290655,808,520,1529,-1042,-645,-242,122,188,-74
2921,6241,0,2023-03-10T14:06:52.484206,6290659,808,520,1529,-1042,-645,-242,122,188,-74
2922,6242,0,2023-03-10T14:06:52.488963,6290664,800,516,1542,-1033,-633,-249,122,188,-74
2923,6243,0,2023-03-10T14:06:52.494091,6290669,800,516,1542,-1033,-633,-249,122,188,-74
2924,6244,0,2023-03-10T14:06:52.499141,6290674,800,516,1542,-1033,-633,-249,122,188,-74
2925,6245,0,2023-03-10T14:06:52.503888,6290678,800,516,1542,-1033,-633,-249,122,188,-74
2926,6246,0,2023-03-10T14:06:52.508420,6290683,825,529,1548,-1054,-617,-283,110,188,-68
2927,6247,0,2023-03-10T14:06:52.513010,6290688,825,529,1548,-1054,-617,-283,110,188,-68
2928,6248,0,2023-03-10T14:06:52.518407,6290694,825,529,1548,-1054,-617,-283,110,188,-68
2929,6249,0,2023-03-10T14:06:52.523212,6290698,825,529,1548,-1054,-617,-283,110,188,-68
2930,6250,0,2023-03-10T14:06:52.527654,6290703,819,524,1542,-1032,-658,-227,110,188,-68
2931,6251,0,2023-03-10T14:06:52.532860,6290708,819,524,1542,-1032,-658,-227,110,188,-68
2932,6252,0,2023-03-10T14:06:52.538344,6290713,819,524,1542,-1032,-658,-227,110,188,-68
2933,6253,0,2023-03-10T14:06:52.543198,6290718,819,524,1542,-1032,-658,-227,110,188,-68
2934,6254,0,2023-03-10T14:06:52.547518,6290722,806,517,1523,-1041,-644,-255,110,188,-68
2935,6255,0,2023-03-10T14:06:52.552625,6290727,806,517,1523,-1041,-644,-255,110,188,-68
2936,6256,0,2023-03-10T14:06:52.557689,6290733,806,517,1523,-1041,-644,-255,110,188,-68
2937,6257,0,2023-03-10T14:06:52.562595,6290738,806,517,1523,-1041,-644,-255,110,188,-68
2938,6258,0,2023-03-10T14:06:52.567176,6290743,829,520,1537,-1033,-623,-286,110,188,-68
2939,6259,0,2023-03-10T14:06:52.572150,6290747,829,520,1537,-1033,-623,-286,110,188,-68
2940,6260,0,2023-03-10T14:06:52.577278,6290752,829,520,1537,-1033,-623,-286,110,188,-68
2941,6261,0,2023-03-10T14:06:52.581835,6290757,829,520,1537,-1033,-623,-286,110,188,-68
2942,6262,0,2023-03-10T14:06:52.586255,6290761,804,516,1535,-1026,-655,-254,110,188,-68
2943,6263,0,2023-03-10T14:06:52.591378,6290766,804,516,1535,-1026,-655,-254,110,188,-68
2944,6264,0,2023-03-10T14:06:52.595947,6290771,804,516,1535,-1026,-655,-254,110,188,-68
2945,6265,0,2023-03-10T14:06:52.600508,6290776,804,516,1535,-1026,-655,-254,110,188,-68
2946,6266,0,2023-03-10T14:06:52.604909,6290780,804,516,1535,-1026,-655,-254,110,188,-68
2947,6267,0,2023-03-10T14:06:52.609244,6290785,831,529,1535,-1043,-619,-280,110,188,-68
2948,6268,0,2023-03-10T14:06:52.614313,6290789,831,529,1535,-1043,-619,-280,110,188,-68
2949,6269,0,2023-03-10T14:06:52.620428,6290795,831,529,1535,-1043,-619,-280,110,188,-68
2950,6270,0,2023-03-10T14:06:52.624932,6290800,831,529,1535,-1043,-619,-280,110,188,-68
2951,6271,0,2023-03-10T14:06:52.629397,6290804,831,529,1535,-1043,-619,-280,110,188,-68
2952,6272,0,2023-03-10T14:06:52.633903,6290809,831,529,1535,-1043,-619,-280,110,188,-68
2953,6273,0,2023-03-10T14:06:52.639510,6290814,831,529,1535,-1043,-619,-280,110,188,-68
2954,6274,0,2023-03-10T14:06:52.644051,6290820,831,529,1535,-1043,-619,-280,110,188,-68
2955,6275,0,2023-03-10T14:06:52.648649,6290824,820,519,1534,-1048,-674,-288,117,185,-73
2956,6276,0,2023-03-10T14:06:52.653629,6290829,820,519,1534,-1048,-674,-288,117,185,-73
2957,6277,0,2023-03-10T14:06:52.658516,6290834,820,519,1534,-1048,-674,-288,117,185,-73
2958,6278,0,2023-03-10T14:06:52.663163,6290838,820,519,1534,-1048,-674,-288,117,185,-73
2959,6279,0,2023-03-10T14:06:52.667578,6290843,822,518,1549,-1048,-619,-270,117,185,-73
2960,6280,0,2023-03-10T14:06:52.672733,6290847,822,518,1549,-1048,-619,-270,117,185,-73
2961,6281,0,2023-03-10T14:06:52.677622,6290852,822,518,1549,-1048,-619,-270,117,185,-73
2962,6282,0,2023-03-10T14:06:52.682083,6290857,822,518,1549,-1048,-619,-270,117,185,-73
2963,6283,0,2023-03-10T14:06:52.686422,6290862,816,519,1536,-1033,-647,-264,117,185,-73
2964,6284,0,2023-03-10T14:06:52.691339,6290867,816,519,1536,-1033,-647,-264,117,185,-73
2965,6285,0,2023-03-10T14:06:52.695927,6290871,816,519,1536,-1033,-647,-264,117,185,-73
2966,6286,0,2023-03-10T14:06:52.701511,6290877,816,519,1536,-1033,-647,-264,117,185,-73
2967,6287,0,2023-03-10T14:06:52.705919,6290881,815,517,1537,-1048,-618,-271,117,185,-73
2968,6288,0,2023-03-10T14:06:52.711219,6290886,815,517,1537,-1048,-618,-271,117,185,-73
2969,6289,0,2023-03-10T14:06:52.715726,6290891,815,517,1537,-1048,-618,-271,117,185,-73
2970,6290,0,2023-03-10T14:06:52.721486,6290896,815,517,1537,-1048,-618,-271,117,185,-73
2971,6291,0,2023-03-10T14:06:52.726169,6290902,814,524,1551,-1019,-618,-236,117,185,-73
2972,6292,0,2023-03-10T14:06:52.730969,6290907,814,524,1551,-1019,-618,-236,117,185,-73
2973,6293,0,2023-03-10T14:06:52.736281,6290911,814,524,1551,-1019,-618,-236,117,185,-73
2974,6294,0,2023-03-10T14:06:52.742009,6290917,814,524,1551,-1019,-618,-236,117,185,-73
2975,6295,0,2023-03-10T14:06:52.746550,6290922,824,525,1544,-1034,-661,-251,117,185,-73
2976,6296,0,2023-03-10T14:06:52.751919,6290927,824,525,1544,-1034,-661,-251,117,185,-73
2977,6297,0,2023-03-10T14:06:52.756928,6290932,824,525,1544,-1034,-661,-251,117,185,-73
2978,6298,0,2023-03-10T14:06:52.762063,6290937,824,525,1544,-1034,-661,-251,117,185,-73
2979,6299,0,2023-03-10T14:06:52.766578,6290941,811,520,1532,-1048,-632,-280,124,190,-66
2980,6300,0,2023-03-10T14:06:52.771614,6290947,811,520,1532,-1048,-632,-280,124,190,-66
2981,6301,0,2023-03-10T14:06:52.776144,6290952,811,520,1532,-1048,-632,-280,124,190,-66
2982,6302,0,2023-03-10T14:06:52.781736,6290957,811,520,1532,-1048,-632,-280,124,190,-66
2983,6303,0,2023-03-10T14:06:52.786266,6290962,815,514,1541,-1038,-628,-261,124,190,-66
2984,6304,0,2023-03-10T14:06:52.791646,6290966,815,514,1541,-1038,-628,-261,124,190,-66
2985,6305,0,2023-03-10T14:06:52.796509,6290971,815,514,1541,-1038,-628,-261,124,190,-66
2986,6306,0,2023-03-10T14:06:52.802112,6290977,815,514,1541,-1038,-628,-261,124,190,-66
2987,6307,0,2023-03-10T14:06:52.806837,6290981,829,529,1549,-1016,-676,-266,124,190,-66
2988,6308,0,2023-03-10T14:06:52.812167,6290988,829,529,1549,-1016,-676,-266,124,190,-66
2989,6309,0,2023-03-10T14:06:52.817052,6290993,829,529,1549,-1016,-676,-266,124,190,-66
2990,6310,0,2023-03-10T14:06:52.821400,6290997,829,529,1549,-1016,-676,-266,124,190,-66
2991,6311,0,2023-03-10T14:06:52.825919,6291001,829,529,1549,-1016,-676,-266,124,190,-66
2992,6312,0,2023-03-10T14:06:52.830702,6291006,811,515,1534,-1044,-607,-214,124,190,-66
2993,6313,0,2023-03-10T14:06:52.835700,6291011,811,515,1534,-1044,-607,-214,124,190,-66
2994,6314,0,2023-03-10T14:06:52.841348,6291016,811,515,1534,-1044,-607,-214,124,190,-66
2995,6315,0,2023-03-10T14:06:52.845724,6291021,811,515,1534,-1044,-607,-214,124,190,-66
2996,6316,0,2023-03-10T14:06:52.850155,6291025,818,520,1540,-1014,-635,-268,124,190,-66
2997,6317,0,2023-03-10T14:06:52.854979,6291031,818,520,1540,-1014,-635,-268,124,190,-66
2998,6318,0,2023-03-10T14:06:52.859557,6291035,818,520,1540,-1014,-635,-268,124,190,-66
2999,6319,0,2023-03-10T14:06:52.864269,6291040,818,520,1540,-1014,-635,-268,124,190,-66
3000,6320,0,2023-03-10T14:06:52.868792,6291044,818,522,1533,-1053,-634,-285,124,190,-66
3001,6321,0,2023-03-10T14:06:52.873741,6291049,818,522,1533,-1053,-634,-285,124,190,-66
3002,6322,0,2023-03-10T14:06:52.878371,6291053,818,522,1533,-1053,-634,-285,124,190,-66
3003,6323,0,2023-03-10T14:06:52.883241,6291058,818,522,1533,-1053,-634,-285,124,190,-66
3004,6324,0,2023-03-10T14:06:52.887647,6291063,809,514,1533,-1025,-649,-247,124,190,-66
3005,6325,0,2023-03-10T14:06:52.892452,6291067,809,514,1533,-1025,-649,-247,124,190,-66
3006,6326,0,2023-03-10T14:06:52.897756,6291073,809,514,1533,-1025,-649,-247,124,190,-66
3007,6327,0,2023-03-10T14:06:52.902136,6291078,809,514,1533,-1025,-649,-247,124,190,-66
3008,6328,0,2023-03-10T14:06:52.906603,6291082,837,531,1549,-1034,-629,-283,118,188,-66
3009,6329,0,2023-03-10T14:06:52.911039,6291086,837,531,1549,-1034,-629,-283,118,188,-66
3010,6330,0,2023-03-10T14:06:52.915579,6291091,837,531,1549,-1034,-629,-283,118,188,-66
3011,6331,0,2023-03-10T14:06:52.921394,6291096,837,531,1549,-1034,-629,-283,118,188,-66
3012,6332,0,2023-03-10T14:06:52.925823,6291101,837,531,1549,-1034,-629,-283,118,188,-66
3013,6333,0,2023-03-10T14:06:52.930556,6291105,817,515,1536,-1029,-659,-218,118,188,-66
3014,6334,0,2023-03-10T14:06:52.935466,6291110,817,515,1536,-1029,-659,-218,118,188,-66
3015,6335,0,2023-03-10T14:06:52.941145,6291117,817,515,1536,-1029,-659,-218,118,188,-66
3016,6336,0,2023-03-10T14:06:52.945789,6291121,817,515,1536,-1029,-659,-218,118,188,-66
3017,6337,0,2023-03-10T14:06:52.950279,6291126,814,519,1527,-1036,-654,-272,118,188,-66
3018,6338,0,2023-03-10T14:06:52.955190,6291131,814,519,1527,-1036,-654,-272,118,188,-66
3019,6339,0,2023-03-10T14:06:52.961044,6291136,814,519,1527,-1036,-654,-272,118,188,-66
3020,6340,0,2023-03-10T14:06:52.965766,6291141,814,519,1527,-1036,-654,-272,118,188,-66
3021,6341,0,2023-03-10T14:06:52.970496,6291145,835,520,1541,-1050,-627,-281,118,188,-66
3022,6342,0,2023-03-10T14:06:52.975834,6291150,835,520,1541,-1050,-627,-281,118,188,-66
3023,6343,0,2023-03-10T14:06:52.981559,6291156,835,520,1541,-1050,-627,-281,118,188,-66
3024,6344,0,2023-03-10T14:06:52.986360,6291162,835,520,1541,-1050,-627,-281,118,188,-66
3025,6345,0,2023-03-10T14:06:52.990766,6291166,809,519,1543,-1022,-639,-246,118,188,-66
3026,6346,0,2023-03-10T14:06:52.995267,6291171,809,519,1543,-1022,-639,-246,118,188,-66
3027,6347,0,2023-03-10T14:06:53.000495,6291176,809,519,1543,-1022,-639,-246,118,188,-66
3028,6348,0,2023-03-10T14:06:53.005024,6291180,809,519,1543,-1022,-639,-246,118,188,-66
3029,6349,0,2023-03-10T14:06:53.009614,6291185,840,527,1531,-1043,-633,-271,118,188,-66
3030,6350,0,2023-03-10T14:06:53.014623,6291190,840,527,1531,-1043,-633,-271,118,188,-66
3031,6351,0,2023-03-10T14:06:53.019829,6291194,840,527,1531,-1043,-633,-271,118,188,-66
3032,6352,0,2023-03-10T14:06:53.024581,6291200,840,527,1531,-1043,-633,-271,118,188,-66
3033,6353,0,2023-03-10T14:06:53.029218,6291205,803,515,1537,-1021,-634,-221,113,191,-69
3034,6354,0,2023-03-10T14:06:53.034034,6291210,803,515,1537,-1021,-634,-221,113,191,-69
3035,6355,0,2023-03-10T14:06:53.039029,6291214,803,515,1537,-1021,-634,-221,113,191,-69
3036,6356,0,2023-03-10T14:06:53.043566,6291219,803,515,1537,-1021,-634,-221,113,191,-69
3037,6357,0,2023-03-10T14:06:53.048076,6291223,832,521,1544,-1060,-644,-293,113,191,-69
3038,6358,0,2023-03-10T14:06:53.052449,6291227,832,521,1544,-1060,-644,-293,113,191,-69
3039,6359,0,2023-03-10T14:06:53.057636,6291232,832,521,1544,-1060,-644,-293,113,191,-69
3040,6360,0,2023-03-10T14:06:53.062857,6291238,832,521,1544,-1060,-644,-293,113,191,-69
3041,6361,0,2023-03-10T14:06:53.067237,6291243,821,523,1536,-1042,-649,-256,113,191,-69
3042,6362,0,2023-03-10T14:06:53.072607,6291248,821,523,1536,-1042,-649,-256,113,191,-69
3043,6363,0,2023-03-10T14:06:53.077602,6291253,821,523,1536,-1042,-649,-256,113,191,-69
3044,6364,0,2023-03-10T14:06:53.082199,6291257,821,523,1536,-1042,-649,-256,113,191,-69
3045,6365,0,2023-03-10T14:06:53.086852,6291262,820,521,1539,-1033,-628,-224,113,191,-69
3046,6366,0,2023-03-10T14:06:53.092214,6291267,820,521,1539,-1033,-628,-224,113,191,-69
3047,6367,0,2023-03-10T14:06:53.097274,6291272,820,521,1539,-1033,-628,-224,113,191,-69
3048,6368,0,2023-03-10T14:06:53.101884,6291277,820,521,1539,-1033,-628,-224,113,191,-69
3049,6369,0,2023-03-10T14:06:53.106613,6291281,829,522,1531,-1038,-651,-291,113,191,-69
3050,6370,0,2023-03-10T14:06:53.111409,6291287,829,522,1531,-1038,-651,-291,113,191,-69
3051,6371,0,2023-03-10T14:06:53.116049,6291292,829,522,1531,-1038,-651,-291,113,191,-69
3052,6372,0,2023-03-10T14:06:53.120948,6291296,829,522,1531,-1038,-651,-291,113,191,-69
3053,6373,0,2023-03-10T14:06:53.125325,6291301,829,522,1531,-1038,-651,-291,113,191,-69
3054,6374,0,2023-03-10T14:06:53.129698,6291305,822,516,1517,-1051,-643,-277,113,191,-69
3055,6375,0,2023-03-10T14:06:53.134122,6291309,822,516,1517,-1051,-643,-277,113,191,-69
3056,6376,0,2023-03-10T14:06:53.139446,6291314,822,516,1517,-1051,-643,-277,113,191,-69
3057,6377,0,2023-03-10T14:06:53.144022,6291319,822,516,1517,-1051,-643,-277,113,191,-69
3058,6378,0,2023-03-10T14:06:53.148524,6291323,825,519,1540,-1029,-623,-258,121,185,-65
3059,6379,0,2023-03-10T14:06:53.153628,6291329,825,519,1540,-1029,-623,-258,121,185,-65
3060,6380,0,2023-03-10T14:06:53.158149,6291333,825,519,1540,-1029,-623,-258,121,185,-65
3061,6381,0,2023-03-10T14:06:53.162870,6291338,825,519,1540,-1029,-623,-258,121,185,-65
3062,6382,0,2023-03-10T14:06:53.167287,6291343,817,521,1536,-1050,-651,-264,121,185,-65
3063,6383,0,2023-03-10T14:06:53.172346,6291348,817,521,1536,-1050,-651,-264,121,185,-65
3064,6384,0,2023-03-10T14:06:53.176731,6291352,817,521,1536,-1050,-651,-264,121,185,-65
3065,6385,0,2023-03-10T14:06:53.181206,6291356,817,521,1536,-1050,-651,-264,121,185,-65
3066,6386,0,2023-03-10T14:06:53.185526,6291361,817,521,1536,-1050,-651,-264,121,185,-65
3067,6387,0,2023-03-10T14:06:53.190036,6291365,834,521,1542,-1037,-639,-260,121,185,-65
3068,6388,0,2023-03-10T14:06:53.194879,6291371,834,521,1542,-1037,-639,-260,121,185,-65
3069,6389,0,2023-03-10T14:06:53.199514,6291375,834,521,1542,-1037,-639,-260,121,185,-65
3070,6390,0,2023-03-10T14:06:53.204198,6291379,834,521,1542,-1037,-639,-260,121,185,-65
3071,6391,0,2023-03-10T14:06:53.209050,6291384,820,514,1527,-1034,-639,-254,121,185,-65
3072,6392,0,2023-03-10T14:06:53.214270,6291389,820,514,1527,-1034,-639,-254,121,185,-65
3073,6393,0,2023-03-10T14:06:53.219875,6291395,820,514,1527,-1034,-639,-254,121,185,-65
3074,6394,0,2023-03-10T14:06:53.224360,6291399,820,514,1527,-1034,-639,-254,121,185,-65
3075,6395,0,2023-03-10T14:06:53.229103,6291404,822,519,1529,-1046,-636,-263,121,185,-65
3076,6396,0,2023-03-10T14:06:53.234006,6291409,822,519,1529,-1046,-636,-263,121,185,-65
3077,6397,0,2023-03-10T14:06:53.239364,6291415,822,519,1529,-1046,-636,-263,121,185,-65
3078,6398,0,2023-03-10T14:06:53.244071,6291420,822,519,1529,-1046,-636,-263,121,185,-65
3079,6399,0,2023-03-10T14:06:53.248489,6291424,834,528,1542,-1030,-619,-265,121,185,-65
3080,6400,0,2023-03-10T14:06:53.253511,6291429,834,528,1542,-1030,-619,-265,121,185,-65
3081,6401,0,2023-03-10T14:06:53.258477,6291434,834,528,1542,-1030,-619,-265,121,185,-65
3082,6402,0,2023-03-10T14:06:53.263559,6291439,834,528,1542,-1030,-619,-265,121,185,-65
3083,6403,0,2023-03-10T14:06:53.268039,6291443,835,522,1530,-1036,-684,-243,121,185,-65
3084,6404,0,2023-03-10T14:06:53.273317,6291448,835,522,1530,-1036,-684,-243,121,185,-65
3085,6405,0,2023-03-10T14:06:53.278420,6291453,835,522,1530,-1036,-684,-243,121,185,-65
3086,6406,0,2023-03-10T14:06:53.283217,6291459,835,522,1530,-1036,-684,-243,121,185,-65
3087,6407,0,2023-03-10T14:06:53.287997,6291463,813,516,1530,-1036,-636,-244,115,183,-67
3088,6408,0,2023-03-10T14:06:53.292828,6291468,813,516,1530,-1036,-636,-244,115,183,-67
3089,6409,0,2023-03-10T14:06:53.297933,6291473,813,516,1530,-1036,-636,-244,115,183,-67
3090,6410,0,2023-03-10T14:06:53.302398,6291478,813,516,1530,-1036,-636,-244,115,183,-67
3091,6411,0,2023-03-10T14:06:53.307281,6291482,835,520,1529,-1052,-604,-298,115,183,-67
3092,6412,0,2023-03-10T14:06:53.312303,6291487,835,520,1529,-1052,-604,-298,115,183,-67
3093,6413,0,2023-03-10T14:06:53.317296,6291492,835,520,1529,-1052,-604,-298,115,183,-67
3094,6414,0,2023-03-10T14:06:53.322487,6291497,835,520,1529,-1052,-604,-298,115,183,-67
3095,6415,0,2023-03-10T14:06:53.326903,6291502,822,513,1544,-1023,-614,-230,115,183,-67
3096,6416,0,2023-03-10T14:06:53.331879,6291507,822,513,1544,-1023,-614,-230,115,183,-67
3097,6417,0,2023-03-10T14:06:53.336676,6291512,822,513,1544,-1023,-614,-230,115,183,-67
3098,6418,0,2023-03-10T14:06:53.341543,6291517,822,513,1544,-1023,-614,-230,115,183,-67
3099,6419,0,2023-03-10T14:06:53.346152,6291521,822,513,1544,-1023,-614,-230,115,183,-67
3100,6420,0,2023-03-10T14:06:53.350941,6291526,821,516,1535,-1023,-676,-243,115,183,-67
3101,6421,0,2023-03-10T14:06:53.356200,6291531,821,516,1535,-1023,-676,-243,115,183,-67
3102,6422,0,2023-03-10T14:06:53.361463,6291536,821,516,1535,-1023,-676,-243,115,183,-67
3103,6423,0,2023-03-10T14:06:53.365815,6291542,821,516,1535,-1023,-676,-243,115,183,-67
3104,6424,0,2023-03-10T14:06:53.370352,6291546,821,516,1535,-1023,-676,-243,115,183,-67
3105,6425,0,2023-03-10T14:06:53.375044,6291550,821,516,1535,-1023,-676,-243,115,183,-67
3106,6426,0,2023-03-10T14:06:53.380368,6291556,821,516,1535,-1023,-676,-243,115,183,-67
3107,6427,0,2023-03-10T14:06:53.385258,6291560,821,516,1535,-1023,-676,-243,115,183,-67
3108,6428,0,2023-03-10T14:06:53.389665,6291565,830,521,1529,-1033,-666,-260,115,183,-67
3109,6429,0,2023-03-10T14:06:53.394573,6291570,830,521,1529,-1033,-666,-260,115,183,-67
3110,6430,0,2023-03-10T14:06:53.400368,6291575,830,521,1529,-1033,-666,-260,115,183,-67
3111,6431,0,2023-03-10T14:06:53.404892,6291580,830,521,1529,-1033,-666,-260,115,183,-67
3112,6432,0,2023-03-10T14:06:53.409347,6291585,831,523,1536,-1040,-620,-276,111,183,-69
3113,6433,0,2023-03-10T14:06:53.414335,6291590,831,523,1536,-1040,-620,-276,111,183,-69
3114,6434,0,2023-03-10T14:06:53.419648,6291595,831,523,1536,-1040,-620,-276,111,183,-69
3115,6435,0,2023-03-10T14:06:53.423996,6291599,831,523,1536,-1040,-620,-276,111,183,-69
3116,6436,0,2023-03-10T14:06:53.428438,6291604,815,514,1526,-1034,-637,-228,111,183,-69
3117,6437,0,2023-03-10T14:06:53.433588,6291609,815,514,1526,-1034,-637,-228,111,183,-69
3118,6438,0,2023-03-10T14:06:53.438453,6291614,815,514,1526,-1034,-637,-228,111,183,-69
3119,6439,0,2023-03-10T14:06:53.442967,6291618,815,514,1526,-1034,-637,-228,111,183,-69
3120,6440,0,2023-03-10T14:06:53.447405,6291622,815,514,1526,-1034,-637,-228,111,183,-69
3121,6441,0,2023-03-10T14:06:53.451815,6291627,815,514,1526,-1034,-637,-228,111,183,-69
3122,6442,0,2023-03-10T14:06:53.456254,6291632,815,514,1526,-1034,-637,-228,111,183,-69
3123,6443,0,2023-03-10T14:06:53.461949,6291637,815,514,1526,-1034,-637,-228,111,183,-69
3124,6444,0,2023-03-10T14:06:53.466497,6291642,815,514,1526,-1034,-637,-228,111,183,-69
3125,6445,0,2023-03-10T14:06:53.471040,6291646,826,518,1528,-1055,-662,-281,111,183,-69
3126,6446,0,2023-03-10T14:06:53.476199,6291651,826,518,1528,-1055,-662,-281,111,183,-69
3127,6447,0,2023-03-10T14:06:53.481397,6291656,826,518,1528,-1055,-662,-281,111,183,-69
3128,6448,0,2023-03-10T14:06:53.486425,6291661,826,518,1528,-1055,-662,-281,111,183,-69
3129,6449,0,2023-03-10T14:06:53.490582,6291666,839,522,1531,-1037,-633,-266,111,183,-69
3130,6450,0,2023-03-10T14:06:53.495404,6291671,839,522,1531,-1037,-633,-266,111,183,-69
3131,6451,0,2023-03-10T14:06:53.501214,6291677,839,522,1531,-1037,-633,-266,111,183,-69
3132,6452,0,2023-03-10T14:06:53.506018,6291681,839,522,1531,-1037,-633,-266,111,183,-69
3133,6453,0,2023-03-10T14:06:53.510573,6291686,819,513,1529,-1038,-625,-252,111,183,-69
3134,6454,0,2023-03-10T14:06:53.515661,6291691,819,513,1529,-1038,-625,-252,111,183,-69
3135,6455,0,2023-03-10T14:06:53.520962,6291696,819,513,1529,-1038,-625,-252,111,183,-69
3136,6456,0,2023-03-10T14:06:53.525405,6291700,819,513,1529,-1038,-625,-252,111,183,-69
3137,6457,0,2023-03-10T14:06:53.529963,6291705,829,517,1528,-1037,-660,-261,111,183,-69
3138,6458,0,2023-03-10T14:06:53.535172,6291710,829,517,1528,-1037,-660,-261,111,183,-69
3139,6459,0,2023-03-10T14:06:53.539549,6291715,829,517,1528,-1037,-660,-261,111,183,-69
3140,6460,0,2023-03-10T14:06:53.544395,6291720,829,517,1528,-1037,-660,-261,111,183,-69
3141,6461,0,2023-03-10T14:06:53.549167,6291724,833,526,1551,-1047,-607,-265,122,186,-66
3142,6462,0,2023-03-10T14:06:53.554335,6291730,833,526,1551,-1047,-607,-265,122,186,-66
3143,6463,0,2023-03-10T14:06:53.559644,6291734,833,526,1551,-1047,-607,-265,122,186,-66
3144,6464,0,2023-03-10T14:06:53.565024,6291740,833,526,1551,-1047,-607,-265,122,186,-66
3145,6465,0,2023-03-10T14:06:53.569645,6291745,824,516,1527,-1040,-671,-250,122,186,-66
3146,6466,0,2023-03-10T14:06:53.574853,6291750,824,516,1527,-1040,-671,-250,122,186,-66
3147,6467,0,2023-03-10T14:06:53.580930,6291756,824,516,1527,-1040,-671,-250,122,186,-66
3148,6468,0,2023-03-10T14:06:53.585577,6291761,824,516,1527,-1040,-671,-250,122,186,-66
3149,6469,0,2023-03-10T14:06:53.589975,6291765,839,521,1539,-1046,-615,-265,122,186,-66
3150,6470,0,2023-03-10T14:06:53.595008,6291770,839,521,1539,-1046,-615,-265,122,186,-66
3151,6471,0,2023-03-10T14:06:53.599485,6291775,839,521,1539,-1046,-615,-265,122,186,-66
3152,6472,0,2023-03-10T14:06:53.604309,6291779,839,521,1539,-1046,-615,-265,122,186,-66
3153,6473,0,2023-03-10T14:06:53.608673,6291784,813,507,1529,-1038,-628,-228,122,186,-66
3154,6474,0,2023-03-10T14:06:53.613567,6291789,813,507,1529,-1038,-628,-228,122,186,-66
3155,6475,0,2023-03-10T14:06:53.618398,6291793,813,507,1529,-1038,-628,-228,122,186,-66
3156,6476,0,2023-03-10T14:06:53.623598,6291799,813,507,1529,-1038,-628,-228,122,186,-66
3157,6477,0,2023-03-10T14:06:53.628154,6291804,831,519,1537,-1026,-649,-268,122,186,-66
3158,6478,0,2023-03-10T14:06:53.633131,6291809,831,519,1537,-1026,-649,-268,122,186,-66
3159,6479,0,2023-03-10T14:06:53.638239,6291814,831,519,1537,-1026,-649,-268,122,186,-66
3160,6480,0,2023-03-10T14:06:53.642972,6291818,831,519,1537,-1026,-649,-268,122,186,-66
3161,6481,0,2023-03-10T14:06:53.647487,6291822,831,517,1544,-1037,-618,-256,122,186,-66
3162,6482,0,2023-03-10T14:06:53.652387,6291827,831,517,1544,-1037,-618,-256,122,186,-66
3163,6483,0,2023-03-10T14:06:53.657552,6291833,831,517,1544,-1037,-618,-256,122,186,-66
3164,6484,0,2023-03-10T14:06:53.662042,6291837,831,517,1544,-1037,-618,-256,122,186,-66
