,Unnamed: 0,imu,server_time,arduino_time,ax,ay,az,gx,gy,gz,mx,my,mz
18030,1350,0,2023-03-10T14:08:04.742994,6362923,1792,422,868,-1022,-647,-289,125,103,-91
18031,1351,0,2023-03-10T14:08:04.748261,6362928,1792,422,868,-1022,-647,-289,125,103,-91
18032,1352,0,2023-03-10T14:08:04.752511,6362932,1792,422,868,-1022,-647,-289,125,103,-91
18033,1353,0,2023-03-10T14:08:04.757157,6362936,1792,422,868,-1022,-647,-289,125,103,-91
18034,1354,0,2023-03-10T14:08:04.761667,6362941,1792,422,879,-985,-643,-271,125,103,-91
18035,1355,0,2023-03-10T14:08:04.767202,6362946,1792,422,879,-985,-643,-271,125,103,-91
18036,1356,0,2023-03-10T14:08:04.771826,6362951,1792,422,879,-985,-643,-271,125,103,-91
18037,1357,0,2023-03-10T14:08:04.776147,6362955,1792,422,879,-985,-643,-271,125,103,-91
18038,1358,0,2023-03-10T14:08:04.780696,6362959,1792,422,879,-985,-643,-271,125,103,-91
18039,1359,0,2023-03-10T14:08:04.786156,6362966,1784,417,863,-1018,-630,-281,131,95,-95
18040,1360,0,2023-03-10T14:08:04.791272,6362971,1784,417,863,-1018,-630,-281,131,95,-95
18041,1361,0,2023-03-10T14:08:04.796230,6362976,1784,417,863,-1018,-630,-281,131,95,-95
18042,1362,0,2023-03-10T14:08:04.800826,6362980,1784,417,863,-1018,-630,-281,131,95,-95
18043,1363,0,2023-03-10T14:08:04.805610,6362985,1774,417,875,-994,-609,-255,131,95,-95
18044,1364,0,2023-03-10T14:08:04.810401,6362990,1774,417,875,-994,-609,-255,131,95,-95
18045,1365,0,2023-03-10T14:08:04.815051,6362994,1774,417,875,-994,-609,-255,131,95,-95
18046,1366,0,2023-03-10T14:08:04.819860,6362999,1774,417,875,-994,-609,-255,131,95,-95
18047,1367,0,2023-03-10T14:08:04.824253,6363003,1780,421,888,-965,-613,-252,131,95,-95
18048,1368,0,2023-03-10T14:08:04.829651,6363009,1780,421,888,-965,-613,-252,131,95,-95
18049,1369,0,2023-03-10T14:08:04.834113,6363014,1780,421,888,-965,-613,-252,131,95,-95
18050,1370,0,2023-03-10T14:08:04.838478,6363018,1780,421,888,-965,-613,-252,131,95,-95
18051,1371,0,2023-03-10T14:08:04.842923,6363022,1794,422,872,-1019,-654,-288,131,95,-95
18052,1372,0,2023-03-10T14:08:04.848229,6363028,1794,422,872,-1019,-654,-288,131,95,-95
18053,1373,0,2023-03-10T14:08:04.852661,6363032,1794,422,872,-1019,-654,-288,131,95,-95
18054,1374,0,2023-03-10T14:08:04.857314,6363036,1794,422,872,-1019,-654,-288,131,95,-95
18055,1375,0,2023-03-10T14:08:04.862156,6363041,1779,417,864,-1023,-645,-271,131,95,-95
18056,1376,0,2023-03-10T14:08:04.867496,6363046,1779,417,864,-1023,-645,-271,131,95,-95
18057,1377,0,2023-03-10T14:08:04.872147,6363052,1779,417,864,-1023,-645,-271,131,95,-95
18058,1378,0,2023-03-10T14:08:04.877264,6363057,1779,417,864,-1023,-645,-271,131,95,-95
18059,1379,0,2023-03-10T14:08:04.881693,6363061,1779,417,864,-1023,-645,-271,131,95,-95
18060,1380,0,2023-03-10T14:08:04.886399,6363066,1779,417,864,-1023,-645,-271,131,95,-95
18061,1381,0,2023-03-10T14:08:04.890977,6363070,1779,417,864,-1023,-645,-271,131,95,-95
18062,1382,0,2023-03-10T14:08:04.896159,6363075,1779,417,864,-1023,-645,-271,131,95,-95
18063,1383,0,2023-03-10T14:08:04.900579,6363080,1779,417,864,-1023,-645,-271,131,95,-95
18064,1384,0,2023-03-10T14:08:04.905533,6363084,1777,425,873,-1009,-630,-278,114,94,-92
18065,1385,0,2023-03-10T14:08:04.909958,6363089,1777,425,873,-1009,-630,-278,114,94,-92
18066,1386,0,2023-03-10T14:08:04.914609,6363094,1777,425,873,-1009,-630,-278,114,94,-92
18067,1387,0,2023-03-10T14:08:04.919168,6363099,1777,425,873,-1009,-630,-278,114,94,-92
18068,1388,0,2023-03-10T14:08:04.923835,6363103,1794,418,881,-1002,-634,-274,114,94,-92
18069,1389,0,2023-03-10T14:08:04.928853,6363108,1794,418,881,-1002,-634,-274,114,94,-92
18070,1390,0,2023-03-10T14:08:04.933281,6363113,1794,418,881,-1002,-634,-274,114,94,-92
18071,1391,0,2023-03-10T14:08:04.937793,6363117,1794,418,881,-1002,-634,-274,114,94,-92
18072,1392,0,2023-03-10T14:08:04.942275,6363121,1788,427,880,-1009,-631,-287,114,94,-92
18073,1393,0,2023-03-10T14:08:04.948031,6363127,1788,427,880,-1009,-631,-287,114,94,-92
18074,1394,0,2023-03-10T14:08:04.952350,6363131,1788,427,880,-1009,-631,-287,114,94,-92
18075,1395,0,2023-03-10T14:08:04.956739,6363136,1788,427,880,-1009,-631,-287,114,94,-92
18076,1396,0,2023-03-10T14:08:04.961189,6363141,1788,427,880,-1009,-631,-287,114,94,-92
18077,1397,0,2023-03-10T14:08:04.966403,6363146,1763,404,869,-1030,-622,-260,114,94,-92
18078,1398,0,2023-03-10T14:08:04.971429,6363151,1763,404,869,-1030,-622,-260,114,94,-92
18079,1399,0,2023-03-10T14:08:04.975886,6363155,1763,404,869,-1030,-622,-260,114,94,-92
18080,1400,0,2023-03-10T14:08:04.980358,6363159,1763,404,869,-1030,-622,-260,114,94,-92
18081,1401,0,2023-03-10T14:08:04.985269,6363164,1794,428,881,-992,-642,-289,114,94,-92
18082,1402,0,2023-03-10T14:08:04.989822,6363169,1794,428,881,-992,-642,-289,114,94,-92
18083,1403,0,2023-03-10T14:08:04.994211,6363173,1794,428,881,-992,-642,-289,114,94,-92
18084,1404,0,2023-03-10T14:08:04.999187,6363179,1794,428,881,-992,-642,-289,114,94,-92
18085,1405,0,2023-03-10T14:08:05.003669,6363183,1788,416,870,-983,-640,-248,114,94,-92
18086,1406,0,2023-03-10T14:08:05.009236,6363189,1788,416,870,-983,-640,-248,114,94,-92
18087,1407,0,2023-03-10T14:08:05.013889,6363193,1788,416,870,-983,-640,-248,114,94,-92
18088,1408,0,2023-03-10T14:08:05.018347,6363198,1788,416,870,-983,-640,-248,114,94,-92
18089,1409,0,2023-03-10T14:08:05.022750,6363202,1783,417,863,-1003,-617,-284,119,99,-99
18090,1410,0,2023-03-10T14:08:05.027983,6363207,1783,417,863,-1003,-617,-284,119,99,-99
18091,1411,0,2023-03-10T14:08:05.032460,6363212,1783,417,863,-1003,-617,-284,119,99,-99
18092,1412,0,2023-03-10T14:08:05.036709,6363216,1783,417,863,-1003,-617,-284,119,99,-99
18093,1413,0,2023-03-10T14:08:05.041134,6363220,1783,417,863,-1003,-617,-284,119,99,-99
18094,1414,0,2023-03-10T14:08:05.046132,6363226,1775,408,871,-1002,-618,-263,119,99,-99
18095,1415,0,2023-03-10T14:08:05.051238,6363231,1775,408,871,-1002,-618,-263,119,99,-99
18096,1416,0,2023-03-10T14:08:05.055531,6363235,1775,408,871,-1002,-618,-263,119,99,-99
18097,1417,0,2023-03-10T14:08:05.060124,6363239,1775,408,871,-1002,-618,-263,119,99,-99
18098,1418,0,2023-03-10T14:08:05.064452,6363244,1794,423,881,-999,-623,-284,119,99,-99
18099,1419,0,2023-03-10T14:08:05.069953,6363249,1794,423,881,-999,-623,-284,119,99,-99
18100,1420,0,2023-03-10T14:08:05.075075,6363254,1794,423,881,-999,-623,-284,119,99,-99
18101,1421,0,2023-03-10T14:08:05.080358,6363259,1794,423,881,-999,-623,-284,119,99,-99
18102,1422,0,2023-03-10T14:08:05.084766,6363265,1798,423,869,-1014,-639,-272,119,99,-99
18103,1423,0,2023-03-10T14:08:05.089355,6363269,1798,423,869,-1014,-639,-272,119,99,-99
18104,1424,0,2023-03-10T14:08:05.093906,6363273,1798,423,869,-1014,-639,-272,119,99,-99
18105,1425,0,2023-03-10T14:08:05.098341,6363278,1798,423,869,-1014,-639,-272,119,99,-99
18106,1426,0,2023-03-10T14:08:05.102926,6363282,1783,416,873,-1006,-630,-271,119,99,-99
18107,1427,0,2023-03-10T14:08:05.108037,6363287,1783,416,873,-1006,-630,-271,119,99,-99
18108,1428,0,2023-03-10T14:08:05.112440,6363292,1783,416,873,-1006,-630,-271,119,99,-99
18109,1429,0,2023-03-10T14:08:05.117055,6363296,1783,416,873,-1006,-630,-271,119,99,-99
18110,1430,0,2023-03-10T14:08:05.121286,6363300,1783,416,873,-1006,-630,-271,119,99,-99
18111,1431,0,2023-03-10T14:08:05.126103,6363305,1777,414,869,-1005,-617,-278,119,99,-99
18112,1432,0,2023-03-10T14:08:05.131093,6363311,1777,414,869,-1005,-617,-278,119,99,-99
18113,1433,0,2023-03-10T14:08:05.135609,6363315,1777,414,869,-1005,-617,-278,119,99,-99
18114,1434,0,2023-03-10T14:08:05.139970,6363319,1777,414,869,-1005,-617,-278,119,99,-99
18115,1435,0,2023-03-10T14:08:05.144358,6363324,1791,415,871,-976,-652,-275,119,99,-99
18116,1436,0,2023-03-10T14:08:05.149706,6363329,1791,415,871,-976,-652,-275,119,99,-99
18117,1437,0,2023-03-10T14:08:05.154357,6363333,1791,415,871,-976,-652,-275,119,99,-99
18118,1438,0,2023-03-10T14:08:05.158839,6363338,1791,415,871,-976,-652,-275,119,99,-99
18119,1439,0,2023-03-10T14:08:05.163430,6363342,1784,420,876,-996,-613,-279,128,92,-100
18120,1440,0,2023-03-10T14:08:05.168680,6363347,1784,420,876,-996,-613,-279,128,92,-100
18121,1441,0,2023-03-10T14:08:05.173083,6363353,1784,420,876,-996,-613,-279,128,92,-100
18122,1442,0,2023-03-10T14:08:05.177600,6363357,1784,420,876,-996,-613,-279,128,92,-100
18123,1443,0,2023-03-10T14:08:05.182143,6363361,1792,415,877,-1000,-637,-275,128,92,-100
18124,1444,0,2023-03-10T14:08:05.187657,6363367,1792,415,877,-1000,-637,-275,128,92,-100
18125,1445,0,2023-03-10T14:08:05.192184,6363371,1792,415,877,-1000,-637,-275,128,92,-100
18126,1446,0,2023-03-10T14:08:05.196543,6363376,1792,415,877,-1000,-637,-275,128,92,-100
18127,1447,0,2023-03-10T14:08:05.200973,6363380,1792,415,877,-1000,-637,-275,128,92,-100
18128,1448,0,2023-03-10T14:08:05.205894,6363385,1783,417,871,-1010,-603,-276,128,92,-100
18129,1449,0,2023-03-10T14:08:05.210947,6363390,1783,417,871,-1010,-603,-276,128,92,-100
18130,1450,0,2023-03-10T14:08:05.215492,6363395,1783,417,871,-1010,-603,-276,128,92,-100
18131,1451,0,2023-03-10T14:08:05.220280,6363400,1783,417,871,-1010,-603,-276,128,92,-100
18132,1452,0,2023-03-10T14:08:05.224713,6363404,1785,412,869,-1007,-649,-273,128,92,-100
18133,1453,0,2023-03-10T14:08:05.230083,6363409,1785,412,869,-1007,-649,-273,128,92,-100
18134,1454,0,2023-03-10T14:08:05.234512,6363414,1785,412,869,-1007,-649,-273,128,92,-100
18135,1455,0,2023-03-10T14:08:05.239004,6363418,1785,412,869,-1007,-649,-273,128,92,-100
18136,1456,0,2023-03-10T14:08:05.243349,6363422,1798,426,872,-1017,-609,-287,128,92,-100
18137,1457,0,2023-03-10T14:08:05.248242,6363427,1798,426,872,-1017,-609,-287,128,92,-100
18138,1458,0,2023-03-10T14:08:05.252572,6363431,1798,426,872,-1017,-609,-287,128,92,-100
18139,1459,0,2023-03-10T14:08:05.257067,6363437,1798,426,872,-1017,-609,-287,128,92,-100
18140,1460,0,2023-03-10T14:08:05.262066,6363441,1798,426,872,-1017,-609,-287,128,92,-100
18141,1461,0,2023-03-10T14:08:05.266422,6363446,1789,421,878,-983,-679,-234,128,92,-100
18142,1462,0,2023-03-10T14:08:05.271735,6363451,1789,421,878,-983,-679,-234,128,92,-100
18143,1463,0,2023-03-10T14:08:05.276193,6363455,1789,421,878,-983,-679,-234,128,92,-100
18144,1464,0,2023-03-10T14:08:05.280721,6363460,1789,421,878,-983,-679,-234,128,92,-100
18145,1465,0,2023-03-10T14:08:05.286045,6363465,1782,420,878,-989,-646,-264,118,94,-88
18146,1466,0,2023-03-10T14:08:05.290994,6363470,1782,420,878,-989,-646,-264,118,94,-88
18147,1467,0,2023-03-10T14:08:05.295568,6363474,1782,420,878,-989,-646,-264,118,94,-88
18148,1468,0,2023-03-10T14:08:05.300060,6363480,1782,420,878,-989,-646,-264,118,94,-88
18149,1469,0,2023-03-10T14:08:05.304634,6363484,1781,413,864,-1037,-593,-285,118,94,-88
18150,1470,0,2023-03-10T14:08:05.310218,6363490,1781,413,864,-1037,-593,-285,118,94,-88
18151,1471,0,2023-03-10T14:08:05.314740,6363494,1781,413,864,-1037,-593,-285,118,94,-88
18152,1472,0,2023-03-10T14:08:05.319456,6363499,1781,413,864,-1037,-593,-285,118,94,-88
18153,1473,0,2023-03-10T14:08:05.324178,6363503,1814,432,876,-996,-626,-294,118,94,-88
18154,1474,0,2023-03-10T14:08:05.328894,6363508,1814,432,876,-996,-626,-294,118,94,-88
18155,1475,0,2023-03-10T14:08:05.333929,6363513,1814,432,876,-996,-626,-294,118,94,-88
18156,1476,0,2023-03-10T14:08:05.338336,6363517,1814,432,876,-996,-626,-294,118,94,-88
18157,1477,0,2023-03-10T14:08:05.342779,6363522,1773,407,861,-1007,-627,-259,118,94,-88
18158,1478,0,2023-03-10T14:08:05.348028,6363528,1773,407,861,-1007,-627,-259,118,94,-88
18159,1479,0,2023-03-10T14:08:05.352690,6363532,1773,407,861,-1007,-627,-259,118,94,-88
18160,1480,0,2023-03-10T14:08:05.357370,6363536,1773,407,861,-1007,-627,-259,118,94,-88
18161,1481,0,2023-03-10T14:08:05.361908,6363541,1773,407,861,-1007,-627,-259,118,94,-88
18162,1482,0,2023-03-10T14:08:05.366994,6363546,1802,426,872,-1012,-603,-299,118,94,-88
18163,1483,0,2023-03-10T14:08:05.372138,6363551,1802,426,872,-1012,-603,-299,118,94,-88
18164,1484,0,2023-03-10T14:08:05.376689,6363556,1802,426,872,-1012,-603,-299,118,94,-88
18165,1485,0,2023-03-10T14:08:05.381189,6363560,1802,426,872,-1012,-603,-299,118,94,-88
18166,1486,0,2023-03-10T14:08:05.386115,6363566,1774,411,876,-971,-632,-234,118,94,-88
18167,1487,0,2023-03-10T14:08:05.391397,6363571,1774,411,876,-971,-632,-234,118,94,-88
18168,1488,0,2023-03-10T14:08:05.395857,6363575,1774,411,876,-971,-632,-234,118,94,-88
18169,1489,0,2023-03-10T14:08:05.400249,6363580,1774,411,876,-971,-632,-234,118,94,-88
18170,1490,0,2023-03-10T14:08:05.404860,6363584,1800,418,877,-1002,-628,-293,118,94,-88
18171,1491,0,2023-03-10T14:08:05.410327,6363589,1800,418,877,-1002,-628,-293,118,94,-88
18172,1492,0,2023-03-10T14:08:05.414822,6363594,1800,418,877,-1002,-628,-293,118,94,-88
18173,1493,0,2023-03-10T14:08:05.419566,6363598,1800,418,877,-1002,-628,-293,118,94,-88
18174,1494,0,2023-03-10T14:08:05.424052,6363603,1792,415,857,-1028,-644,-293,119,85,-97
18175,1495,0,2023-03-10T14:08:05.429688,6363609,1792,415,857,-1028,-644,-293,119,85,-97
18176,1496,0,2023-03-10T14:08:05.434379,6363614,1792,415,857,-1028,-644,-293,119,85,-97
18177,1497,0,2023-03-10T14:08:05.439154,6363618,1792,415,857,-1028,-644,-293,119,85,-97
18178,1498,0,2023-03-10T14:08:05.443800,6363623,1773,402,869,-1004,-621,-265,119,85,-97
18179,1499,0,2023-03-10T14:08:05.449301,6363628,1773,402,869,-1004,-621,-265,119,85,-97
18180,1500,0,2023-03-10T14:08:05.453612,6363633,1773,402,869,-1004,-621,-265,119,85,-97
18181,1501,0,2023-03-10T14:08:05.458244,6363637,1773,402,869,-1004,-621,-265,119,85,-97
18182,1502,0,2023-03-10T14:08:05.462825,6363641,1801,424,871,-1002,-636,-299,119,85,-97
18183,1503,0,2023-03-10T14:08:05.468131,6363648,1801,424,871,-1002,-636,-299,119,85,-97
18184,1504,0,2023-03-10T14:08:05.472716,6363652,1801,424,871,-1002,-636,-299,119,85,-97
18185,1505,0,2023-03-10T14:08:05.477631,6363657,1801,424,871,-1002,-636,-299,119,85,-97
18186,1506,0,2023-03-10T14:08:05.482455,6363662,1801,424,871,-1002,-636,-299,119,85,-97
18187,1507,0,2023-03-10T14:08:05.487409,6363667,1798,420,863,-999,-620,-269,119,85,-97
18188,1508,0,2023-03-10T14:08:05.492415,6363672,1798,420,863,-999,-620,-269,119,85,-97
18189,1509,0,2023-03-10T14:08:05.497081,6363676,1798,420,863,-999,-620,-269,119,85,-97
18190,1510,0,2023-03-10T14:08:05.501512,6363681,1798,420,863,-999,-620,-269,119,85,-97
18191,1511,0,2023-03-10T14:08:05.506150,6363685,1779,411,868,-984,-613,-262,119,85,-97
18192,1512,0,2023-03-10T14:08:05.511105,6363691,1779,411,868,-984,-613,-262,119,85,-97
18193,1513,0,2023-03-10T14:08:05.515792,6363695,1779,411,868,-984,-613,-262,119,85,-97
18194,1514,0,2023-03-10T14:08:05.520284,6363700,1779,411,868,-984,-613,-262,119,85,-97
18195,1515,0,2023-03-10T14:08:05.524725,6363704,1778,405,874,-1036,-614,-286,119,85,-97
18196,1516,0,2023-03-10T14:08:05.530124,6363709,1778,405,874,-1036,-614,-286,119,85,-97
18197,1517,0,2023-03-10T14:08:05.534794,6363714,1778,405,874,-1036,-614,-286,119,85,-97
18198,1518,0,2023-03-10T14:08:05.539354,6363718,1778,405,874,-1036,-614,-286,119,85,-97
18199,1519,0,2023-03-10T14:08:05.543780,6363723,1799,418,874,-1011,-651,-289,115,99,-101
18200,1520,0,2023-03-10T14:08:05.548562,6363727,1799,418,874,-1011,-651,-289,115,99,-101
18201,1521,0,2023-03-10T14:08:05.553171,6363732,1799,418,874,-1011,-651,-289,115,99,-101
18202,1522,0,2023-03-10T14:08:05.557994,6363738,1799,418,874,-1011,-651,-289,115,99,-101
18203,1523,0,2023-03-10T14:08:05.562828,6363742,1784,410,872,-998,-613,-267,115,99,-101
18204,1524,0,2023-03-10T14:08:05.568247,6363748,1784,410,872,-998,-613,-267,115,99,-101
18205,1525,0,2023-03-10T14:08:05.572898,6363752,1784,410,872,-998,-613,-267,115,99,-101
18206,1526,0,2023-03-10T14:08:05.577781,6363757,1784,410,872,-998,-613,-267,115,99,-101
18207,1527,0,2023-03-10T14:08:05.582162,6363761,1802,426,862,-1011,-632,-300,115,99,-101
18208,1528,0,2023-03-10T14:08:05.587834,6363767,1802,426,862,-1011,-632,-300,115,99,-101
18209,1529,0,2023-03-10T14:08:05.592258,6363771,1802,426,862,-1011,-632,-300,115,99,-101
18210,1530,0,2023-03-10T14:08:05.596697,6363776,1802,426,862,-1011,-632,-300,115,99,-101
18211,1531,0,2023-03-10T14:08:05.601125,6363781,1802,426,862,-1011,-632,-300,115,99,-101
18212,1532,0,2023-03-10T14:08:05.606796,6363786,1776,408,877,-983,-608,-237,115,99,-101
18213,1533,0,2023-03-10T14:08:05.611647,6363791,1776,408,877,-983,-608,-237,115,99,-101
18214,1534,0,2023-03-10T14:08:05.616255,6363795,1776,408,877,-983,-608,-237,115,99,-101
18215,1535,0,2023-03-10T14:08:05.620515,6363800,1776,408,877,-983,-608,-237,115,99,-101
18216,1536,0,2023-03-10T14:08:05.624974,6363804,1785,417,872,-989,-629,-281,115,99,-101
18217,1537,0,2023-03-10T14:08:05.629825,6363809,1785,417,872,-989,-629,-281,115,99,-101
18218,1538,0,2023-03-10T14:08:05.634187,6363813,1785,417,872,-989,-629,-281,115,99,-101
18219,1539,0,2023-03-10T14:08:05.638881,6363817,1785,417,872,-989,-629,-281,115,99,-101
18220,1540,0,2023-03-10T14:08:05.643390,6363823,1807,421,871,-1030,-643,-299,115,99,-101
18221,1541,0,2023-03-10T14:08:05.648609,6363828,1807,421,871,-1030,-643,-299,115,99,-101
18222,1542,0,2023-03-10T14:08:05.653163,6363833,1807,421,871,-1030,-643,-299,115,99,-101
18223,1543,0,2023-03-10T14:08:05.658092,6363837,1807,421,871,-1030,-643,-299,115,99,-101
18224,1544,0,2023-03-10T14:08:05.662548,6363842,1787,408,854,-998,-638,-263,115,99,-101
18225,1545,0,2023-03-10T14:08:05.668236,6363847,1787,408,854,-998,-638,-263,115,99,-101
18226,1546,0,2023-03-10T14:08:05.672721,6363852,1787,408,854,-998,-638,-263,115,99,-101
18227,1547,0,2023-03-10T14:08:05.677431,6363856,1787,408,854,-998,-638,-263,115,99,-101
18228,1548,0,2023-03-10T14:08:05.681752,6363862,1787,408,854,-998,-638,-263,115,99,-101
18229,1549,0,2023-03-10T14:08:05.686376,6363866,1787,408,854,-998,-638,-263,115,99,-101
18230,1550,0,2023-03-10T14:08:05.690849,6363870,1787,408,854,-998,-638,-263,115,99,-101
18231,1551,0,2023-03-10T14:08:05.695312,6363875,1787,408,854,-998,-638,-263,115,99,-101
18232,1552,0,2023-03-10T14:08:05.699692,6363879,1787,408,854,-998,-638,-263,115,99,-101
18233,1553,0,2023-03-10T14:08:05.704073,6363883,1802,427,867,-1000,-623,-282,115,99,-101
18234,1554,0,2023-03-10T14:08:05.709392,6363889,1802,427,867,-1000,-623,-282,115,99,-101
18235,1555,0,2023-03-10T14:08:05.714124,6363893,1802,427,867,-1000,-623,-282,115,99,-101
18236,1556,0,2023-03-10T14:08:05.718625,6363897,1802,427,867,-1000,-623,-282,115,99,-101
18237,1557,0,2023-03-10T14:08:05.723056,6363902,1795,421,872,-963,-638,-254,115,99,-101
18238,1558,0,2023-03-10T14:08:05.728545,6363908,1795,421,872,-963,-638,-254,115,99,-101
18239,1559,0,2023-03-10T14:08:05.733216,6363913,1795,421,872,-963,-638,-254,115,99,-101
18240,1560,0,2023-03-10T14:08:05.738150,6363917,1795,421,872,-963,-638,-254,115,99,-101
18241,1561,0,2023-03-10T14:08:05.742584,6363922,1787,418,861,-1012,-639,-275,115,99,-101
18242,1562,0,2023-03-10T14:08:05.747807,6363927,1787,418,861,-1012,-639,-275,115,99,-101
18243,1563,0,2023-03-10T14:08:05.752189,6363931,1787,418,861,-1012,-639,-275,115,99,-101
18244,1564,0,2023-03-10T14:08:05.757470,6363936,1787,418,861,-1012,-639,-275,115,99,-101
18245,1565,0,2023-03-10T14:08:05.761964,6363941,1787,418,861,-1012,-639,-275,115,99,-101
18246,1566,0,2023-03-10T14:08:05.766404,6363945,1782,413,863,-1028,-620,-282,115,99,-101
18247,1567,0,2023-03-10T14:08:05.771257,6363951,1782,413,863,-1028,-620,-282,115,99,-101
18248,1568,0,2023-03-10T14:08:05.776025,6363956,1782,413,863,-1028,-620,-282,115,99,-101
18249,1569,0,2023-03-10T14:08:05.780543,6363960,1782,413,863,-1028,-620,-282,115,99,-101
18250,1570,0,2023-03-10T14:08:05.785004,6363964,1797,413,864,-992,-667,-270,115,99,-101
18251,1571,0,2023-03-10T14:08:05.790549,6363970,1797,413,864,-992,-667,-270,115,99,-101
18252,1572,0,2023-03-10T14:08:05.795137,6363974,1797,413,864,-992,-667,-270,115,99,-101
18253,1573,0,2023-03-10T14:08:05.799536,6363979,1797,413,864,-992,-667,-270,115,99,-101
18254,1574,0,2023-03-10T14:08:05.804081,6363983,1788,413,864,-1007,-611,-286,117,89,-97
18255,1575,0,2023-03-10T14:08:05.809502,6363988,1788,413,864,-1007,-611,-286,117,89,-97
18256,1576,0,2023-03-10T14:08:05.813603,6363993,1788,413,864,-1007,-611,-286,117,89,-97
18257,1577,0,2023-03-10T14:08:05.818080,6363997,1788,413,864,-1007,-611,-286,117,89,-97
18258,1578,0,2023-03-10T14:08:05.822570,6364002,1796,424,866,-994,-645,-272,117,89,-97
18259,1579,0,2023-03-10T14:08:05.827756,6364007,1796,424,866,-994,-645,-272,117,89,-97
18260,1580,0,2023-03-10T14:08:05.832343,6364012,1796,424,866,-994,-645,-272,117,89,-97
18261,1581,0,2023-03-10T14:08:05.836808,6364016,1796,424,866,-994,-645,-272,117,89,-97
18262,1582,0,2023-03-10T14:08:05.841144,6364020,1796,424,866,-994,-645,-272,117,89,-97
18263,1583,0,2023-03-10T14:08:05.845978,6364025,1786,413,879,-986,-606,-263,117,89,-97
18264,1584,0,2023-03-10T14:08:05.850993,6364030,1786,413,879,-986,-606,-263,117,89,-97
18265,1585,0,2023-03-10T14:08:05.855477,6364035,1786,413,879,-986,-606,-263,117,89,-97
18266,1586,0,2023-03-10T14:08:05.859724,6364039,1786,413,879,-986,-606,-263,117,89,-97
18267,1587,0,2023-03-10T14:08:05.864086,6364043,1789,413,865,-1017,-644,-288,117,89,-97
18268,1588,0,2023-03-10T14:08:05.869586,6364049,1789,413,865,-1017,-644,-288,117,89,-97
18269,1589,0,2023-03-10T14:08:05.874333,6364054,1789,413,865,-1017,-644,-288,117,89,-97
18270,1590,0,2023-03-10T14:08:05.878848,6364058,1789,413,865,-1017,-644,-288,117,89,-97
18271,1591,0,2023-03-10T14:08:05.883144,6364062,1805,423,863,-1015,-618,-288,117,89,-97
18272,1592,0,2023-03-10T14:08:05.888456,6364067,1805,423,863,-1015,-618,-288,117,89,-97
18273,1593,0,2023-03-10T14:08:05.893025,6364072,1805,423,863,-1015,-618,-288,117,89,-97
18274,1594,0,2023-03-10T14:08:05.897540,6364077,1805,423,863,-1015,-618,-288,117,89,-97
18275,1595,0,2023-03-10T14:08:05.902109,6364082,1805,423,863,-1015,-618,-288,117,89,-97
18276,1596,0,2023-03-10T14:08:05.907062,6364086,1792,416,860,-995,-654,-266,117,89,-97
18277,1597,0,2023-03-10T14:08:05.912112,6364092,1792,416,860,-995,-654,-266,117,89,-97
18278,1598,0,2023-03-10T14:08:05.916641,6364096,1792,416,860,-995,-654,-266,117,89,-97
18279,1599,0,2023-03-10T14:08:05.921082,6364100,1792,416,860,-995,-654,-266,117,89,-97
18280,1600,0,2023-03-10T14:08:05.926065,6364105,1797,415,858,-1016,-612,-293,114,104,-94
18281,1601,0,2023-03-10T14:08:05.931151,6364110,1797,415,858,-1016,-612,-293,114,104,-94
18282,1602,0,2023-03-10T14:08:05.935698,6364115,1797,415,858,-1016,-612,-293,114,104,-94
18283,1603,0,2023-03-10T14:08:05.940166,6364120,1797,415,858,-1016,-612,-293,114,104,-94
18284,1604,0,2023-03-10T14:08:05.944520,6364124,1785,418,865,-996,-620,-254,114,104,-94
18285,1605,0,2023-03-10T14:08:05.949461,6364129,1785,418,865,-996,-620,-254,114,104,-94
18286,1606,0,2023-03-10T14:08:05.953928,6364133,1785,418,865,-996,-620,-254,114,104,-94
18287,1607,0,2023-03-10T14:08:05.958202,6364137,1785,418,865,-996,-620,-254,114,104,-94
18288,1608,0,2023-03-10T14:08:05.962915,6364142,1785,418,865,-996,-620,-254,114,104,-94
18289,1609,0,2023-03-10T14:08:05.967908,6364147,1811,425,873,-993,-635,-285,114,104,-94
18290,1610,0,2023-03-10T14:08:05.973157,6364152,1811,425,873,-993,-635,-285,114,104,-94
18291,1611,0,2023-03-10T14:08:05.977719,6364157,1811,425,873,-993,-635,-285,114,104,-94
18292,1612,0,2023-03-10T14:08:05.982263,6364162,1811,425,873,-993,-635,-285,114,104,-94
18293,1613,0,2023-03-10T14:08:05.987592,6364167,1789,417,852,-1026,-637,-274,114,104,-94
18294,1614,0,2023-03-10T14:08:05.992270,6364172,1789,417,852,-1026,-637,-274,114,104,-94
18295,1615,0,2023-03-10T14:08:05.996935,6364176,1789,417,852,-1026,-637,-274,114,104,-94
18296,1616,0,2023-03-10T14:08:06.001230,6364181,1789,417,852,-1026,-637,-274,114,104,-94
18297,1617,0,2023-03-10T14:08:06.006092,6364185,1802,422,864,-1017,-632,-282,114,104,-94
18298,1618,0,2023-03-10T14:08:06.011004,6364190,1802,422,864,-1017,-632,-282,114,104,-94
18299,1619,0,2023-03-10T14:08:06.015300,6364194,1802,422,864,-1017,-632,-282,114,104,-94
18300,1620,0,2023-03-10T14:08:06.019790,6364198,1802,422,864,-1017,-632,-282,114,104,-94
18301,1621,0,2023-03-10T14:08:06.024269,6364204,1786,413,853,-1005,-643,-262,114,104,-94
18302,1622,0,2023-03-10T14:08:06.029594,6364209,1786,413,853,-1005,-643,-262,114,104,-94
18303,1623,0,2023-03-10T14:08:06.034708,6364214,1786,413,853,-1005,-643,-262,114,104,-94
18304,1624,0,2023-03-10T14:08:06.039262,6364219,1786,413,853,-1005,-643,-262,114,104,-94
18305,1625,0,2023-03-10T14:08:06.043728,6364223,1817,424,861,-1012,-621,-283,114,104,-94
18306,1626,0,2023-03-10T14:08:06.048809,6364228,1817,424,861,-1012,-621,-283,114,104,-94
18307,1627,0,2023-03-10T14:08:06.053552,6364232,1817,424,861,-1012,-621,-283,114,104,-94
18308,1628,0,2023-03-10T14:08:06.057991,6364237,1817,424,861,-1012,-621,-283,114,104,-94
18309,1629,0,2023-03-10T14:08:06.062358,6364241,1817,424,861,-1012,-621,-283,114,104,-94
18310,1630,0,2023-03-10T14:08:06.067144,6364247,1790,415,856,-1000,-633,-269,119,91,-93
18311,1631,0,2023-03-10T14:08:06.072048,6364252,1790,415,856,-1000,-633,-269,119,91,-93
18312,1632,0,2023-03-10T14:08:06.076697,6364256,1790,415,856,-1000,-633,-269,119,91,-93
18313,1633,0,2023-03-10T14:08:06.081355,6364261,1790,415,856,-1000,-633,-269,119,91,-93
18314,1634,0,2023-03-10T14:08:06.086447,6364266,1788,417,869,-1017,-604,-281,119,91,-93
18315,1635,0,2023-03-10T14:08:06.091716,6364271,1788,417,869,-1017,-604,-281,119,91,-93
18316,1636,0,2023-03-10T14:08:06.096197,6364275,1788,417,869,-1017,-604,-281,119,91,-93
18317,1637,0,2023-03-10T14:08:06.100710,6364280,1788,417,869,-1017,-604,-281,119,91,-93
18318,1638,0,2023-03-10T14:08:06.105602,6364284,1801,417,862,-1001,-668,-274,119,91,-93
18319,1639,0,2023-03-10T14:08:06.110399,6364290,1801,417,862,-1001,-668,-274,119,91,-93
18320,1640,0,2023-03-10T14:08:06.114647,6364294,1801,417,862,-1001,-668,-274,119,91,-93
18321,1641,0,2023-03-10T14:08:06.119201,6364299,1801,417,862,-1001,-668,-274,119,91,-93
18322,1642,0,2023-03-10T14:08:06.123772,6364303,1789,416,863,-1009,-618,-274,119,91,-93
18323,1643,0,2023-03-10T14:08:06.129437,6364308,1789,416,863,-1009,-618,-274,119,91,-93
18324,1644,0,2023-03-10T14:08:06.133889,6364313,1789,416,863,-1009,-618,-274,119,91,-93
18325,1645,0,2023-03-10T14:08:06.138276,6364317,1789,416,863,-1009,-618,-274,119,91,-93
18326,1646,0,2023-03-10T14:08:06.143054,6364322,1789,416,863,-1009,-618,-274,119,91,-93
18327,1647,0,2023-03-10T14:08:06.147966,6364327,1803,414,854,-991,-639,-266,119,91,-93
18328,1648,0,2023-03-10T14:08:06.152290,6364332,1803,414,854,-991,-639,-266,119,91,-93
18329,1649,0,2023-03-10T14:08:06.156703,6364336,1803,414,854,-991,-639,-266,119,91,-93
18330,1650,0,2023-03-10T14:08:06.161112,6364341,1803,414,854,-991,-639,-266,119,91,-93
18331,1651,0,2023-03-10T14:08:06.166003,6364345,1789,412,867,-973,-614,-250,119,91,-93
18332,1652,0,2023-03-10T14:08:06.171050,6364350,1789,412,867,-973,-614,-250,119,91,-93
18333,1653,0,2023-03-10T14:08:06.175596,6364355,1789,412,867,-973,-614,-250,119,91,-93
18334,1654,0,2023-03-10T14:08:06.180276,6364359,1789,412,867,-973,-614,-250,119,91,-93
18335,1655,0,2023-03-10T14:08:06.184930,6364364,1792,414,860,-1013,-662,-280,128,102,-92
18336,1656,0,2023-03-10T14:08:06.190369,6364369,1792,414,860,-1013,-662,-280,128,102,-92
18337,1657,0,2023-03-10T14:08:06.194801,6364375,1792,414,860,-1013,-662,-280,128,102,-92
18338,1658,0,2023-03-10T14:08:06.199308,6364379,1792,414,860,-1013,-662,-280,128,102,-92
18339,1659,0,2023-03-10T14:08:06.204054,6364383,1804,419,859,-1004,-615,-280,128,102,-92
18340,1660,0,2023-03-10T14:08:06.209159,6364388,1804,419,859,-1004,-615,-280,128,102,-92
18341,1661,0,2023-03-10T14:08:06.213646,6364393,1804,419,859,-1004,-615,-280,128,102,-92
18342,1662,0,2023-03-10T14:08:06.218213,6364397,1804,419,859,-1004,-615,-280,128,102,-92
18343,1663,0,2023-03-10T14:08:06.222838,6364402,1804,419,859,-1004,-615,-280,128,102,-92
18344,1664,0,2023-03-10T14:08:06.227289,6364406,1796,415,856,-1000,-639,-275,128,102,-92
18345,1665,0,2023-03-10T14:08:06.232426,6364411,1796,415,856,-1000,-639,-275,128,102,-92
18346,1666,0,2023-03-10T14:08:06.236998,6364417,1796,415,856,-1000,-639,-275,128,102,-92
18347,1667,0,2023-03-10T14:08:06.241298,6364421,1796,415,856,-1000,-639,-275,128,102,-92
18348,1668,0,2023-03-10T14:08:06.246092,6364426,1789,414,855,-1016,-624,-288,128,102,-92
18349,1669,0,2023-03-10T14:08:06.251035,6364430,1789,414,855,-1016,-624,-288,128,102,-92
18350,1670,0,2023-03-10T14:08:06.256275,6364436,1789,414,855,-1016,-624,-288,128,102,-92
18351,1671,0,2023-03-10T14:08:06.260706,6364440,1789,414,855,-1016,-624,-288,128,102,-92
18352,1672,0,2023-03-10T14:08:06.265034,6364444,1792,411,863,-996,-626,-261,128,102,-92
18353,1673,0,2023-03-10T14:08:06.270273,6364449,1792,411,863,-996,-626,-261,128,102,-92
18354,1674,0,2023-03-10T14:08:06.274530,6364453,1792,411,863,-996,-626,-261,128,102,-92
18355,1675,0,2023-03-10T14:08:06.278940,6364459,1792,411,863,-996,-626,-261,128,102,-92
18356,1676,0,2023-03-10T14:08:06.283400,6364463,1815,427,871,-990,-644,-291,128,102,-92
18357,1677,0,2023-03-10T14:08:06.288870,6364468,1815,427,871,-990,-644,-291,128,102,-92
18358,1678,0,2023-03-10T14:08:06.293374,6364473,1815,427,871,-990,-644,-291,128,102,-92
18359,1679,0,2023-03-10T14:08:06.298267,6364477,1815,427,871,-990,-644,-291,128,102,-92
18360,1680,0,2023-03-10T14:08:06.303332,6364482,1790,411,836,-1022,-631,-271,128,102,-92
18361,1681,0,2023-03-10T14:08:06.308782,6364488,1790,411,836,-1022,-631,-271,128,102,-92
18362,1682,0,2023-03-10T14:08:06.313380,6364492,1790,411,836,-1022,-631,-271,128,102,-92
18363,1683,0,2023-03-10T14:08:06.318212,6364497,1790,411,836,-1022,-631,-271,128,102,-92
18364,1684,0,2023-03-10T14:08:06.323043,6364503,1790,411,836,-1022,-631,-271,128,102,-92
18365,1685,0,2023-03-10T14:08:06.328162,6364508,1812,420,866,-995,-640,-296,121,95,-87
18366,1686,0,2023-03-10T14:08:06.333139,6364513,1812,420,866,-995,-640,-296,121,95,-87
18367,1687,0,2023-03-10T14:08:06.338309,6364518,1812,420,866,-995,-640,-296,121,95,-87
18368,1688,0,2023-03-10T14:08:06.342748,6364522,1812,420,866,-995,-640,-296,121,95,-87
18369,1689,0,2023-03-10T14:08:06.347621,6364527,1774,409,845,-1004,-681,-271,121,95,-87
18370,1690,0,2023-03-10T14:08:06.352887,6364532,1774,409,845,-1004,-681,-271,121,95,-87
18371,1691,0,2023-03-10T14:08:06.357607,6364536,1774,409,845,-1004,-681,-271,121,95,-87
18372,1692,0,2023-03-10T14:08:06.361975,6364541,1774,409,845,-1004,-681,-271,121,95,-87
18373,1693,0,2023-03-10T14:08:06.366629,6364546,1813,421,868,-1012,-588,-295,121,95,-87
18374,1694,0,2023-03-10T14:08:06.371038,6364551,1813,421,868,-1012,-588,-295,121,95,-87
18375,1695,0,2023-03-10T14:08:06.375685,6364555,1813,421,868,-1012,-588,-295,121,95,-87
18376,1696,0,2023-03-10T14:08:06.380319,6364560,1813,421,868,-1012,-588,-295,121,95,-87
18377,1697,0,2023-03-10T14:08:06.384950,6364564,1791,409,865,-1017,-601,-286,121,95,-87
18378,1698,0,2023-03-10T14:08:06.390386,6364570,1791,409,865,-1017,-601,-286,121,95,-87
18379,1699,0,2023-03-10T14:08:06.394727,6364574,1791,409,865,-1017,-601,-286,121,95,-87
18380,1700,0,2023-03-10T14:08:06.399258,6364578,1791,409,865,-1017,-601,-286,121,95,-87
18381,1701,0,2023-03-10T14:08:06.403783,6364583,1783,412,852,-1006,-693,-270,121,95,-87
18382,1702,0,2023-03-10T14:08:06.409151,6364589,1783,412,852,-1006,-693,-270,121,95,-87
18383,1703,0,2023-03-10T14:08:06.414108,6364593,1783,412,852,-1006,-693,-270,121,95,-87
18384,1704,0,2023-03-10T14:08:06.418633,6364598,1783,412,852,-1006,-693,-270,121,95,-87
18385,1705,0,2023-03-10T14:08:06.423221,6364603,1783,412,852,-1006,-693,-270,121,95,-87
18386,1706,0,2023-03-10T14:08:06.428001,6364607,1820,425,869,-996,-615,-294,121,95,-87
18387,1707,0,2023-03-10T14:08:06.432549,6364611,1820,425,869,-996,-615,-294,121,95,-87
18388,1708,0,2023-03-10T14:08:06.436721,6364616,1820,425,869,-996,-615,-294,121,95,-87
18389,1709,0,2023-03-10T14:08:06.441161,6364620,1820,425,869,-996,-615,-294,121,95,-87
18390,1710,0,2023-03-10T14:08:06.445542,6364624,1787,411,852,-1004,-611,-267,119,95,-89
18391,1711,0,2023-03-10T14:08:06.450677,6364630,1787,411,852,-1004,-611,-267,119,95,-89
18392,1712,0,2023-03-10T14:08:06.455085,6364635,1787,411,852,-1004,-611,-267,119,95,-89
18393,1713,0,2023-03-10T14:08:06.459473,6364639,1787,411,852,-1004,-611,-267,119,95,-89
18394,1714,0,2023-03-10T14:08:06.463996,6364643,1804,414,856,-1004,-618,-282,119,95,-89
18395,1715,0,2023-03-10T14:08:06.469576,6364649,1804,414,856,-1004,-618,-282,119,95,-89
18396,1716,0,2023-03-10T14:08:06.474034,6364653,1804,414,856,-1004,-618,-282,119,95,-89
18397,1717,0,2023-03-10T14:08:06.478639,6364657,1804,414,856,-1004,-618,-282,119,95,-89
18398,1718,0,2023-03-10T14:08:06.483188,6364662,1804,414,856,-1004,-618,-282,119,95,-89
18399,1719,0,2023-03-10T14:08:06.488394,6364667,1790,414,854,-1006,-647,-269,119,95,-89
18400,1720,0,2023-03-10T14:08:06.493436,6364673,1790,414,854,-1006,-647,-269,119,95,-89
18401,1721,0,2023-03-10T14:08:06.498112,6364677,1790,414,854,-1006,-647,-269,119,95,-89
18402,1722,0,2023-03-10T14:08:06.502249,6364682,1790,414,854,-1006,-647,-269,119,95,-89
18403,1723,0,2023-03-10T14:08:06.507318,6364687,1800,419,862,-1017,-607,-295,119,95,-89
18404,1724,0,2023-03-10T14:08:06.511937,6364691,1800,419,862,-1017,-607,-295,119,95,-89
18405,1725,0,2023-03-10T14:08:06.516990,6364696,1800,419,862,-1017,-607,-295,119,95,-89
18406,1726,0,2023-03-10T14:08:06.521675,6364701,1800,419,862,-1017,-607,-295,119,95,-89
18407,1727,0,2023-03-10T14:08:06.526707,6364706,1787,414,850,-989,-699,-255,119,95,-89
18408,1728,0,2023-03-10T14:08:06.532108,6364711,1787,414,850,-989,-699,-255,119,95,-89
18409,1729,0,2023-03-10T14:08:06.536792,6364717,1787,414,850,-989,-699,-255,119,95,-89
18410,1730,0,2023-03-10T14:08:06.541140,6364721,1787,414,850,-989,-699,-255,119,95,-89
18411,1731,0,2023-03-10T14:08:06.546061,6364726,1809,419,866,-995,-616,-272,119,95,-89
18412,1732,0,2023-03-10T14:08:06.551036,6364730,1809,419,866,-995,-616,-272,119,95,-89
18413,1733,0,2023-03-10T14:08:06.555429,6364735,1809,419,866,-995,-616,-272,119,95,-89
18414,1734,0,2023-03-10T14:08:06.559772,6364739,1809,419,866,-995,-616,-272,119,95,-89
18415,1735,0,2023-03-10T14:08:06.564260,6364743,1783,410,854,-1036,-590,-276,123,93,-91
18416,1736,0,2023-03-10T14:08:06.569196,6364748,1783,410,854,-1036,-590,-276,123,93,-91
18417,1737,0,2023-03-10T14:08:06.573860,6364753,1783,410,854,-1036,-590,-276,123,93,-91
18418,1738,0,2023-03-10T14:08:06.578279,6364758,1783,410,854,-1036,-590,-276,123,93,-91
18419,1739,0,2023-03-10T14:08:06.582796,6364763,1783,410,854,-1036,-590,-276,123,93,-91
18420,1740,0,2023-03-10T14:08:06.588111,6364768,1820,419,856,-1011,-687,-294,123,93,-91
18421,1741,0,2023-03-10T14:08:06.593208,6364773,1820,419,856,-1011,-687,-294,123,93,-91
18422,1742,0,2023-03-10T14:08:06.598254,6364778,1820,419,856,-1011,-687,-294,123,93,-91
18423,1743,0,2023-03-10T14:08:06.602578,6364782,1820,419,856,-1011,-687,-294,123,93,-91
18424,1744,0,2023-03-10T14:08:06.607393,6364787,1799,413,852,-1008,-642,-275,123,93,-91
18425,1745,0,2023-03-10T14:08:06.612583,6364791,1799,413,852,-1008,-642,-275,123,93,-91
18426,1746,0,2023-03-10T14:08:06.617406,6364796,1799,413,852,-1008,-642,-275,123,93,-91
18427,1747,0,2023-03-10T14:08:06.622234,6364802,1799,413,852,-1008,-642,-275,123,93,-91
18428,1748,0,2023-03-10T14:08:06.627390,6364807,1789,416,849,-1013,-581,-276,123,93,-91
18429,1749,0,2023-03-10T14:08:06.632184,6364812,1789,416,849,-1013,-581,-276,123,93,-91
18430,1750,0,2023-03-10T14:08:06.637054,6364816,1789,416,849,-1013,-581,-276,123,93,-91
18431,1751,0,2023-03-10T14:08:06.641439,6364821,1789,416,849,-1013,-581,-276,123,93,-91
18432,1752,0,2023-03-10T14:08:06.646597,6364826,1815,422,871,-998,-603,-283,123,93,-91
18433,1753,0,2023-03-10T14:08:06.651384,6364831,1815,422,871,-998,-603,-283,123,93,-91
18434,1754,0,2023-03-10T14:08:06.655906,6364835,1815,422,871,-998,-603,-283,123,93,-91
18435,1755,0,2023-03-10T14:08:06.661043,6364839,1815,422,871,-998,-603,-283,123,93,-91
18436,1756,0,2023-03-10T14:08:06.665633,6364845,1783,413,845,-1018,-640,-263,123,93,-91
18437,1757,0,2023-03-10T14:08:06.670975,6364851,1783,413,845,-1018,-640,-263,123,93,-91
18438,1758,0,2023-03-10T14:08:06.675268,6364855,1783,413,845,-1018,-640,-263,123,93,-91
18439,1759,0,2023-03-10T14:08:06.679833,6364859,1783,413,845,-1018,-640,-263,123,93,-91
18440,1760,0,2023-03-10T14:08:06.684230,6364864,1826,417,858,-1007,-634,-292,123,93,-91
18441,1761,0,2023-03-10T14:08:06.689703,6364869,1826,417,858,-1007,-634,-292,123,93,-91
18442,1762,0,2023-03-10T14:08:06.694764,6364874,1826,417,858,-1007,-634,-292,123,93,-91
18443,1763,0,2023-03-10T14:08:06.699199,6364878,1826,417,858,-1007,-634,-292,123,93,-91
18444,1764,0,2023-03-10T14:08:06.703672,6364883,1801,417,844,-999,-642,-274,123,93,-91
18445,1765,0,2023-03-10T14:08:06.708422,6364888,1801,417,844,-999,-642,-274,119,97,-95
18446,1766,0,2023-03-10T14:08:06.713095,6364893,1801,417,844,-999,-642,-274,119,97,-95
18447,1767,0,2023-03-10T14:08:06.717585,6364897,1801,417,844,-999,-642,-274,119,97,-95
18448,1768,0,2023-03-10T14:08:06.722317,6364901,1801,417,844,-999,-642,-274,119,97,-95
18449,1769,0,2023-03-10T14:08:06.727326,6364907,1782,406,860,-981,-615,-248,119,97,-95
18450,1770,0,2023-03-10T14:08:06.732427,6364912,1782,406,860,-981,-615,-248,119,97,-95
18451,1771,0,2023-03-10T14:08:06.737546,6364916,1782,406,860,-981,-615,-248,119,97,-95
18452,1772,0,2023-03-10T14:08:06.741967,6364921,1782,406,860,-981,-615,-248,119,97,-95
18453,1773,0,2023-03-10T14:08:06.746538,6364925,1810,420,865,-1004,-653,-295,119,97,-95
18454,1774,0,2023-03-10T14:08:06.751582,6364931,1810,420,865,-1004,-653,-295,119,97,-95
18455,1775,0,2023-03-10T14:08:06.756202,6364936,1810,420,865,-1004,-653,-295,119,97,-95
18456,1776,0,2023-03-10T14:08:06.760696,6364940,1810,420,865,-1004,-653,-295,119,97,-95
18457,1777,0,2023-03-10T14:08:06.765113,6364945,1797,409,851,-1028,-624,-277,119,97,-95
18458,1778,0,2023-03-10T14:08:06.770412,6364950,1797,409,851,-1028,-624,-277,119,97,-95
18459,1779,0,2023-03-10T14:08:06.774882,6364954,1797,409,851,-1028,-624,-277,119,97,-95
18460,1780,0,2023-03-10T14:08:06.779348,6364958,1797,409,851,-1028,-624,-277,119,97,-95
18461,1781,0,2023-03-10T14:08:06.783754,6364963,1797,409,851,-1028,-624,-277,119,97,-95
18462,1782,0,2023-03-10T14:08:06.789145,6364968,1808,419,852,-1005,-638,-292,119,97,-95
18463,1783,0,2023-03-10T14:08:06.794141,6364974,1808,419,852,-1005,-638,-292,119,97,-95
18464,1784,0,2023-03-10T14:08:06.798570,6364978,1808,419,852,-1005,-638,-292,119,97,-95
18465,1785,0,2023-03-10T14:08:06.803019,6364982,1808,419,852,-1005,-638,-292,119,97,-95
18466,1786,0,2023-03-10T14:08:06.808003,6364987,1793,411,856,-1015,-613,-268,119,97,-95
18467,1787,0,2023-03-10T14:08:06.812384,6364992,1793,411,856,-1015,-613,-268,119,97,-95
18468,1788,0,2023-03-10T14:08:06.817431,6364997,1793,411,856,-1015,-613,-268,119,97,-95
18469,1789,0,2023-03-10T14:08:06.821956,6365001,1793,411,856,-1015,-613,-268,119,97,-95
18470,1790,0,2023-03-10T14:08:06.826900,6365006,1800,417,857,-1000,-657,-283,132,92,-102
18471,1791,0,2023-03-10T14:08:06.831927,6365011,1800,417,857,-1000,-657,-283,132,92,-102
18472,1792,0,2023-03-10T14:08:06.836316,6365016,1800,417,857,-1000,-657,-283,132,92,-102
18473,1793,0,2023-03-10T14:08:06.840664,6365020,1800,417,857,-1000,-657,-283,132,92,-102
18474,1794,0,2023-03-10T14:08:06.845149,6365025,1810,420,857,-1014,-623,-276,132,92,-102
18475,1795,0,2023-03-10T14:08:06.850504,6365030,1810,420,857,-1014,-623,-276,132,92,-102
18476,1796,0,2023-03-10T14:08:06.854984,6365034,1810,420,857,-1014,-623,-276,132,92,-102
18477,1797,0,2023-03-10T14:08:06.859386,6365039,1810,420,857,-1014,-623,-276,132,92,-102
18478,1798,0,2023-03-10T14:08:06.864101,6365043,1813,422,857,-1016,-691,-286,132,92,-102
18479,1799,0,2023-03-10T14:08:06.869514,6365048,1813,422,857,-1016,-691,-286,132,92,-102
18480,1800,0,2023-03-10T14:08:06.874160,6365053,1813,422,857,-1016,-691,-286,132,92,-102
18481,1801,0,2023-03-10T14:08:06.878872,6365058,1813,422,857,-1016,-691,-286,132,92,-102
18482,1802,0,2023-03-10T14:08:06.883357,6365063,1813,422,857,-1016,-691,-286,132,92,-102
18483,1803,0,2023-03-10T14:08:06.888249,6365068,1800,416,844,-1009,-655,-265,132,92,-102
18484,1804,0,2023-03-10T14:08:06.893213,6365072,1800,416,844,-1009,-655,-265,132,92,-102
18485,1805,0,2023-03-10T14:08:06.897635,6365077,1800,416,844,-1009,-655,-265,132,92,-102
18486,1806,0,2023-03-10T14:08:06.902034,6365081,1800,416,844,-1009,-655,-265,132,92,-102
18487,1807,0,2023-03-10T14:08:06.906527,6365086,1794,414,844,-1011,-579,-275,132,92,-102
18488,1808,0,2023-03-10T14:08:06.911348,6365090,1794,414,844,-1011,-579,-275,132,92,-102
18489,1809,0,2023-03-10T14:08:06.915830,6365095,1794,414,844,-1011,-579,-275,132,92,-102
18490,1810,0,2023-03-10T14:08:06.920332,6365100,1794,414,844,-1011,-579,-275,132,92,-102
18491,1811,0,2023-03-10T14:08:06.924609,6365104,1825,421,855,-985,-618,-280,132,92,-102
18492,1812,0,2023-03-10T14:08:06.929872,6365110,1825,421,855,-985,-618,-280,132,92,-102
18493,1813,0,2023-03-10T14:08:06.934540,6365114,1825,421,855,-985,-618,-280,132,92,-102
18494,1814,0,2023-03-10T14:08:06.939151,6365118,1825,421,855,-985,-618,-280,132,92,-102
18495,1815,0,2023-03-10T14:08:06.943560,6365123,1825,421,855,-985,-618,-280,132,92,-102
18496,1816,0,2023-03-10T14:08:06.948589,6365128,1784,407,840,-1013,-633,-260,132,92,-102
18497,1817,0,2023-03-10T14:08:06.953650,6365133,1784,407,840,-1013,-633,-260,132,92,-102
18498,1818,0,2023-03-10T14:08:06.958176,6365137,1784,407,840,-1013,-633,-260,132,92,-102
18499,1819,0,2023-03-10T14:08:06.962756,6365143,1784,407,840,-1013,-633,-260,132,92,-102
18500,1820,0,2023-03-10T14:08:06.967851,6365147,1811,418,850,-1020,-605,-303,112,86,-102
18501,1821,0,2023-03-10T14:08:06.972800,6365152,1811,418,850,-1020,-605,-303,112,86,-102
18502,1822,0,2023-03-10T14:08:06.978074,6365157,1811,418,850,-1020,-605,-303,112,86,-102
18503,1823,0,2023-03-10T14:08:06.982510,6365162,1811,418,850,-1020,-605,-303,112,86,-102
18504,1824,0,2023-03-10T14:08:06.987590,6365167,1797,410,855,-997,-643,-271,112,86,-102
18505,1825,0,2023-03-10T14:08:06.992415,6365171,1797,410,855,-997,-643,-271,112,86,-102
18506,1826,0,2023-03-10T14:08:06.997196,6365176,1797,410,855,-997,-643,-271,112,86,-102
18507,1827,0,2023-03-10T14:08:07.001929,6365181,1797,410,855,-997,-643,-271,112,86,-102
18508,1828,0,2023-03-10T14:08:07.006693,6365187,1817,422,853,-1012,-626,-301,112,86,-102
18509,1829,0,2023-03-10T14:08:07.012000,6365191,1817,422,853,-1012,-626,-301,112,86,-102
18510,1830,0,2023-03-10T14:08:07.016770,6365196,1817,422,853,-1012,-626,-301,112,86,-102
18511,1831,0,2023-03-10T14:08:07.021556,6365201,1817,422,853,-1012,-626,-301,112,86,-102
18512,1832,0,2023-03-10T14:08:07.026475,6365206,1795,411,847,-1004,-634,-274,112,86,-102
18513,1833,0,2023-03-10T14:08:07.031621,6365211,1795,411,847,-1004,-634,-274,112,86,-102
18514,1834,0,2023-03-10T14:08:07.036143,6365215,1795,411,847,-1004,-634,-274,112,86,-102
18515,1835,0,2023-03-10T14:08:07.040654,6365220,1795,411,847,-1004,-634,-274,112,86,-102
18516,1836,0,2023-03-10T14:08:07.045178,6365224,1789,412,845,-1013,-613,-280,112,86,-102
18517,1837,0,2023-03-10T14:08:07.050422,6365230,1789,412,845,-1013,-613,-280,112,86,-102
18518,1838,0,2023-03-10T14:08:07.054766,6365235,1789,412,845,-1013,-613,-280,112,86,-102
18519,1839,0,2023-03-10T14:08:07.059369,6365239,1789,412,845,-1013,-613,-280,112,86,-102
18520,1840,0,2023-03-10T14:08:07.063663,6365243,1789,412,845,-1013,-613,-280,112,86,-102
18521,1841,0,2023-03-10T14:08:07.068381,6365248,1818,418,848,-1010,-658,-287,112,86,-102
18522,1842,0,2023-03-10T14:08:07.073340,6365252,1818,418,848,-1010,-658,-287,112,86,-102
18523,1843,0,2023-03-10T14:08:07.077669,6365257,1818,418,848,-1010,-658,-287,112,86,-102
18524,1844,0,2023-03-10T14:08:07.082270,6365261,1818,418,848,-1010,-658,-287,112,86,-102
18525,1845,0,2023-03-10T14:08:07.087400,6365266,1801,408,850,-1017,-624,-280,116,92,-106
18526,1846,0,2023-03-10T14:08:07.092178,6365272,1801,408,850,-1017,-624,-280,116,92,-106
18527,1847,0,2023-03-10T14:08:07.097125,6365277,1801,408,850,-1017,-624,-280,116,92,-106
18528,1848,0,2023-03-10T14:08:07.101789,6365281,1801,408,850,-1017,-624,-280,116,92,-106
18529,1849,0,2023-03-10T14:08:07.106483,6365286,1806,412,843,-1004,-622,-261,116,92,-106
18530,1850,0,2023-03-10T14:08:07.111314,6365291,1806,412,843,-1004,-622,-261,116,92,-106
18531,1851,0,2023-03-10T14:08:07.116255,6365296,1806,412,843,-1004,-622,-261,116,92,-106
18532,1852,0,2023-03-10T14:08:07.120791,6365300,1806,412,843,-1004,-622,-261,116,92,-106
18533,1853,0,2023-03-10T14:08:07.125136,6365304,1792,410,853,-962,-641,-248,116,92,-106
18534,1854,0,2023-03-10T14:08:07.130564,6365309,1792,410,853,-962,-641,-248,116,92,-106
18535,1855,0,2023-03-10T14:08:07.134920,6365315,1792,410,853,-962,-641,-248,116,92,-106
18536,1856,0,2023-03-10T14:08:07.139654,6365319,1792,410,853,-962,-641,-248,116,92,-106
18537,1857,0,2023-03-10T14:08:07.144084,6365324,1792,410,853,-962,-641,-248,116,92,-106
18538,1858,0,2023-03-10T14:08:07.148900,6365328,1807,418,845,-1018,-610,-282,116,92,-106
18539,1859,0,2023-03-10T14:08:07.153759,6365333,1807,418,845,-1018,-610,-282,116,92,-106
18540,1860,0,2023-03-10T14:08:07.158208,6365337,1807,418,845,-1018,-610,-282,116,92,-106
18541,1861,0,2023-03-10T14:08:07.162915,6365342,1807,418,845,-1018,-610,-282,116,92,-106
18542,1862,0,2023-03-10T14:08:07.168400,6365347,1806,419,842,-1012,-662,-288,116,92,-106
18543,1863,0,2023-03-10T14:08:07.172883,6365352,1806,419,842,-1012,-662,-288,116,92,-106
18544,1864,0,2023-03-10T14:08:07.177189,6365357,1806,419,842,-1012,-662,-288,116,92,-106
18545,1865,0,2023-03-10T14:08:07.181825,6365361,1806,419,842,-1012,-662,-288,116,92,-106
18546,1866,0,2023-03-10T14:08:07.186968,6365367,1812,408,853,-995,-620,-278,116,92,-106
18547,1867,0,2023-03-10T14:08:07.192003,6365371,1812,408,853,-995,-620,-278,116,92,-106
18548,1868,0,2023-03-10T14:08:07.197120,6365376,1812,408,853,-995,-620,-278,116,92,-106
18549,1869,0,2023-03-10T14:08:07.201804,6365381,1812,408,853,-995,-620,-278,116,92,-106
18550,1870,0,2023-03-10T14:08:07.206202,6365385,1791,410,836,-1008,-631,-293,116,92,-106
18551,1871,0,2023-03-10T14:08:07.211213,6365390,1791,410,836,-1008,-631,-293,116,92,-106
18552,1872,0,2023-03-10T14:08:07.215854,6365394,1791,410,836,-1008,-631,-293,116,92,-106
18553,1873,0,2023-03-10T14:08:07.220355,6365400,1791,410,836,-1008,-631,-293,116,92,-106
18554,1874,0,2023-03-10T14:08:07.224913,6365404,1807,417,870,-1002,-613,-263,120,96,-96
18555,1875,0,2023-03-10T14:08:07.230248,6365410,1807,417,870,-1002,-613,-263,120,96,-96
18556,1876,0,2023-03-10T14:08:07.234455,6365414,1807,417,870,-1002,-613,-263,120,96,-96
18557,1877,0,2023-03-10T14:08:07.239150,6365418,1807,417,870,-1002,-613,-263,120,96,-96
18558,1878,0,2023-03-10T14:08:07.243733,6365423,1807,417,870,-1002,-613,-263,120,96,-96
18559,1879,0,2023-03-10T14:08:07.248063,6365427,1791,413,850,-986,-705,-266,120,96,-96
18560,1880,0,2023-03-10T14:08:07.253094,6365432,1791,413,850,-986,-705,-266,120,96,-96
18561,1881,0,2023-03-10T14:08:07.257719,6365436,1791,413,850,-986,-705,-266,120,96,-96
18562,1882,0,2023-03-10T14:08:07.262285,6365442,1791,413,850,-986,-705,-266,120,96,-96
18563,1883,0,2023-03-10T14:08:07.267285,6365447,1818,418,844,-1024,-626,-294,120,96,-96
18564,1884,0,2023-03-10T14:08:07.271844,6365451,1818,418,844,-1024,-626,-294,120,96,-96
18565,1885,0,2023-03-10T14:08:07.276367,6365456,1818,418,844,-1024,-626,-294,120,96,-96
18566,1886,0,2023-03-10T14:08:07.281001,6365460,1818,418,844,-1024,-626,-294,120,96,-96
18567,1887,0,2023-03-10T14:08:07.285207,6365465,1796,412,845,-1009,-591,-273,120,96,-96
18568,1888,0,2023-03-10T14:08:07.290254,6365469,1796,412,845,-1009,-591,-273,120,96,-96
18569,1889,0,2023-03-10T14:08:07.294833,6365474,1796,412,845,-1009,-591,-273,120,96,-96
18570,1890,0,2023-03-10T14:08:07.299437,6365478,1796,412,845,-1009,-591,-273,120,96,-96
18571,1891,0,2023-03-10T14:08:07.303859,6365484,1796,412,845,-1009,-591,-273,120,96,-96
18572,1892,0,2023-03-10T14:08:07.308932,6365489,1818,414,853,-999,-636,-287,120,96,-96
18573,1893,0,2023-03-10T14:08:07.313980,6365494,1818,414,853,-999,-636,-287,120,96,-96
18574,1894,0,2023-03-10T14:08:07.318316,6365498,1818,414,853,-999,-636,-287,120,96,-96
18575,1895,0,2023-03-10T14:08:07.322893,6365502,1818,414,853,-999,-636,-287,120,96,-96
18576,1896,0,2023-03-10T14:08:07.328075,6365507,1806,416,842,-1025,-624,-281,120,96,-96
18577,1897,0,2023-03-10T14:08:07.333136,6365512,1806,416,842,-1025,-624,-281,120,96,-96
18578,1898,0,2023-03-10T14:08:07.337886,6365517,1806,416,842,-1025,-624,-281,120,96,-96
18579,1899,0,2023-03-10T14:08:07.342504,6365522,1806,416,842,-1025,-624,-281,120,96,-96
18580,1900,0,2023-03-10T14:08:07.347368,6365527,1810,415,856,-997,-643,-282,129,89,-105
18581,1901,0,2023-03-10T14:08:07.352583,6365532,1810,415,856,-997,-643,-282,129,89,-105
18582,1902,0,2023-03-10T14:08:07.357083,6365537,1810,415,856,-997,-643,-282,129,89,-105
18583,1903,0,2023-03-10T14:08:07.361566,6365541,1810,415,856,-997,-643,-282,129,89,-105
18584,1904,0,2023-03-10T14:08:07.366228,6365545,1799,411,847,-1015,-632,-282,129,89,-105
18585,1905,0,2023-03-10T14:08:07.371301,6365551,1799,411,847,-1015,-632,-282,129,89,-105
18586,1906,0,2023-03-10T14:08:07.375701,6365555,1799,411,847,-1015,-632,-282,129,89,-105
18587,1907,0,2023-03-10T14:08:07.380167,6365559,1799,411,847,-1015,-632,-282,129,89,-105
18588,1908,0,2023-03-10T14:08:07.384569,6365563,1799,411,847,-1015,-632,-282,129,89,-105
18589,1909,0,2023-03-10T14:08:07.388988,6365569,1802,411,848,-1006,-639,-281,129,89,-105
18590,1910,0,2023-03-10T14:08:07.393798,6365573,1802,411,848,-1006,-639,-281,129,89,-105
18591,1911,0,2023-03-10T14:08:07.398645,6365578,1802,411,848,-1006,-639,-281,129,89,-105
18592,1912,0,2023-03-10T14:08:07.403179,6365583,1802,411,848,-1006,-639,-281,129,89,-105
18593,1913,0,2023-03-10T14:08:07.408108,6365588,1827,417,846,-998,-643,-289,129,89,-105
18594,1914,0,2023-03-10T14:08:07.412909,6365592,1827,417,846,-998,-643,-289,129,89,-105
18595,1915,0,2023-03-10T14:08:07.417466,6365597,1827,417,846,-998,-643,-289,129,89,-105
18596,1916,0,2023-03-10T14:08:07.422099,6365601,1827,417,846,-998,-643,-289,129,89,-105
18597,1917,0,2023-03-10T14:08:07.427023,6365606,1798,405,832,-1007,-634,-270,129,89,-105
18598,1918,0,2023-03-10T14:08:07.432144,6365612,1798,405,832,-1007,-634,-270,129,89,-105
18599,1919,0,2023-03-10T14:08:07.436373,6365616,1798,405,832,-1007,-634,-270,129,89,-105
18600,1920,0,2023-03-10T14:08:07.440893,6365621,1798,405,832,-1007,-634,-270,129,89,-105
18601,1921,0,2023-03-10T14:08:07.445321,6365625,1814,421,850,-990,-592,-277,129,89,-105
18602,1922,0,2023-03-10T14:08:07.449875,6365629,1814,421,850,-990,-592,-277,129,89,-105
18603,1923,0,2023-03-10T14:08:07.454268,6365634,1814,421,850,-990,-592,-277,129,89,-105
18604,1924,0,2023-03-10T14:08:07.458729,6365638,1814,421,850,-990,-592,-277,129,89,-105
18605,1925,0,2023-03-10T14:08:07.463504,6365642,1814,421,850,-990,-592,-277,129,89,-105
18606,1926,0,2023-03-10T14:08:07.468278,6365647,1808,413,850,-964,-661,-248,124,92,-100
18607,1927,0,2023-03-10T14:08:07.473252,6365652,1808,413,850,-964,-661,-248,124,92,-100
18608,1928,0,2023-03-10T14:08:07.478378,6365658,1808,413,850,-964,-661,-248,124,92,-100
18609,1929,0,2023-03-10T14:08:07.483318,6365663,1808,413,850,-964,-661,-248,124,92,-100
18610,1930,0,2023-03-10T14:08:07.488156,6365667,1808,414,850,-1005,-612,-283,124,92,-100
18611,1931,0,2023-03-10T14:08:07.493436,6365673,1808,414,850,-1005,-612,-283,124,92,-100
18612,1932,0,2023-03-10T14:08:07.498215,6365678,1808,414,850,-1005,-612,-283,124,92,-100
18613,1933,0,2023-03-10T14:08:07.502620,6365682,1808,414,850,-1005,-612,-283,124,92,-100
18614,1934,0,2023-03-10T14:08:07.507797,6365687,1821,420,834,-1021,-639,-293,124,92,-100
18615,1935,0,2023-03-10T14:08:07.512668,6365692,1821,420,834,-1021,-639,-293,124,92,-100
18616,1936,0,2023-03-10T14:08:07.517949,6365698,1821,420,834,-1021,-639,-293,124,92,-100
18617,1937,0,2023-03-10T14:08:07.522407,6365702,1821,420,834,-1021,-639,-293,124,92,-100
18618,1938,0,2023-03-10T14:08:07.527016,6365707,1794,405,846,-1007,-624,-270,124,92,-100
18619,1939,0,2023-03-10T14:08:07.531963,6365711,1794,405,846,-1007,-624,-270,124,92,-100
18620,1940,0,2023-03-10T14:08:07.536260,6365716,1794,405,846,-1007,-624,-270,124,92,-100
18621,1941,0,2023-03-10T14:08:07.540747,6365720,1794,405,846,-1007,-624,-270,124,92,-100
18622,1942,0,2023-03-10T14:08:07.545551,6365725,1815,417,838,-1021,-634,-299,124,92,-100
18623,1943,0,2023-03-10T14:08:07.550122,6365729,1815,417,838,-1021,-634,-299,124,92,-100
18624,1944,0,2023-03-10T14:08:07.554653,6365734,1815,417,838,-1021,-634,-299,124,92,-100
18625,1945,0,2023-03-10T14:08:07.559145,6365739,1815,417,838,-1021,-634,-299,124,92,-100
18626,1946,0,2023-03-10T14:08:07.563531,6365743,1815,417,838,-1021,-634,-299,124,92,-100
18627,1947,0,2023-03-10T14:08:07.568462,6365748,1824,419,849,-991,-633,-269,124,92,-100
18628,1948,0,2023-03-10T14:08:07.573874,6365753,1824,419,849,-991,-633,-269,124,92,-100
18629,1949,0,2023-03-10T14:08:07.578163,6365758,1824,419,849,-991,-633,-269,124,92,-100
18630,1950,0,2023-03-10T14:08:07.582586,6365762,1824,419,849,-991,-633,-269,124,92,-100
18631,1951,0,2023-03-10T14:08:07.587433,6365767,1796,405,839,-991,-621,-259,124,92,-100
18632,1952,0,2023-03-10T14:08:07.592259,6365771,1796,405,839,-991,-621,-259,124,92,-100
18633,1953,0,2023-03-10T14:08:07.596735,6365776,1796,405,839,-991,-621,-259,124,92,-100
18634,1954,0,2023-03-10T14:08:07.601422,6365780,1796,405,839,-991,-621,-259,124,92,-100
18635,1955,0,2023-03-10T14:08:07.605749,6365786,1800,408,844,-1025,-620,-296,116,92,-100
18636,1956,0,2023-03-10T14:08:07.610760,6365790,1800,408,844,-1025,-620,-296,116,92,-100
18637,1957,0,2023-03-10T14:08:07.615353,6365795,1800,408,844,-1025,-620,-296,116,92,-100
18638,1958,0,2023-03-10T14:08:07.619982,6365799,1800,408,844,-1025,-620,-296,116,92,-100
18639,1959,0,2023-03-10T14:08:07.624246,6365804,1800,408,844,-1025,-620,-296,116,92,-100
18640,1960,0,2023-03-10T14:08:07.628793,6365808,1821,417,849,-1008,-644,-283,116,92,-100
18641,1961,0,2023-03-10T14:08:07.633980,6365813,1821,417,849,-1008,-644,-283,116,92,-100
18642,1962,0,2023-03-10T14:08:07.638461,6365817,1821,417,849,-1008,-644,-283,116,92,-100
18643,1963,0,2023-03-10T14:08:07.643052,6365822,1821,417,849,-1008,-644,-283,116,92,-100
18644,1964,0,2023-03-10T14:08:07.648030,6365828,1810,411,847,-999,-623,-283,116,92,-100
18645,1965,0,2023-03-10T14:08:07.653196,6365833,1810,411,847,-999,-623,-283,116,92,-100
18646,1966,0,2023-03-10T14:08:07.658258,6365838,1810,411,847,-999,-623,-283,116,92,-100
18647,1967,0,2023-03-10T14:08:07.662806,6365842,1810,411,847,-999,-623,-283,116,92,-100
18648,1968,0,2023-03-10T14:08:07.667913,6365847,1813,415,836,-1010,-618,-290,116,92,-100
18649,1969,0,2023-03-10T14:08:07.672894,6365852,1813,415,836,-1010,-618,-290,116,92,-100
18650,1970,0,2023-03-10T14:08:07.677268,6365856,1813,415,836,-1010,-618,-290,116,92,-100
18651,1971,0,2023-03-10T14:08:07.682031,6365861,1813,415,836,-1010,-618,-290,116,92,-100
18652,1972,0,2023-03-10T14:08:07.686758,6365867,1798,408,843,-983,-645,-252,116,92,-100
18653,1973,0,2023-03-10T14:08:07.691791,6365871,1798,408,843,-983,-645,-252,116,92,-100
18654,1974,0,2023-03-10T14:08:07.696399,6365876,1798,408,843,-983,-645,-252,116,92,-100
18655,1975,0,2023-03-10T14:08:07.700965,6365880,1798,408,843,-983,-645,-252,116,92,-100
18656,1976,0,2023-03-10T14:08:07.705378,6365885,1818,418,851,-1017,-600,-290,116,92,-100
18657,1977,0,2023-03-10T14:08:07.710387,6365890,1818,418,851,-1017,-600,-290,116,92,-100
18658,1978,0,2023-03-10T14:08:07.714944,6365894,1818,418,851,-1017,-600,-290,116,92,-100
18659,1979,0,2023-03-10T14:08:07.720274,6365899,1818,418,851,-1017,-600,-290,116,92,-100
18660,1980,0,2023-03-10T14:08:07.724868,6365904,1818,418,851,-1017,-600,-290,116,92,-100
18661,1981,0,2023-03-10T14:08:07.729957,6365910,1807,412,835,-1020,-660,-280,124,96,-96
18662,1982,0,2023-03-10T14:08:07.734979,6365915,1807,412,835,-1020,-660,-280,124,96,-96
18663,1983,0,2023-03-10T14:08:07.739475,6365919,1807,412,835,-1020,-660,-280,124,96,-96
18664,1984,0,2023-03-10T14:08:07.744052,6365924,1807,412,835,-1020,-660,-280,124,96,-96
18665,1985,0,2023-03-10T14:08:07.749517,6365929,1827,411,846,-1010,-625,-276,124,96,-96
18666,1986,0,2023-03-10T14:08:07.754679,6365934,1827,411,846,-1010,-625,-276,124,96,-96
18667,1987,0,2023-03-10T14:08:07.759127,6365938,1827,411,846,-1010,-625,-276,124,96,-96
18668,1988,0,2023-03-10T14:08:07.763707,6365943,1827,411,846,-1010,-625,-276,124,96,-96
18669,1989,0,2023-03-10T14:08:07.768486,6365948,1791,403,839,-1016,-620,-281,124,96,-96
18670,1990,0,2023-03-10T14:08:07.773773,6365953,1791,403,839,-1016,-620,-281,124,96,-96
18671,1991,0,2023-03-10T14:08:07.778184,6365958,1791,403,839,-1016,-620,-281,124,96,-96
18672,1992,0,2023-03-10T14:08:07.782277,6365962,1791,403,839,-1016,-620,-281,124,96,-96
18673,1993,0,2023-03-10T14:08:07.787056,6365967,1826,421,845,-1003,-623,-294,124,96,-96
18674,1994,0,2023-03-10T14:08:07.792087,6365971,1826,421,845,-1003,-623,-294,124,96,-96
18675,1995,0,2023-03-10T14:08:07.797257,6365976,1826,421,845,-1003,-623,-294,124,96,-96
18676,1996,0,2023-03-10T14:08:07.801616,6365981,1826,421,845,-1003,-623,-294,124,96,-96
18677,1997,0,2023-03-10T14:08:07.806445,6365985,1816,415,849,-970,-624,-266,124,96,-96
18678,1998,0,2023-03-10T14:08:07.811673,6365991,1816,415,849,-970,-624,-266,124,96,-96
18679,1999,0,2023-03-10T14:08:07.816297,6365996,1816,415,849,-970,-624,-266,124,96,-96
18680,2000,0,2023-03-10T14:08:07.821022,6366001,1816,415,849,-970,-624,-266,124,96,-96
18681,2001,0,2023-03-10T14:08:07.825819,6366005,1809,409,839,-1011,-624,-285,124,96,-96
18682,2002,0,2023-03-10T14:08:07.831068,6366011,1809,409,839,-1011,-624,-285,124,96,-96
18683,2003,0,2023-03-10T14:08:07.835565,6366015,1809,409,839,-1011,-624,-285,124,96,-96
18684,2004,0,2023-03-10T14:08:07.840186,6366019,1809,409,839,-1011,-624,-285,124,96,-96
18685,2005,0,2023-03-10T14:08:07.844833,6366024,1809,409,839,-1011,-624,-285,124,96,-96
18686,2006,0,2023-03-10T14:08:07.849936,6366029,1809,413,824,-1016,-648,-285,124,96,-96
18687,2007,0,2023-03-10T14:08:07.854147,6366033,1809,413,824,-1016,-648,-285,124,96,-96
18688,2008,0,2023-03-10T14:08:07.858649,6366038,1809,413,824,-1016,-648,-285,124,96,-96
18689,2009,0,2023-03-10T14:08:07.863617,6366043,1809,413,824,-1016,-648,-285,124,96,-96
18690,2010,0,2023-03-10T14:08:07.868598,6366048,1821,410,851,-991,-604,-274,119,93,-101
18691,2011,0,2023-03-10T14:08:07.873629,6366053,1821,410,851,-991,-604,-274,119,93,-101
18692,2012,0,2023-03-10T14:08:07.878156,6366058,1821,410,851,-991,-604,-274,119,93,-101
18693,2013,0,2023-03-10T14:08:07.882480,6366062,1821,410,851,-991,-604,-274,119,93,-101
18694,2014,0,2023-03-10T14:08:07.887862,6366067,1808,415,827,-1014,-657,-284,119,93,-101
18695,2015,0,2023-03-10T14:08:07.893119,6366072,1808,415,827,-1014,-657,-284,119,93,-101
18696,2016,0,2023-03-10T14:08:07.897669,6366077,1808,415,827,-1014,-657,-284,119,93,-101
18697,2017,0,2023-03-10T14:08:07.901984,6366082,1808,415,827,-1014,-657,-284,119,93,-101
18698,2018,0,2023-03-10T14:08:07.907105,6366087,1825,405,838,-993,-614,-274,119,93,-101
18699,2019,0,2023-03-10T14:08:07.911981,6366092,1825,405,838,-993,-614,-274,119,93,-101
18700,2020,0,2023-03-10T14:08:07.916448,6366096,1825,405,838,-993,-614,-274,119,93,-101
18701,2021,0,2023-03-10T14:08:07.920944,6366100,1825,405,838,-993,-614,-274,119,93,-101
18702,2022,0,2023-03-10T14:08:07.925264,6366105,1794,403,830,-1000,-623,-283,119,93,-101
18703,2023,0,2023-03-10T14:08:07.930434,6366110,1794,403,830,-1000,-623,-283,119,93,-101
18704,2024,0,2023-03-10T14:08:07.935014,6366114,1794,403,830,-1000,-623,-283,119,93,-101
18705,2025,0,2023-03-10T14:08:07.939693,6366119,1794,403,830,-1000,-623,-283,119,93,-101
18706,2026,0,2023-03-10T14:08:07.944273,6366124,1794,403,830,-1000,-623,-283,119,93,-101
18707,2027,0,2023-03-10T14:08:07.948876,6366128,1822,417,840,-1014,-632,-282,119,93,-101
18708,2028,0,2023-03-10T14:08:07.953999,6366134,1822,417,840,-1014,-632,-282,119,93,-101
18709,2029,0,2023-03-10T14:08:07.958402,6366138,1822,417,840,-1014,-632,-282,119,93,-101
18710,2030,0,2023-03-10T14:08:07.962913,6366142,1822,417,840,-1014,-632,-282,119,93,-101
18711,2031,0,2023-03-10T14:08:07.967709,6366147,1828,414,843,-992,-650,-283,119,93,-101
18712,2032,0,2023-03-10T14:08:07.972268,6366152,1828,414,843,-992,-650,-283,119,93,-101
18713,2033,0,2023-03-10T14:08:07.976692,6366156,1828,414,843,-992,-650,-283,119,93,-101
18714,2034,0,2023-03-10T14:08:07.981373,6366160,1828,414,843,-992,-650,-283,119,93,-101
18715,2035,0,2023-03-10T14:08:07.986042,6366166,1808,413,831,-1000,-624,-273,117,91,-99
18716,2036,0,2023-03-10T14:08:07.991453,6366171,1808,413,831,-1000,-624,-273,117,91,-99
18717,2037,0,2023-03-10T14:08:07.996051,6366176,1808,413,831,-1000,-624,-273,117,91,-99
18718,2038,0,2023-03-10T14:08:08.000705,6366180,1808,413,831,-1000,-624,-273,117,91,-99
18719,2039,0,2023-03-10T14:08:08.005143,6366185,1808,413,831,-1000,-624,-273,117,91,-99
18720,2040,0,2023-03-10T14:08:08.010061,6366189,1814,404,842,-995,-609,-276,117,91,-99
18721,2041,0,2023-03-10T14:08:08.015042,6366194,1814,404,842,-995,-609,-276,117,91,-99
18722,2042,0,2023-03-10T14:08:08.019974,6366199,1814,404,842,-995,-609,-276,117,91,-99
18723,2043,0,2023-03-10T14:08:08.024287,6366203,1814,404,842,-995,-609,-276,117,91,-99
18724,2044,0,2023-03-10T14:08:08.029109,6366209,1815,414,834,-1004,-647,-281,117,91,-99
18725,2045,0,2023-03-10T14:08:08.033991,6366214,1815,414,834,-1004,-647,-281,117,91,-99
18726,2046,0,2023-03-10T14:08:08.038511,6366218,1815,414,834,-1004,-647,-281,117,91,-99
18727,2047,0,2023-03-10T14:08:08.043042,6366222,1815,414,834,-1004,-647,-281,117,91,-99
18728,2048,0,2023-03-10T14:08:08.048314,6366228,1831,415,838,-1006,-639,-275,117,91,-99
18729,2049,0,2023-03-10T14:08:08.053467,6366233,1831,415,838,-1006,-639,-275,117,91,-99
18730,2050,0,2023-03-10T14:08:08.057951,6366237,1831,415,838,-1006,-639,-275,117,91,-99
18731,2051,0,2023-03-10T14:08:08.062356,6366242,1831,415,838,-1006,-639,-275,117,91,-99
18732,2052,0,2023-03-10T14:08:08.067414,6366246,1800,415,833,-1010,-632,-288,117,91,-99
18733,2053,0,2023-03-10T14:08:08.072032,6366252,1800,415,833,-1010,-632,-288,117,91,-99
18734,2054,0,2023-03-10T14:08:08.076470,6366256,1800,415,833,-1010,-632,-288,117,91,-99
18735,2055,0,2023-03-10T14:08:08.080955,6366261,1800,415,833,-1010,-632,-288,117,91,-99
18736,2056,0,2023-03-10T14:08:08.085360,6366265,1800,415,833,-1010,-632,-288,117,91,-99
18737,2057,0,2023-03-10T14:08:08.090246,6366270,1824,405,834,-1012,-624,-279,117,91,-99
18738,2058,0,2023-03-10T14:08:08.094723,6366274,1824,405,834,-1012,-624,-279,117,91,-99
18739,2059,0,2023-03-10T14:08:08.099070,6366278,1824,405,834,-1012,-624,-279,117,91,-99
18740,2060,0,2023-03-10T14:08:08.103466,6366283,1824,405,834,-1012,-624,-279,117,91,-99
18741,2061,0,2023-03-10T14:08:08.108301,6366287,1803,416,827,-994,-647,-287,117,91,-99
18742,2062,0,2023-03-10T14:08:08.113218,6366292,1803,416,827,-994,-647,-287,117,91,-99
18743,2063,0,2023-03-10T14:08:08.117657,6366297,1803,416,827,-994,-647,-287,117,91,-99
18744,2064,0,2023-03-10T14:08:08.122048,6366302,1803,416,827,-994,-647,-287,117,91,-99
18745,2065,0,2023-03-10T14:08:08.127021,6366307,1830,417,836,-1013,-617,-271,120,84,-96
18746,2066,0,2023-03-10T14:08:08.132281,6366312,1830,417,836,-1013,-617,-271,120,84,-96
18747,2067,0,2023-03-10T14:08:08.137130,6366317,1830,417,836,-1013,-617,-271,120,84,-96
18748,2068,0,2023-03-10T14:08:08.141516,6366321,1830,417,836,-1013,-617,-271,120,84,-96
18749,2069,0,2023-03-10T14:08:08.146798,6366326,1801,408,843,-968,-624,-258,120,84,-96
18750,2070,0,2023-03-10T14:08:08.151676,6366331,1801,408,843,-968,-624,-258,120,84,-96
18751,2071,0,2023-03-10T14:08:08.156136,6366336,1801,408,843,-968,-624,-258,120,84,-96
18752,2072,0,2023-03-10T14:08:08.160473,6366340,1801,408,843,-968,-624,-258,120,84,-96
18753,2073,0,2023-03-10T14:08:08.165034,6366345,1801,408,843,-968,-624,-258,120,84,-96
18754,2074,0,2023-03-10T14:08:08.169816,6366350,1801,403,831,-1026,-628,-284,120,84,-96
18755,2075,0,2023-03-10T14:08:08.174717,6366354,1801,403,831,-1026,-628,-284,120,84,-96
18756,2076,0,2023-03-10T14:08:08.179563,6366359,1801,403,831,-1026,-628,-284,120,84,-96
18757,2077,0,2023-03-10T14:08:08.184229,6366363,1801,403,831,-1026,-628,-284,120,84,-96
18758,2078,0,2023-03-10T14:08:08.189120,6366368,1835,418,838,-1008,-638,-297,120,84,-96
18759,2079,0,2023-03-10T14:08:08.194032,6366373,1835,418,838,-1008,-638,-297,120,84,-96
18760,2080,0,2023-03-10T14:08:08.198771,6366379,1835,418,838,-1008,-638,-297,120,84,-96
18761,2081,0,2023-03-10T14:08:08.203377,6366383,1835,418,838,-1008,-638,-297,120,84,-96
18762,2082,0,2023-03-10T14:08:08.207816,6366387,1820,411,834,-1000,-642,-262,120,84,-96
18763,2083,0,2023-03-10T14:08:08.212699,6366392,1820,411,834,-1000,-642,-262,120,84,-96
18764,2084,0,2023-03-10T14:08:08.216958,6366396,1820,411,834,-1000,-642,-262,120,84,-96
18765,2085,0,2023-03-10T14:08:08.221482,6366401,1820,411,834,-1000,-642,-262,120,84,-96
18766,2086,0,2023-03-10T14:08:08.226031,6366405,1807,414,824,-1018,-623,-283,120,84,-96
18767,2087,0,2023-03-10T14:08:08.231165,6366410,1807,414,824,-1018,-623,-283,120,84,-96
18768,2088,0,2023-03-10T14:08:08.235692,6366415,1807,414,824,-1018,-623,-283,120,84,-96
18769,2089,0,2023-03-10T14:08:08.240420,6366419,1807,414,824,-1018,-623,-283,120,84,-96
18770,2090,0,2023-03-10T14:08:08.245025,6366425,1807,414,824,-1018,-623,-283,120,84,-96
18771,2091,0,2023-03-10T14:08:08.250480,6366430,1821,410,844,-1002,-603,-267,118,98,-102
18772,2092,0,2023-03-10T14:08:08.255331,6366435,1821,410,844,-1002,-603,-267,118,98,-102
18773,2093,0,2023-03-10T14:08:08.259539,6366439,1821,410,844,-1002,-603,-267,118,98,-102
18774,2094,0,2023-03-10T14:08:08.264094,6366443,1821,410,844,-1002,-603,-267,118,98,-102
18775,2095,0,2023-03-10T14:08:08.269142,6366448,1803,409,838,-988,-648,-269,118,98,-102
18776,2096,0,2023-03-10T14:08:08.274266,6366453,1803,409,838,-988,-648,-269,118,98,-102
18777,2097,0,2023-03-10T14:08:08.278975,6366458,1803,409,838,-988,-648,-269,118,98,-102
18778,2098,0,2023-03-10T14:08:08.283309,6366462,1803,409,838,-988,-648,-269,118,98,-102
18779,2099,0,2023-03-10T14:08:08.288214,6366468,1833,415,843,-1029,-631,-291,118,98,-102
18780,2100,0,2023-03-10T14:08:08.293169,6366473,1833,415,843,-1029,-631,-291,118,98,-102
18781,2101,0,2023-03-10T14:08:08.297651,6366477,1833,415,843,-1029,-631,-291,118,98,-102
18782,2102,0,2023-03-10T14:08:08.301971,6366481,1833,415,843,-1029,-631,-291,118,98,-102
18783,2103,0,2023-03-10T14:08:08.306949,6366486,1809,408,821,-1003,-641,-277,118,98,-102
18784,2104,0,2023-03-10T14:08:08.311864,6366491,1809,408,821,-1003,-641,-277,118,98,-102
18785,2105,0,2023-03-10T14:08:08.316576,6366496,1809,408,821,-1003,-641,-277,118,98,-102
18786,2106,0,2023-03-10T14:08:08.321051,6366500,1809,408,821,-1003,-641,-277,118,98,-102
18787,2107,0,2023-03-10T14:08:08.325573,6366505,1809,408,821,-1003,-641,-277,118,98,-102
18788,2108,0,2023-03-10T14:08:08.330574,6366510,1804,400,830,-1008,-632,-275,118,98,-102
18789,2109,0,2023-03-10T14:08:08.335533,6366515,1804,400,830,-1008,-632,-275,118,98,-102
18790,2110,0,2023-03-10T14:08:08.340291,6366520,1804,400,830,-1008,-632,-275,118,98,-102
18791,2111,0,2023-03-10T14:08:08.344916,6366524,1804,400,830,-1008,-632,-275,118,98,-102
18792,2112,0,2023-03-10T14:08:08.349226,6366529,1830,421,830,-1009,-616,-292,118,98,-102
18793,2113,0,2023-03-10T14:08:08.354314,6366534,1830,421,830,-1009,-616,-292,118,98,-102
18794,2114,0,2023-03-10T14:08:08.359276,6366538,1830,421,830,-1009,-616,-292,118,98,-102
18795,2115,0,2023-03-10T14:08:08.363852,6366543,1830,421,830,-1009,-616,-292,118,98,-102
18796,2116,0,2023-03-10T14:08:08.368674,6366548,1820,413,840,-984,-636,-250,122,92,-92
18797,2117,0,2023-03-10T14:08:08.373425,6366553,1820,413,840,-984,-636,-250,122,92,-92
18798,2118,0,2023-03-10T14:08:08.378223,6366558,1820,413,840,-984,-636,-250,122,92,-92
18799,2119,0,2023-03-10T14:08:08.382680,6366562,1820,413,840,-984,-636,-250,122,92,-92
18800,2120,0,2023-03-10T14:08:08.387706,6366567,1805,409,829,-1012,-648,-271,122,92,-92
18801,2121,0,2023-03-10T14:08:08.393322,6366573,1805,409,829,-1012,-648,-271,122,92,-92
18802,2122,0,2023-03-10T14:08:08.397794,6366577,1805,409,829,-1012,-648,-271,122,92,-92
18803,2123,0,2023-03-10T14:08:08.402165,6366581,1805,409,829,-1012,-648,-271,122,92,-92
18804,2124,0,2023-03-10T14:08:08.407005,6366586,1825,409,836,-1030,-617,-298,122,92,-92
18805,2125,0,2023-03-10T14:08:08.412226,6366592,1825,409,836,-1030,-617,-298,122,92,-92
18806,2126,0,2023-03-10T14:08:08.417447,6366597,1825,409,836,-1030,-617,-298,122,92,-92
18807,2127,0,2023-03-10T14:08:08.422114,6366602,1825,409,836,-1030,-617,-298,122,92,-92
18808,2128,0,2023-03-10T14:08:08.427265,6366607,1812,413,829,-983,-653,-266,122,92,-92
18809,2129,0,2023-03-10T14:08:08.432066,6366611,1812,413,829,-983,-653,-266,122,92,-92
18810,2130,0,2023-03-10T14:08:08.436406,6366616,1812,413,829,-983,-653,-266,122,92,-92
18811,2131,0,2023-03-10T14:08:08.440832,6366620,1812,413,829,-983,-653,-266,122,92,-92
18812,2132,0,2023-03-10T14:08:08.445327,6366624,1812,413,829,-983,-653,-266,122,92,-92
18813,2133,0,2023-03-10T14:08:08.450243,6366629,1832,416,829,-1002,-629,-286,122,92,-92
18814,2134,0,2023-03-10T14:08:08.455460,6366635,1832,416,829,-1002,-629,-286,122,92,-92
18815,2135,0,2023-03-10T14:08:08.460697,6366640,1832,416,829,-1002,-629,-286,122,92,-92
18816,2136,0,2023-03-10T14:08:08.465166,6366645,1832,416,829,-1002,-629,-286,122,92,-92
18817,2137,0,2023-03-10T14:08:08.470521,6366650,1815,412,819,-993,-633,-266,122,92,-92
18818,2138,0,2023-03-10T14:08:08.475433,6366655,1815,412,819,-993,-633,-266,122,92,-92
18819,2139,0,2023-03-10T14:08:08.479792,6366659,1815,412,819,-993,-633,-266,122,92,-92
18820,2140,0,2023-03-10T14:08:08.484294,6366663,1815,412,819,-993,-633,-266,122,92,-92
18821,2141,0,2023-03-10T14:08:08.489374,6366668,1806,408,839,-985,-607,-262,122,92,-92
18822,2142,0,2023-03-10T14:08:08.494316,6366673,1806,408,839,-985,-607,-262,122,92,-92
18823,2143,0,2023-03-10T14:08:08.498815,6366679,1806,408,839,-985,-607,-262,122,92,-92
18824,2144,0,2023-03-10T14:08:08.503205,6366683,1806,408,839,-985,-607,-262,122,92,-92
18825,2145,0,2023-03-10T14:08:08.508226,6366688,1826,418,838,-1016,-664,-300,116,90,-98
18826,2146,0,2023-03-10T14:08:08.513223,6366693,1826,418,838,-1016,-664,-300,116,90,-98
18827,2147,0,2023-03-10T14:08:08.518149,6366698,1826,418,838,-1016,-664,-300,116,90,-98
18828,2148,0,2023-03-10T14:08:08.522654,6366702,1826,418,838,-1016,-664,-300,116,90,-98
18829,2149,0,2023-03-10T14:08:08.527691,6366707,1818,409,835,-1011,-628,-275,116,90,-98
18830,2150,0,2023-03-10T14:08:08.533067,6366712,1818,409,835,-1011,-628,-275,116,90,-98
18831,2151,0,2023-03-10T14:08:08.537477,6366716,1818,409,835,-1011,-628,-275,116,90,-98
18832,2152,0,2023-03-10T14:08:08.542005,6366722,1818,409,835,-1011,-628,-275,116,90,-98
18833,2153,0,2023-03-10T14:08:08.547351,6366727,1829,419,825,-995,-647,-291,116,90,-98
18834,2154,0,2023-03-10T14:08:08.552363,6366732,1829,419,825,-995,-647,-291,116,90,-98
18835,2155,0,2023-03-10T14:08:08.557176,6366736,1829,419,825,-995,-647,-291,116,90,-98
18836,2156,0,2023-03-10T14:08:08.561774,6366741,1829,419,825,-995,-647,-291,116,90,-98
18837,2157,0,2023-03-10T14:08:08.566862,6366746,1810,409,828,-996,-616,-252,116,90,-98
18838,2158,0,2023-03-10T14:08:08.572015,6366751,1810,409,828,-996,-616,-252,116,90,-98
18839,2159,0,2023-03-10T14:08:08.576848,6366756,1810,409,828,-996,-616,-252,116,90,-98
18840,2160,0,2023-03-10T14:08:08.581451,6366760,1810,409,828,-996,-616,-252,116,90,-98
18841,2161,0,2023-03-10T14:08:08.586067,6366766,1810,409,828,-996,-616,-252,116,90,-98
18842,2162,0,2023-03-10T14:08:08.590834,6366771,1817,412,837,-978,-628,-279,116,90,-98
18843,2163,0,2023-03-10T14:08:08.595889,6366776,1817,412,837,-978,-628,-279,116,90,-98
18844,2164,0,2023-03-10T14:08:08.601114,6366780,1817,412,837,-978,-628,-279,116,90,-98
18845,2165,0,2023-03-10T14:08:08.605712,6366785,1817,412,837,-978,-628,-279,116,90,-98
18846,2166,0,2023-03-10T14:08:08.610823,6366790,1827,414,834,-1028,-615,-284,116,90,-98
18847,2167,0,2023-03-10T14:08:08.616021,6366795,1827,414,834,-1028,-615,-284,116,90,-98
18848,2168,0,2023-03-10T14:08:08.620518,6366799,1827,414,834,-1028,-615,-284,116,90,-98
18849,2169,0,2023-03-10T14:08:08.625426,6366804,1827,414,834,-1028,-615,-284,116,90,-98
18850,2170,0,2023-03-10T14:08:08.629785,6366810,1826,408,827,-1002,-651,-272,119,93,-101
18851,2171,0,2023-03-10T14:08:08.634655,6366814,1826,408,827,-1002,-651,-272,119,93,-101
18852,2172,0,2023-03-10T14:08:08.638913,6366819,1826,408,827,-1002,-651,-272,119,93,-101
18853,2173,0,2023-03-10T14:08:08.643583,6366823,1826,408,827,-1002,-651,-272,119,93,-101
18854,2174,0,2023-03-10T14:08:08.648659,6366828,1812,413,827,-998,-618,-280,119,93,-101
18855,2175,0,2023-03-10T14:08:08.654081,6366833,1812,413,827,-998,-618,-280,119,93,-101
18856,2176,0,2023-03-10T14:08:08.659144,6366838,1812,413,827,-998,-618,-280,119,93,-101
18857,2177,0,2023-03-10T14:08:08.663600,6366843,1812,413,827,-998,-618,-280,119,93,-101
18858,2178,0,2023-03-10T14:08:08.668638,6366849,1816,404,834,-974,-623,-244,119,93,-101
18859,2179,0,2023-03-10T14:08:08.673790,6366853,1816,404,834,-974,-623,-244,119,93,-101
18860,2180,0,2023-03-10T14:08:08.678319,6366858,1816,404,834,-974,-623,-244,119,93,-101
18861,2181,0,2023-03-10T14:08:08.682654,6366862,1816,404,834,-974,-623,-244,119,93,-101
18862,2182,0,2023-03-10T14:08:08.687092,6366867,1835,420,835,-995,-645,-295,119,93,-101
18863,2183,0,2023-03-10T14:08:08.692313,6366872,1835,420,835,-995,-645,-295,119,93,-101
18864,2184,0,2023-03-10T14:08:08.696573,6366876,1835,420,835,-995,-645,-295,119,93,-101
18865,2185,0,2023-03-10T14:08:08.701143,6366880,1835,420,835,-995,-645,-295,119,93,-101
18866,2186,0,2023-03-10T14:08:08.705535,6366885,1835,420,835,-995,-645,-295,119,93,-101
18867,2187,0,2023-03-10T14:08:08.710760,6366889,1801,402,809,-1034,-641,-261,119,93,-101
18868,2188,0,2023-03-10T14:08:08.716208,6366896,1801,402,809,-1034,-641,-261,119,93,-101
18869,2189,0,2023-03-10T14:08:08.720520,6366900,1801,402,809,-1034,-641,-261,119,93,-101
18870,2190,0,2023-03-10T14:08:08.724968,6366905,1801,402,809,-1034,-641,-261,119,93,-101
18871,2191,0,2023-03-10T14:08:08.729472,6366909,1836,414,842,-1001,-626,-304,119,93,-101
18872,2192,0,2023-03-10T14:08:08.734283,6366914,1836,414,842,-1001,-626,-304,119,93,-101
18873,2193,0,2023-03-10T14:08:08.739122,6366918,1836,414,842,-1001,-626,-304,119,93,-101
18874,2194,0,2023-03-10T14:08:08.743735,6366923,1836,414,842,-1001,-626,-304,119,93,-101
18875,2195,0,2023-03-10T14:08:08.748581,6366928,1796,402,814,-1009,-698,-260,119,93,-101
18876,2196,0,2023-03-10T14:08:08.753345,6366932,1796,402,814,-1009,-698,-260,119,93,-101
18877,2197,0,2023-03-10T14:08:08.757807,6366938,1796,402,814,-1009,-698,-260,119,93,-101
18878,2198,0,2023-03-10T14:08:08.762122,6366942,1796,402,814,-1009,-698,-260,119,93,-101
18879,2199,0,2023-03-10T14:08:08.766721,6366946,1839,421,833,-996,-592,-278,125,85,-95
18880,2200,0,2023-03-10T14:08:08.771509,6366951,1839,421,833,-996,-592,-278,125,85,-95
18881,2201,0,2023-03-10T14:08:08.776635,6366955,1839,421,833,-996,-592,-278,125,85,-95
18882,2202,0,2023-03-10T14:08:08.781154,6366960,1839,421,833,-996,-592,-278,125,85,-95
18883,2203,0,2023-03-10T14:08:08.785571,6366965,1839,421,833,-996,-592,-278,125,85,-95
18884,2204,0,2023-03-10T14:08:08.790270,6366969,1813,405,833,-999,-602,-258,125,85,-95
18885,2205,0,2023-03-10T14:08:08.795352,6366974,1813,405,833,-999,-602,-258,125,85,-95
18886,2206,0,2023-03-10T14:08:08.799934,6366980,1813,405,833,-999,-602,-258,125,85,-95
18887,2207,0,2023-03-10T14:08:08.804480,6366984,1813,405,833,-999,-602,-258,125,85,-95
18888,2208,0,2023-03-10T14:08:08.809519,6366989,1811,408,825,-1015,-648,-285,125,85,-95
18889,2209,0,2023-03-10T14:08:08.814494,6366994,1811,408,825,-1015,-648,-285,125,85,-95
18890,2210,0,2023-03-10T14:08:08.819608,6366999,1811,408,825,-1015,-648,-285,125,85,-95
18891,2211,0,2023-03-10T14:08:08.824266,6367003,1811,408,825,-1015,-648,-285,125,85,-95
18892,2212,0,2023-03-10T14:08:08.829290,6367008,1836,415,829,-1002,-618,-269,125,85,-95
18893,2213,0,2023-03-10T14:08:08.834114,6367013,1836,415,829,-1002,-618,-269,125,85,-95
18894,2214,0,2023-03-10T14:08:08.838488,6367017,1836,415,829,-1002,-618,-269,125,85,-95
18895,2215,0,2023-03-10T14:08:08.843018,6367023,1836,415,829,-1002,-618,-269,125,85,-95
18896,2216,0,2023-03-10T14:08:08.848196,6367028,1810,410,830,-963,-652,-253,125,85,-95
18897,2217,0,2023-03-10T14:08:08.853118,6367033,1810,410,830,-963,-652,-253,125,85,-95
18898,2218,0,2023-03-10T14:08:08.857788,6367037,1810,410,830,-963,-652,-253,125,85,-95
18899,2219,0,2023-03-10T14:08:08.862320,6367042,1810,410,830,-963,-652,-253,125,85,-95
18900,2220,0,2023-03-10T14:08:08.867384,6367047,1835,418,823,-1025,-622,-291,125,85,-95
18901,2221,0,2023-03-10T14:08:08.872437,6367052,1835,418,823,-1025,-622,-291,125,85,-95
18902,2222,0,2023-03-10T14:08:08.877059,6367056,1835,418,823,-1025,-622,-291,125,85,-95
18903,2223,0,2023-03-10T14:08:08.881528,6367060,1835,418,823,-1025,-622,-291,125,85,-95
18904,2224,0,2023-03-10T14:08:08.885962,6367066,1835,418,823,-1025,-622,-291,125,85,-95
18905,2225,0,2023-03-10T14:08:08.890807,6367070,1804,399,827,-1008,-619,-268,118,88,-98
18906,2226,0,2023-03-10T14:08:08.895742,6367075,1804,399,827,-1008,-619,-268,118,88,-98
18907,2227,0,2023-03-10T14:08:08.900258,6367080,1804,399,827,-1008,-619,-268,118,88,-98
18908,2228,0,2023-03-10T14:08:08.904474,6367084,1804,399,827,-1008,-619,-268,118,88,-98
18909,2229,0,2023-03-10T14:08:08.909274,6367089,1839,420,831,-1005,-620,-300,118,88,-98
18910,2230,0,2023-03-10T14:08:08.913843,6367093,1839,420,831,-1005,-620,-300,118,88,-98
18911,2231,0,2023-03-10T14:08:08.918504,6367098,1839,420,831,-1005,-620,-300,118,88,-98
18912,2232,0,2023-03-10T14:08:08.923021,6367102,1839,420,831,-1005,-620,-300,118,88,-98
18913,2233,0,2023-03-10T14:08:08.927956,6367108,1831,413,831,-985,-641,-255,118,88,-98
18914,2234,0,2023-03-10T14:08:08.932929,6367113,1831,413,831,-985,-641,-255,118,88,-98
18915,2235,0,2023-03-10T14:08:08.937312,6367117,1831,413,831,-985,-641,-255,118,88,-98
18916,2236,0,2023-03-10T14:08:08.941864,6367121,1831,413,831,-985,-641,-255,118,88,-98
18917,2237,0,2023-03-10T14:08:08.946884,6367126,1809,409,824,-983,-630,-255,118,88,-98
18918,2238,0,2023-03-10T14:08:08.951756,6367131,1809,409,824,-983,-630,-255,118,88,-98
18919,2239,0,2023-03-10T14:08:08.956554,6367135,1809,409,824,-983,-630,-255,118,88,-98
18920,2240,0,2023-03-10T14:08:08.961091,6367140,1809,409,824,-983,-630,-255,118,88,-98
18921,2241,0,2023-03-10T14:08:08.965552,6367144,1809,409,824,-983,-630,-255,118,88,-98
18922,2242,0,2023-03-10T14:08:08.970472,6367150,1826,407,828,-1019,-612,-282,118,88,-98
18923,2243,0,2023-03-10T14:08:08.975534,6367155,1826,407,828,-1019,-612,-282,118,88,-98
18924,2244,0,2023-03-10T14:08:08.980114,6367160,1826,407,828,-1019,-612,-282,118,88,-98
18925,2245,0,2023-03-10T14:08:08.984517,6367164,1826,407,828,-1019,-612,-282,118,88,-98
18926,2246,0,2023-03-10T14:08:08.989452,6367169,1825,414,821,-996,-665,-280,118,88,-98
18927,2247,0,2023-03-10T14:08:08.994670,6367174,1825,414,821,-996,-665,-280,118,88,-98
18928,2248,0,2023-03-10T14:08:08.999085,6367178,1825,414,821,-996,-665,-280,118,88,-98
18929,2249,0,2023-03-10T14:08:09.003643,6367183,1825,414,821,-996,-665,-280,118,88,-98
18930,2250,0,2023-03-10T14:08:09.008748,6367188,1837,407,819,-1001,-627,-274,124,90,-96
18931,2251,0,2023-03-10T14:08:09.013738,6367193,1837,407,819,-1001,-627,-274,124,90,-96
18932,2252,0,2023-03-10T14:08:09.018790,6367199,1837,407,819,-1001,-627,-274,124,90,-96
18933,2253,0,2023-03-10T14:08:09.023640,6367203,1837,407,819,-1001,-627,-274,124,90,-96
18934,2254,0,2023-03-10T14:08:09.028020,6367208,1815,412,816,-1004,-606,-282,124,90,-96
18935,2255,0,2023-03-10T14:08:09.032968,6367212,1815,412,816,-1004,-606,-282,124,90,-96
18936,2256,0,2023-03-10T14:08:09.037499,6367217,1815,412,816,-1004,-606,-282,124,90,-96
18937,2257,0,2023-03-10T14:08:09.042259,6367221,1815,412,816,-1004,-606,-282,124,90,-96
18938,2258,0,2023-03-10T14:08:09.047209,6367226,1812,404,829,-979,-636,-246,124,90,-96
18939,2259,0,2023-03-10T14:08:09.052374,6367232,1812,404,829,-979,-636,-246,124,90,-96
18940,2260,0,2023-03-10T14:08:09.057398,6367237,1812,404,829,-979,-636,-246,124,90,-96
18941,2261,0,2023-03-10T14:08:09.061778,6367241,1812,404,829,-979,-636,-246,124,90,-96
18942,2262,0,2023-03-10T14:08:09.066168,6367246,1812,404,829,-979,-636,-246,124,90,-96
18943,2263,0,2023-03-10T14:08:09.071227,6367250,1828,413,842,-999,-612,-281,124,90,-96
18944,2264,0,2023-03-10T14:08:09.076150,6367256,1828,413,842,-999,-612,-281,124,90,-96
18945,2265,0,2023-03-10T14:08:09.080623,6367260,1828,413,842,-999,-612,-281,124,90,-96
18946,2266,0,2023-03-10T14:08:09.085016,6367264,1828,413,842,-999,-612,-281,124,90,-96
18947,2267,0,2023-03-10T14:08:09.090210,6367269,1824,413,813,-1021,-657,-276,124,90,-96
18948,2268,0,2023-03-10T14:08:09.095116,6367275,1824,413,813,-1021,-657,-276,124,90,-96
18949,2269,0,2023-03-10T14:08:09.099571,6367279,1824,413,813,-1021,-657,-276,124,90,-96
18950,2270,0,2023-03-10T14:08:09.104265,6367284,1824,413,813,-1021,-657,-276,124,90,-96
18951,2271,0,2023-03-10T14:08:09.109248,6367289,1827,407,830,-998,-623,-262,124,90,-96
18952,2272,0,2023-03-10T14:08:09.114378,6367294,1827,407,830,-998,-623,-262,124,90,-96
18953,2273,0,2023-03-10T14:08:09.119508,6367299,1827,407,830,-998,-623,-262,124,90,-96
18954,2274,0,2023-03-10T14:08:09.124114,6367303,1827,407,830,-998,-623,-262,124,90,-96
18955,2275,0,2023-03-10T14:08:09.128334,6367308,1813,405,812,-1002,-650,-266,124,90,-96
18956,2276,0,2023-03-10T14:08:09.133207,6367312,1813,405,812,-1002,-650,-266,124,90,-96
18957,2277,0,2023-03-10T14:08:09.137715,6367318,1813,405,812,-1002,-650,-266,124,90,-96
18958,2278,0,2023-03-10T14:08:09.142016,6367322,1813,405,812,-1002,-650,-266,124,90,-96
18959,2279,0,2023-03-10T14:08:09.147101,6367327,1841,417,826,-990,-602,-268,124,90,-96
18960,2280,0,2023-03-10T14:08:09.152547,6367332,1841,417,826,-990,-602,-268,121,89,-97
18961,2281,0,2023-03-10T14:08:09.157103,6367336,1841,417,826,-990,-602,-268,121,89,-97
18962,2282,0,2023-03-10T14:08:09.161633,6367341,1841,417,826,-990,-602,-268,121,89,-97
18963,2283,0,2023-03-10T14:08:09.165945,6367345,1841,417,826,-990,-602,-268,121,89,-97
18964,2284,0,2023-03-10T14:08:09.170900,6367350,1812,411,827,-973,-652,-242,121,89,-97
18965,2285,0,2023-03-10T14:08:09.175617,6367355,1812,411,827,-973,-652,-242,121,89,-97
18966,2286,0,2023-03-10T14:08:09.180120,6367360,1812,411,827,-973,-652,-242,121,89,-97
18967,2287,0,2023-03-10T14:08:09.184534,6367364,1812,411,827,-973,-652,-242,121,89,-97
18968,2288,0,2023-03-10T14:08:09.189338,6367369,1830,415,825,-1021,-616,-286,121,89,-97
18969,2289,0,2023-03-10T14:08:09.194134,6367374,1830,415,825,-1021,-616,-286,121,89,-97
18970,2290,0,2023-03-10T14:08:09.198691,6367378,1830,415,825,-1021,-616,-286,121,89,-97
18971,2291,0,2023-03-10T14:08:09.203095,6367383,1830,415,825,-1021,-616,-286,121,89,-97
18972,2292,0,2023-03-10T14:08:09.208396,6367388,1810,406,815,-1009,-634,-268,121,89,-97
18973,2293,0,2023-03-10T14:08:09.212924,6367392,1810,406,815,-1009,-634,-268,121,89,-97
18974,2294,0,2023-03-10T14:08:09.217292,6367397,1810,406,815,-1009,-634,-268,121,89,-97
18975,2295,0,2023-03-10T14:08:09.221721,6367401,1810,406,815,-1009,-634,-268,121,89,-97
18976,2296,0,2023-03-10T14:08:09.226515,6367406,1810,406,815,-1009,-634,-268,121,89,-97
18977,2297,0,2023-03-10T14:08:09.231598,6367411,1841,412,820,-1000,-632,-285,121,89,-97
18978,2298,0,2023-03-10T14:08:09.236302,6367416,1841,412,820,-1000,-632,-285,121,89,-97
18979,2299,0,2023-03-10T14:08:09.241337,6367421,1841,412,820,-1000,-632,-285,121,89,-97
18980,2300,0,2023-03-10T14:08:09.245915,6367425,1841,412,820,-1000,-632,-285,121,89,-97
18981,2301,0,2023-03-10T14:08:09.251080,6367430,1838,417,814,-1005,-640,-287,121,89,-97
18982,2302,0,2023-03-10T14:08:09.256090,6367435,1838,417,814,-1005,-640,-287,121,89,-97
18983,2303,0,2023-03-10T14:08:09.260626,6367440,1838,417,814,-1005,-640,-287,121,89,-97
18984,2304,0,2023-03-10T14:08:09.264919,6367444,1838,417,814,-1005,-640,-287,121,89,-97
18985,2305,0,2023-03-10T14:08:09.269792,6367450,1817,410,813,-978,-625,-255,124,88,-96
18986,2306,0,2023-03-10T14:08:09.275021,6367455,1817,410,813,-978,-625,-255,124,88,-96
18987,2307,0,2023-03-10T14:08:09.279581,6367459,1817,410,813,-978,-625,-255,124,88,-96
18988,2308,0,2023-03-10T14:08:09.284172,6367464,1817,410,813,-978,-625,-255,124,88,-96
18989,2309,0,2023-03-10T14:08:09.288911,6367468,1831,411,837,-989,-608,-277,124,88,-96
18990,2310,0,2023-03-10T14:08:09.293710,6367473,1831,411,837,-989,-608,-277,124,88,-96
18991,2311,0,2023-03-10T14:08:09.297974,6367477,1831,411,837,-989,-608,-277,124,88,-96
18992,2312,0,2023-03-10T14:08:09.303367,6367482,1831,411,837,-989,-608,-277,124,88,-96
18993,2313,0,2023-03-10T14:08:09.307736,6367488,1828,410,819,-1012,-660,-287,124,88,-96
18994,2314,0,2023-03-10T14:08:09.312566,6367492,1828,410,819,-1012,-660,-287,124,88,-96
18995,2315,0,2023-03-10T14:08:09.316979,6367497,1828,410,819,-1012,-660,-287,124,88,-96
18996,2316,0,2023-03-10T14:08:09.321324,6367501,1828,410,819,-1012,-660,-287,124,88,-96
18997,2317,0,2023-03-10T14:08:09.325806,6367505,1828,410,819,-1012,-660,-287,124,88,-96
18998,2318,0,2023-03-10T14:08:09.330720,6367510,1837,414,818,-1012,-633,-265,124,88,-96
18999,2319,0,2023-03-10T14:08:09.336037,6367515,1837,414,818,-1012,-633,-265,124,88,-96
19000,2320,0,2023-03-10T14:08:09.340497,6367520,1837,414,818,-1012,-633,-265,124,88,-96
19001,2321,0,2023-03-10T14:08:09.345043,6367524,1837,414,818,-1012,-633,-265,124,88,-96
19002,2322,0,2023-03-10T14:08:09.349547,6367528,1813,405,817,-1007,-619,-264,124,88,-96
19003,2323,0,2023-03-10T14:08:09.354600,6367534,1813,405,817,-1007,-619,-264,124,88,-96
19004,2324,0,2023-03-10T14:08:09.359073,6367539,1813,405,817,-1007,-619,-264,124,88,-96
19005,2325,0,2023-03-10T14:08:09.363624,6367543,1813,405,817,-1007,-619,-264,124,88,-96
19006,2326,0,2023-03-10T14:08:09.368465,6367548,1824,412,817,-1012,-620,-286,124,88,-96
19007,2327,0,2023-03-10T14:08:09.373293,6367553,1824,412,817,-1012,-620,-286,124,88,-96
19008,2328,0,2023-03-10T14:08:09.377710,6367557,1824,412,817,-1012,-620,-286,124,88,-96
19009,2329,0,2023-03-10T14:08:09.382042,6367561,1824,412,817,-1012,-620,-286,124,88,-96
19010,2330,0,2023-03-10T14:08:09.386971,6367566,1824,412,817,-1012,-620,-286,124,88,-96
19011,2331,0,2023-03-10T14:08:09.391396,6367570,1832,410,827,-967,-613,-262,124,88,-96
19012,2332,0,2023-03-10T14:08:09.396341,6367576,1832,410,827,-967,-613,-262,124,88,-96
19013,2333,0,2023-03-10T14:08:09.401072,6367581,1832,410,827,-967,-613,-262,124,88,-96
19014,2334,0,2023-03-10T14:08:09.405658,6367585,1832,410,827,-967,-613,-262,124,88,-96
19015,2335,0,2023-03-10T14:08:09.410300,6367590,1833,413,824,-987,-648,-281,113,87,-89
19016,2336,0,2023-03-10T14:08:09.415320,6367595,1833,413,824,-987,-648,-281,113,87,-89
19017,2337,0,2023-03-10T14:08:09.419708,6367599,1833,413,824,-987,-648,-281,113,87,-89
19018,2338,0,2023-03-10T14:08:09.424266,6367603,1833,413,824,-987,-648,-281,113,87,-89
19019,2339,0,2023-03-10T14:08:09.429294,6367608,1818,406,805,-1016,-649,-271,113,87,-89
19020,2340,0,2023-03-10T14:08:09.434234,6367613,1818,406,805,-1016,-649,-271,113,87,-89
19021,2341,0,2023-03-10T14:08:09.438720,6367619,1818,406,805,-1016,-649,-271,113,87,-89
19022,2342,0,2023-03-10T14:08:09.443054,6367623,1818,406,805,-1016,-649,-271,113,87,-89
19023,2343,0,2023-03-10T14:08:09.448155,6367628,1840,409,818,-1001,-622,-274,113,87,-89
19024,2344,0,2023-03-10T14:08:09.453162,6367633,1840,409,818,-1001,-622,-274,113,87,-89
19025,2345,0,2023-03-10T14:08:09.457662,6367637,1840,409,818,-1001,-622,-274,113,87,-89
19026,2346,0,2023-03-10T14:08:09.462007,6367641,1840,409,818,-1001,-622,-274,113,87,-89
19027,2347,0,2023-03-10T14:08:09.466594,6367646,1840,409,818,-1001,-622,-274,113,87,-89
19028,2348,0,2023-03-10T14:08:09.471143,6367650,1816,407,809,-997,-644,-275,113,87,-89
19029,2349,0,2023-03-10T14:08:09.476406,6367655,1816,407,809,-997,-644,-275,113,87,-89
19030,2350,0,2023-03-10T14:08:09.481009,6367661,1816,407,809,-997,-644,-275,113,87,-89
19031,2351,0,2023-03-10T14:08:09.485588,6367665,1816,407,809,-997,-644,-275,113,87,-89
19032,2352,0,2023-03-10T14:08:09.490738,6367670,1850,413,818,-1006,-629,-289,113,87,-89
19033,2353,0,2023-03-10T14:08:09.495660,6367675,1850,413,818,-1006,-629,-289,113,87,-89
19034,2354,0,2023-03-10T14:08:09.500219,6367680,1850,413,818,-1006,-629,-289,113,87,-89
19035,2355,0,2023-03-10T14:08:09.504886,6367684,1850,413,818,-1006,-629,-289,113,87,-89
19036,2356,0,2023-03-10T14:08:09.509771,6367689,1808,409,812,-995,-638,-279,113,87,-89
19037,2357,0,2023-03-10T14:08:09.514436,6367693,1808,409,812,-995,-638,-279,113,87,-89
19038,2358,0,2023-03-10T14:08:09.518982,6367698,1808,409,812,-995,-638,-279,113,87,-89
19039,2359,0,2023-03-10T14:08:09.523503,6367703,1808,409,812,-995,-638,-279,113,87,-89
19040,2360,0,2023-03-10T14:08:09.528507,6367708,1833,403,828,-1008,-605,-277,115,89,-93
19041,2361,0,2023-03-10T14:08:09.533460,6367713,1833,403,828,-1008,-605,-277,115,89,-93
19042,2362,0,2023-03-10T14:08:09.537888,6367717,1833,403,828,-1008,-605,-277,115,89,-93
19043,2363,0,2023-03-10T14:08:09.542510,6367722,1833,403,828,-1008,-605,-277,115,89,-93
19044,2364,0,2023-03-10T14:08:09.546694,6367726,1833,403,828,-1008,-605,-277,115,89,-93
19045,2365,0,2023-03-10T14:08:09.551273,6367730,1822,415,821,-987,-657,-280,115,89,-93
19046,2366,0,2023-03-10T14:08:09.556267,6367735,1822,415,821,-987,-657,-280,115,89,-93
19047,2367,0,2023-03-10T14:08:09.561380,6367740,1822,415,821,-987,-657,-280,115,89,-93
19048,2368,0,2023-03-10T14:08:09.565939,6367746,1822,415,821,-987,-657,-280,115,89,-93
19049,2369,0,2023-03-10T14:08:09.571090,6367751,1838,410,822,-1014,-632,-273,115,89,-93
19050,2370,0,2023-03-10T14:08:09.576151,6367756,1838,410,822,-1014,-632,-273,115,89,-93
19051,2371,0,2023-03-10T14:08:09.580591,6367760,1838,410,822,-1014,-632,-273,115,89,-93
19052,2372,0,2023-03-10T14:08:09.585047,6367765,1838,410,822,-1014,-632,-273,115,89,-93
19053,2373,0,2023-03-10T14:08:09.590020,6367769,1825,414,807,-988,-629,-280,115,89,-93
19054,2374,0,2023-03-10T14:08:09.594974,6367774,1825,414,807,-988,-629,-280,115,89,-93
19055,2375,0,2023-03-10T14:08:09.600114,6367779,1825,414,807,-988,-629,-280,115,89,-93
19056,2376,0,2023-03-10T14:08:09.604784,6367784,1825,414,807,-988,-629,-280,115,89,-93
19057,2377,0,2023-03-10T14:08:09.609649,6367790,1817,403,824,-986,-615,-249,115,89,-93
19058,2378,0,2023-03-10T14:08:09.614083,6367794,1817,403,824,-986,-615,-249,115,89,-93
19059,2379,0,2023-03-10T14:08:09.618989,6367799,1817,403,824,-986,-615,-249,115,89,-93
19060,2380,0,2023-03-10T14:08:09.623539,6367803,1817,403,824,-986,-615,-249,115,89,-93
19061,2381,0,2023-03-10T14:08:09.628920,6367808,1838,415,823,-984,-639,-277,115,89,-93
19062,2382,0,2023-03-10T14:08:09.633370,6367813,1838,415,823,-984,-639,-277,115,89,-93
19063,2383,0,2023-03-10T14:08:09.637831,6367817,1838,415,823,-984,-639,-277,115,89,-93
19064,2384,0,2023-03-10T14:08:09.642062,6367821,1838,415,823,-984,-639,-277,115,89,-93
19065,2385,0,2023-03-10T14:08:09.646532,6367826,1838,415,823,-984,-639,-277,115,89,-93
19066,2386,0,2023-03-10T14:08:09.651104,6367831,1834,414,810,-1025,-641,-285,115,89,-93
19067,2387,0,2023-03-10T14:08:09.656272,6367836,1834,414,810,-1025,-641,-285,115,89,-93
19068,2388,0,2023-03-10T14:08:09.660732,6367840,1834,414,810,-1025,-641,-285,115,89,-93
19069,2389,0,2023-03-10T14:08:09.665106,6367845,1834,414,810,-1025,-641,-285,115,89,-93
19070,2390,0,2023-03-10T14:08:09.670018,6367849,1819,409,810,-1009,-638,-274,119,87,-97
19071,2391,0,2023-03-10T14:08:09.675259,6367855,1819,409,810,-1009,-638,-274,119,87,-97
19072,2392,0,2023-03-10T14:08:09.679687,6367859,1819,409,810,-1009,-638,-274,119,87,-97
19073,2393,0,2023-03-10T14:08:09.684088,6367863,1819,409,810,-1009,-638,-274,119,87,-97
19074,2394,0,2023-03-10T14:08:09.688510,6367868,1833,407,825,-1013,-610,-285,119,87,-97
19075,2395,0,2023-03-10T14:08:09.693290,6367873,1833,407,825,-1013,-610,-285,119,87,-97
19076,2396,0,2023-03-10T14:08:09.697681,6367878,1833,407,825,-1013,-610,-285,119,87,-97
19077,2397,0,2023-03-10T14:08:09.702133,6367882,1833,407,825,-1013,-610,-285,119,87,-97
19078,2398,0,2023-03-10T14:08:09.707107,6367887,1833,407,825,-1013,-610,-285,119,87,-97
19079,2399,0,2023-03-10T14:08:09.711513,6367891,1830,408,811,-1001,-643,-264,119,87,-97
19080,2400,0,2023-03-10T14:08:09.716740,6367896,1830,408,811,-1001,-643,-264,119,87,-97
19081,2401,0,2023-03-10T14:08:09.721523,6367901,1830,408,811,-1001,-643,-264,119,87,-97
19082,2402,0,2023-03-10T14:08:09.726078,6367905,1830,408,811,-1001,-643,-264,119,87,-97
19083,2403,0,2023-03-10T14:08:09.731087,6367910,1840,412,817,-974,-624,-252,119,87,-97
19084,2404,0,2023-03-10T14:08:09.736270,6367916,1840,412,817,-974,-624,-252,119,87,-97
19085,2405,0,2023-03-10T14:08:09.740801,6367921,1840,412,817,-974,-624,-252,119,87,-97
19086,2406,0,2023-03-10T14:08:09.745298,6367925,1840,412,817,-974,-624,-252,119,87,-97
19087,2407,0,2023-03-10T14:08:09.749629,6367929,1822,407,806,-998,-642,-273,119,87,-97
19088,2408,0,2023-03-10T14:08:09.754839,6367934,1822,407,806,-998,-642,-273,119,87,-97
19089,2409,0,2023-03-10T14:08:09.759160,6367939,1822,407,806,-998,-642,-273,119,87,-97
19090,2410,0,2023-03-10T14:08:09.763606,6367943,1822,407,806,-998,-642,-273,119,87,-97
19091,2411,0,2023-03-10T14:08:09.768584,6367948,1831,409,812,-1021,-618,-285,119,87,-97
19092,2412,0,2023-03-10T14:08:09.773578,6367953,1831,409,812,-1021,-618,-285,119,87,-97
19093,2413,0,2023-03-10T14:08:09.778002,6367958,1831,409,812,-1021,-618,-285,119,87,-97
19094,2414,0,2023-03-10T14:08:09.782445,6367962,1831,409,812,-1021,-618,-285,119,87,-97
19095,2415,0,2023-03-10T14:08:09.787575,6367967,1831,409,812,-1021,-618,-285,119,87,-97
19096,2416,0,2023-03-10T14:08:09.792038,6367972,1841,410,819,-995,-674,-280,117,93,-99
19097,2417,0,2023-03-10T14:08:09.797173,6367977,1841,410,819,-995,-674,-280,117,93,-99
19098,2418,0,2023-03-10T14:08:09.801669,6367981,1841,410,819,-995,-674,-280,117,93,-99
19099,2419,0,2023-03-10T14:08:09.806042,6367985,1841,410,819,-995,-674,-280,117,93,-99
19100,2420,0,2023-03-10T14:08:09.811014,6367990,1824,404,808,-1012,-619,-277,117,93,-99
19101,2421,0,2023-03-10T14:08:09.815880,6367995,1824,404,808,-1012,-619,-277,117,93,-99
19102,2422,0,2023-03-10T14:08:09.820565,6368001,1824,404,808,-1012,-619,-277,117,93,-99
19103,2423,0,2023-03-10T14:08:09.825097,6368005,1824,404,808,-1012,-619,-277,117,93,-99
19104,2424,0,2023-03-10T14:08:09.830842,6368011,1835,412,809,-999,-620,-281,117,93,-99
19105,2425,0,2023-03-10T14:08:09.836235,6368016,1835,412,809,-999,-620,-281,117,93,-99
19106,2426,0,2023-03-10T14:08:09.841031,6368020,1835,412,809,-999,-620,-281,117,93,-99
19107,2427,0,2023-03-10T14:08:09.845249,6368025,1835,412,809,-999,-620,-281,117,93,-99
19108,2428,0,2023-03-10T14:08:09.849529,6368029,1835,412,809,-999,-620,-281,117,93,-99
19109,2429,0,2023-03-10T14:08:09.853866,6368033,1835,412,809,-999,-620,-281,117,93,-99
19110,2430,0,2023-03-10T14:08:09.858441,6368037,1835,412,809,-999,-620,-281,117,93,-99
19111,2431,0,2023-03-10T14:08:09.863286,6368043,1835,412,809,-999,-620,-281,117,93,-99
19112,2432,0,2023-03-10T14:08:09.868058,6368048,1832,410,817,-1015,-659,-281,117,93,-99
19113,2433,0,2023-03-10T14:08:09.872931,6368053,1832,410,817,-1015,-659,-281,117,93,-99
19114,2434,0,2023-03-10T14:08:09.878051,6368058,1832,410,817,-1015,-659,-281,117,93,-99
19115,2435,0,2023-03-10T14:08:09.882562,6368062,1832,410,817,-1015,-659,-281,117,93,-99
19116,2436,0,2023-03-10T14:08:09.886899,6368066,1832,410,817,-1015,-659,-281,117,93,-99
19117,2437,0,2023-03-10T14:08:09.891359,6368071,1834,410,803,-1023,-631,-278,117,93,-99
19118,2438,0,2023-03-10T14:08:09.896553,6368075,1834,410,803,-1023,-631,-278,117,93,-99
19119,2439,0,2023-03-10T14:08:09.901068,6368080,1834,410,803,-1023,-631,-278,117,93,-99
19120,2440,0,2023-03-10T14:08:09.905571,6368086,1834,410,803,-1023,-631,-278,117,93,-99
19121,2441,0,2023-03-10T14:08:09.910767,6368091,1839,406,806,-993,-650,-266,119,83,-109
19122,2442,0,2023-03-10T14:08:09.915762,6368095,1839,406,806,-993,-650,-266,119,83,-109
19123,2443,0,2023-03-10T14:08:09.920057,6368100,1839,406,806,-993,-650,-266,119,83,-109
19124,2444,0,2023-03-10T14:08:09.924434,6368104,1839,406,806,-993,-650,-266,119,83,-109
19125,2445,0,2023-03-10T14:08:09.929364,6368109,1828,410,806,-1008,-631,-288,119,83,-109
19126,2446,0,2023-03-10T14:08:09.934978,6368114,1828,410,806,-1008,-631,-288,119,83,-109
19127,2447,0,2023-03-10T14:08:09.939370,6368119,1828,410,806,-1008,-631,-288,119,83,-109
19128,2448,0,2023-03-10T14:08:09.943779,6368123,1828,410,806,-1008,-631,-288,119,83,-109
19129,2449,0,2023-03-10T14:08:09.948798,6368129,1830,406,813,-992,-610,-252,119,83,-109
19130,2450,0,2023-03-10T14:08:09.953711,6368134,1830,406,813,-992,-610,-252,119,83,-109
19131,2451,0,2023-03-10T14:08:09.958056,6368138,1830,406,813,-992,-610,-252,119,83,-109
19132,2452,0,2023-03-10T14:08:09.962851,6368142,1830,406,813,-992,-610,-252,119,83,-109
19133,2453,0,2023-03-10T14:08:09.968025,6368147,1830,406,813,-992,-610,-252,119,83,-109
19134,2454,0,2023-03-10T14:08:09.972602,6368152,1849,419,824,-973,-635,-277,119,83,-109
19135,2455,0,2023-03-10T14:08:09.977235,6368156,1849,419,824,-973,-635,-277,119,83,-109
19136,2456,0,2023-03-10T14:08:09.981441,6368161,1849,419,824,-973,-635,-277,119,83,-109
19137,2457,0,2023-03-10T14:08:09.985908,6368165,1849,419,824,-973,-635,-277,119,83,-109
19138,2458,0,2023-03-10T14:08:09.990799,6368171,1815,399,805,-1023,-636,-264,119,83,-109
19139,2459,0,2023-03-10T14:08:09.995832,6368176,1815,399,805,-1023,-636,-264,119,83,-109
19140,2460,0,2023-03-10T14:08:10.000063,6368180,1815,399,805,-1023,-636,-264,119,83,-109
19141,2461,0,2023-03-10T14:08:10.004662,6368184,1815,399,805,-1023,-636,-264,119,83,-109
19142,2462,0,2023-03-10T14:08:10.009663,6368189,1850,409,816,-1009,-620,-290,119,83,-109
19143,2463,0,2023-03-10T14:08:10.014057,6368194,1850,409,816,-1009,-620,-290,119,83,-109
19144,2464,0,2023-03-10T14:08:10.018567,6368198,1850,409,816,-1009,-620,-290,119,83,-109
19145,2465,0,2023-03-10T14:08:10.022925,6368202,1850,409,816,-1009,-620,-290,119,83,-109
19146,2466,0,2023-03-10T14:08:10.028182,6368207,1850,409,816,-1009,-620,-290,119,83,-109
19147,2467,0,2023-03-10T14:08:10.032683,6368212,1818,399,802,-995,-654,-250,119,83,-109
19148,2468,0,2023-03-10T14:08:10.037678,6368218,1818,399,802,-995,-654,-250,119,83,-109
19149,2469,0,2023-03-10T14:08:10.042151,6368222,1818,399,802,-995,-654,-250,119,83,-109
19150,2470,0,2023-03-10T14:08:10.047088,6368227,1818,399,802,-995,-654,-250,119,83,-109
19151,2471,0,2023-03-10T14:08:10.051851,6368231,1851,420,814,-1001,-609,-292,126,98,-94
19152,2472,0,2023-03-10T14:08:10.056964,6368236,1851,420,814,-1001,-609,-292,126,98,-94
19153,2473,0,2023-03-10T14:08:10.061525,6368241,1851,420,814,-1001,-609,-292,126,98,-94
19154,2474,0,2023-03-10T14:08:10.066105,6368245,1851,420,814,-1001,-609,-292,126,98,-94
19155,2475,0,2023-03-10T14:08:10.071041,6368250,1814,406,818,-967,-622,-239,126,98,-94
19156,2476,0,2023-03-10T14:08:10.075719,6368256,1814,406,818,-967,-622,-239,126,98,-94
19157,2477,0,2023-03-10T14:08:10.080252,6368260,1814,406,818,-967,-622,-239,126,98,-94
19158,2478,0,2023-03-10T14:08:10.084750,6368264,1814,406,818,-967,-622,-239,126,98,-94
19159,2479,0,2023-03-10T14:08:10.089717,6368269,1824,404,809,-990,-654,-267,126,98,-94
19160,2480,0,2023-03-10T14:08:10.094650,6368274,1824,404,809,-990,-654,-267,126,98,-94
19161,2481,0,2023-03-10T14:08:10.099774,6368279,1824,404,809,-990,-654,-267,126,98,-94
19162,2482,0,2023-03-10T14:08:10.104185,6368283,1824,404,809,-990,-654,-267,126,98,-94
19163,2483,0,2023-03-10T14:08:10.108854,6368288,1842,408,814,-1026,-625,-289,126,98,-94
19164,2484,0,2023-03-10T14:08:10.113931,6368293,1842,408,814,-1026,-625,-289,126,98,-94
19165,2485,0,2023-03-10T14:08:10.118486,6368297,1842,408,814,-1026,-625,-289,126,98,-94
19166,2486,0,2023-03-10T14:08:10.122958,6368303,1842,408,814,-1026,-625,-289,126,98,-94
19167,2487,0,2023-03-10T14:08:10.128113,6368308,1842,408,814,-1026,-625,-289,126,98,-94
19168,2488,0,2023-03-10T14:08:10.132690,6368312,1836,406,804,-1000,-659,-261,126,98,-94
19169,2489,0,2023-03-10T14:08:10.137465,6368317,1836,406,804,-1000,-659,-261,126,98,-94
19170,2490,0,2023-03-10T14:08:10.142123,6368321,1836,406,804,-1000,-659,-261,126,98,-94
19171,2491,0,2023-03-10T14:08:10.146649,6368326,1836,406,804,-1000,-659,-261,126,98,-94
19172,2492,0,2023-03-10T14:08:10.151743,6368331,1834,408,801,-1000,-626,-279,126,98,-94
19173,2493,0,2023-03-10T14:08:10.156824,6368336,1834,408,801,-1000,-626,-279,126,98,-94
19174,2494,0,2023-03-10T14:08:10.161385,6368340,1834,408,801,-1000,-626,-279,126,98,-94
19175,2495,0,2023-03-10T14:08:10.165853,6368346,1834,408,801,-1000,-626,-279,126,98,-94
19176,2496,0,2023-03-10T14:08:10.171063,6368351,1824,409,811,-989,-612,-273,118,90,-94
19177,2497,0,2023-03-10T14:08:10.176023,6368356,1824,409,811,-989,-612,-273,118,90,-94
19178,2498,0,2023-03-10T14:08:10.180712,6368360,1824,409,811,-989,-612,-273,118,90,-94
19179,2499,0,2023-03-10T14:08:10.185398,6368365,1824,409,811,-989,-612,-273,118,90,-94
19180,2500,0,2023-03-10T14:08:10.190367,6368370,1843,412,829,-969,-632,-263,118,90,-94
19181,2501,0,2023-03-10T14:08:10.195545,6368375,1843,412,829,-969,-632,-263,118,90,-94
19182,2502,0,2023-03-10T14:08:10.200333,6368379,1843,412,829,-969,-632,-263,118,90,-94
19183,2503,0,2023-03-10T14:08:10.205123,6368385,1843,412,829,-969,-632,-263,118,90,-94
19184,2504,0,2023-03-10T14:08:10.209910,6368390,1836,407,802,-1010,-640,-277,118,90,-94
19185,2505,0,2023-03-10T14:08:10.215138,6368395,1836,407,802,-1010,-640,-277,118,90,-94
19186,2506,0,2023-03-10T14:08:10.219765,6368399,1836,407,802,-1010,-640,-277,118,90,-94
19187,2507,0,2023-03-10T14:08:10.224350,6368404,1836,407,802,-1010,-640,-277,118,90,-94
19188,2508,0,2023-03-10T14:08:10.229562,6368409,1827,406,800,-1018,-629,-273,118,90,-94
19189,2509,0,2023-03-10T14:08:10.235239,6368414,1827,406,800,-1018,-629,-273,118,90,-94
19190,2510,0,2023-03-10T14:08:10.239746,6368419,1827,406,800,-1018,-629,-273,118,90,-94
19191,2511,0,2023-03-10T14:08:10.244054,6368423,1827,406,800,-1018,-629,-273,118,90,-94
19192,2512,0,2023-03-10T14:08:10.249064,6368429,1826,395,806,-989,-650,-265,118,90,-94
19193,2513,0,2023-03-10T14:08:10.254246,6368434,1826,395,806,-989,-650,-265,118,90,-94
19194,2514,0,2023-03-10T14:08:10.259249,6368439,1826,395,806,-989,-650,-265,118,90,-94
19195,2515,0,2023-03-10T14:08:10.263715,6368443,1826,395,806,-989,-650,-265,118,90,-94
19196,2516,0,2023-03-10T14:08:10.268688,6368448,1841,408,799,-1010,-612,-284,118,90,-94
19197,2517,0,2023-03-10T14:08:10.273682,6368453,1841,408,799,-1010,-612,-284,118,90,-94
19198,2518,0,2023-03-10T14:08:10.278657,6368458,1841,408,799,-1010,-612,-284,118,90,-94
19199,2519,0,2023-03-10T14:08:10.283032,6368462,1841,408,799,-1010,-612,-284,118,90,-94
19200,2520,0,2023-03-10T14:08:10.287531,6368467,1841,408,799,-1010,-612,-284,118,90,-94
19201,2521,0,2023-03-10T14:08:10.292011,6368472,1838,410,802,-993,-649,-257,118,90,-94
19202,2522,0,2023-03-10T14:08:10.297313,6368477,1838,410,802,-993,-649,-257,118,90,-94
19203,2523,0,2023-03-10T14:08:10.302443,6368482,1838,410,802,-993,-649,-257,118,90,-94
19204,2524,0,2023-03-10T14:08:10.306849,6368486,1838,410,802,-993,-649,-257,118,90,-94
19205,2525,0,2023-03-10T14:08:10.312308,6368492,1829,410,817,-994,-623,-267,122,84,-102
19206,2526,0,2023-03-10T14:08:10.317361,6368497,1829,410,817,-994,-623,-267,122,84,-102
19207,2527,0,2023-03-10T14:08:10.322106,6368501,1829,410,817,-994,-623,-267,122,84,-102
19208,2528,0,2023-03-10T14:08:10.326676,6368506,1829,410,817,-994,-623,-267,122,84,-102
19209,2529,0,2023-03-10T14:08:10.331702,6368512,1822,403,806,-1021,-639,-284,122,84,-102
19210,2530,0,2023-03-10T14:08:10.336595,6368516,1822,403,806,-1021,-639,-284,122,84,-102
19211,2531,0,2023-03-10T14:08:10.341154,6368521,1822,403,806,-1021,-639,-284,122,84,-102
19212,2532,0,2023-03-10T14:08:10.345646,6368525,1822,403,806,-1021,-639,-284,122,84,-102
19213,2533,0,2023-03-10T14:08:10.350481,6368530,1854,414,812,-1000,-641,-285,122,84,-102
19214,2534,0,2023-03-10T14:08:10.355448,6368535,1854,414,812,-1000,-641,-285,122,84,-102
19215,2535,0,2023-03-10T14:08:10.360265,6368540,1854,414,812,-1000,-641,-285,122,84,-102
19216,2536,0,2023-03-10T14:08:10.365626,6368545,1854,414,812,-1000,-641,-285,122,84,-102
19217,2537,0,2023-03-10T14:08:10.370674,6368550,1851,407,802,-1004,-650,-270,122,84,-102
19218,2538,0,2023-03-10T14:08:10.375605,6368556,1851,407,802,-1004,-650,-270,122,84,-102
19219,2539,0,2023-03-10T14:08:10.380612,6368560,1851,407,802,-1004,-650,-270,122,84,-102
19220,2540,0,2023-03-10T14:08:10.385119,6368565,1851,407,802,-1004,-650,-270,122,84,-102
19221,2541,0,2023-03-10T14:08:10.389738,6368569,1829,409,798,-1002,-647,-273,122,84,-102
19222,2542,0,2023-03-10T14:08:10.394820,6368574,1829,409,798,-1002,-647,-273,122,84,-102
19223,2543,0,2023-03-10T14:08:10.399434,6368579,1829,409,798,-1002,-647,-273,122,84,-102
19224,2544,0,2023-03-10T14:08:10.403806,6368583,1829,409,798,-1002,-647,-273,122,84,-102
19225,2545,0,2023-03-10T14:08:10.409307,6368588,1840,402,818,-981,-611,-260,122,84,-102
19226,2546,0,2023-03-10T14:08:10.414613,6368594,1840,402,818,-981,-611,-260,122,84,-102
19227,2547,0,2023-03-10T14:08:10.419141,6368599,1840,402,818,-981,-611,-260,122,84,-102
19228,2548,0,2023-03-10T14:08:10.423694,6368604,1840,402,818,-981,-611,-260,122,84,-102
19229,2549,0,2023-03-10T14:08:10.428777,6368609,1825,407,810,-999,-652,-277,122,84,-102
19230,2550,0,2023-03-10T14:08:10.433909,6368613,1825,407,810,-999,-652,-277,122,86,-98
19231,2551,0,2023-03-10T14:08:10.439700,6368619,1825,407,810,-999,-652,-277,122,86,-98
19232,2552,0,2023-03-10T14:08:10.444180,6368624,1825,407,810,-999,-652,-277,122,86,-98
19233,2553,0,2023-03-10T14:08:10.449247,6368628,1858,410,810,-1025,-639,-287,122,86,-98
19234,2554,0,2023-03-10T14:08:10.454385,6368633,1858,410,810,-1025,-639,-287,122,86,-98
19235,2555,0,2023-03-10T14:08:10.458765,6368638,1858,410,810,-1025,-639,-287,122,86,-98
19236,2556,0,2023-03-10T14:08:10.463416,6368643,1858,410,810,-1025,-639,-287,122,86,-98
19237,2557,0,2023-03-10T14:08:10.467707,6368648,1858,410,810,-1025,-639,-287,122,86,-98
19238,2558,0,2023-03-10T14:08:10.472077,6368652,1819,403,799,-992,-648,-261,122,86,-98
19239,2559,0,2023-03-10T14:08:10.477088,6368657,1819,403,799,-992,-648,-261,122,86,-98
19240,2560,0,2023-03-10T14:08:10.481625,6368661,1819,403,799,-992,-648,-261,122,86,-98
19241,2561,0,2023-03-10T14:08:10.486203,6368665,1819,403,799,-992,-648,-261,122,86,-98
19242,2562,0,2023-03-10T14:08:10.490863,6368670,1847,396,808,-1015,-603,-282,122,86,-98
19243,2563,0,2023-03-10T14:08:10.495832,6368675,1847,396,808,-1015,-603,-282,122,86,-98
19244,2564,0,2023-03-10T14:08:10.500415,6368679,1847,396,808,-1015,-603,-282,122,86,-98
19245,2565,0,2023-03-10T14:08:10.504952,6368685,1847,396,808,-1015,-603,-282,122,86,-98
19246,2566,0,2023-03-10T14:08:10.509453,6368689,1828,412,793,-976,-643,-264,122,86,-98
19247,2567,0,2023-03-10T14:08:10.514529,6368694,1828,412,793,-976,-643,-264,122,86,-98
19248,2568,0,2023-03-10T14:08:10.518972,6368698,1828,412,793,-976,-643,-264,122,86,-98
19249,2569,0,2023-03-10T14:08:10.523577,6368703,1828,412,793,-976,-643,-264,122,86,-98
19250,2570,0,2023-03-10T14:08:10.528577,6368708,1828,412,793,-976,-643,-264,122,86,-98
19251,2571,0,2023-03-10T14:08:10.533241,6368712,1848,412,813,-975,-618,-251,122,86,-98
19252,2572,0,2023-03-10T14:08:10.538162,6368717,1848,412,813,-975,-618,-251,122,86,-98
19253,2573,0,2023-03-10T14:08:10.542485,6368722,1848,412,813,-975,-618,-251,122,86,-98
19254,2574,0,2023-03-10T14:08:10.547495,6368727,1848,412,813,-975,-618,-251,122,86,-98
19255,2575,0,2023-03-10T14:08:10.551832,6368732,1827,408,795,-1008,-637,-281,122,86,-98
19256,2576,0,2023-03-10T14:08:10.556627,6368736,1827,408,795,-1008,-637,-281,122,86,-98
19257,2577,0,2023-03-10T14:08:10.561065,6368741,1827,408,795,-1008,-637,-281,122,86,-98
19258,2578,0,2023-03-10T14:08:10.565509,6368745,1827,408,795,-1008,-637,-281,122,86,-98
19259,2579,0,2023-03-10T14:08:10.570654,6368750,1836,403,802,-1010,-635,-267,119,89,-109
19260,2580,0,2023-03-10T14:08:10.575646,6368755,1836,403,802,-1010,-635,-267,119,89,-109
19261,2581,0,2023-03-10T14:08:10.580468,6368760,1836,403,802,-1010,-635,-267,119,89,-109
19262,2582,0,2023-03-10T14:08:10.584977,6368764,1836,403,802,-1010,-635,-267,119,89,-109
19263,2583,0,2023-03-10T14:08:10.589750,6368770,1851,410,815,-985,-640,-274,119,89,-109
19264,2584,0,2023-03-10T14:08:10.594626,6368775,1851,410,815,-985,-640,-274,119,89,-109
19265,2585,0,2023-03-10T14:08:10.599041,6368779,1851,410,815,-985,-640,-274,119,89,-109
19266,2586,0,2023-03-10T14:08:10.603528,6368783,1851,410,815,-985,-640,-274,119,89,-109
19267,2587,0,2023-03-10T14:08:10.608895,6368788,1851,410,815,-985,-640,-274,119,89,-109
19268,2588,0,2023-03-10T14:08:10.613707,6368793,1844,415,796,-1018,-635,-280,119,89,-109
19269,2589,0,2023-03-10T14:08:10.618672,6368798,1844,415,796,-1018,-635,-280,119,89,-109
19270,2590,0,2023-03-10T14:08:10.623207,6368802,1844,415,796,-1018,-635,-280,119,89,-109
19271,2591,0,2023-03-10T14:08:10.628694,6368808,1844,415,796,-1018,-635,-280,119,89,-109
19272,2592,0,2023-03-10T14:08:10.633724,6368813,1829,404,802,-983,-622,-253,119,89,-109
19273,2593,0,2023-03-10T14:08:10.638654,6368819,1829,404,802,-983,-622,-253,119,89,-109
19274,2594,0,2023-03-10T14:08:10.643237,6368823,1829,404,802,-983,-622,-253,119,89,-109
19275,2595,0,2023-03-10T14:08:10.648200,6368828,1829,404,802,-983,-622,-253,119,89,-109
19276,2596,0,2023-03-10T14:08:10.652690,6368832,1835,409,817,-982,-610,-281,119,89,-109
19277,2597,0,2023-03-10T14:08:10.657701,6368837,1835,409,817,-982,-610,-281,119,89,-109
19278,2598,0,2023-03-10T14:08:10.662022,6368841,1835,409,817,-982,-610,-281,119,89,-109
19279,2599,0,2023-03-10T14:08:10.666465,6368846,1835,409,817,-982,-610,-281,119,89,-109
19280,2600,0,2023-03-10T14:08:10.671594,6368851,1847,410,799,-1030,-656,-288,119,89,-109
19281,2601,0,2023-03-10T14:08:10.676729,6368857,1847,410,799,-1030,-656,-288,119,89,-109
19282,2602,0,2023-03-10T14:08:10.681004,6368861,1847,410,799,-1030,-656,-288,119,89,-109
19283,2603,0,2023-03-10T14:08:10.685333,6368865,1847,410,799,-1030,-656,-288,119,89,-109
19284,2604,0,2023-03-10T14:08:10.689890,6368869,1835,406,796,-1010,-620,-272,122,84,-100
19285,2605,0,2023-03-10T14:08:10.694789,6368874,1835,406,796,-1010,-620,-272,122,84,-100
19286,2606,0,2023-03-10T14:08:10.699282,6368879,1835,406,796,-1010,-620,-272,122,84,-100
19287,2607,0,2023-03-10T14:08:10.703740,6368883,1835,406,796,-1010,-620,-272,122,84,-100
19288,2608,0,2023-03-10T14:08:10.708537,6368888,1835,406,796,-1010,-620,-272,122,84,-100
19289,2609,0,2023-03-10T14:08:10.713031,6368892,1835,406,796,-1010,-620,-272,122,84,-100
19290,2610,0,2023-03-10T14:08:10.717431,6368898,1835,406,796,-1010,-620,-272,122,84,-100
19291,2611,0,2023-03-10T14:08:10.721968,6368902,1835,406,796,-1010,-620,-272,122,84,-100
19292,2612,0,2023-03-10T14:08:10.726336,6368906,1835,406,796,-1010,-620,-272,122,84,-100
19293,2613,0,2023-03-10T14:08:10.731220,6368911,1828,408,801,-1005,-639,-275,122,84,-100
19294,2614,0,2023-03-10T14:08:10.736282,6368916,1828,408,801,-1005,-639,-275,122,84,-100
19295,2615,0,2023-03-10T14:08:10.740597,6368920,1828,408,801,-1005,-639,-275,122,84,-100
19296,2616,0,2023-03-10T14:08:10.745107,6368924,1828,408,801,-1005,-639,-275,122,84,-100
19297,2617,0,2023-03-10T14:08:10.750038,6368929,1840,404,808,-984,-618,-253,122,84,-100
19298,2618,0,2023-03-10T14:08:10.755199,6368934,1840,404,808,-984,-618,-253,122,84,-100
19299,2619,0,2023-03-10T14:08:10.760144,6368940,1840,404,808,-984,-618,-253,122,84,-100
19300,2620,0,2023-03-10T14:08:10.764649,6368944,1840,404,808,-984,-618,-253,122,84,-100
19301,2621,0,2023-03-10T14:08:10.769636,6368949,1856,418,811,-1002,-641,-293,122,84,-100
19302,2622,0,2023-03-10T14:08:10.774661,6368954,1856,418,811,-1002,-641,-293,122,84,-100
19303,2623,0,2023-03-10T14:08:10.779315,6368959,1856,418,811,-1002,-641,-293,122,84,-100
19304,2624,0,2023-03-10T14:08:10.783654,6368963,1856,418,811,-1002,-641,-293,122,84,-100
19305,2625,0,2023-03-10T14:08:10.788668,6368968,1856,418,811,-1002,-641,-293,122,84,-100
19306,2626,0,2023-03-10T14:08:10.792995,6368972,1820,402,785,-1018,-646,-256,122,84,-100
19307,2627,0,2023-03-10T14:08:10.798005,6368977,1820,402,785,-1018,-646,-256,122,84,-100
19308,2628,0,2023-03-10T14:08:10.802670,6368983,1820,402,785,-1018,-646,-256,122,84,-100
19309,2629,0,2023-03-10T14:08:10.807628,6368988,1820,402,785,-1018,-646,-256,122,84,-100
19310,2630,0,2023-03-10T14:08:10.812148,6368992,1860,407,805,-994,-611,-293,128,96,-102
19311,2631,0,2023-03-10T14:08:10.817137,6368997,1860,407,805,-994,-611,-293,128,96,-102
19312,2632,0,2023-03-10T14:08:10.821764,6369001,1860,407,805,-994,-611,-293,128,96,-102
19313,2633,0,2023-03-10T14:08:10.826166,6369006,1860,407,805,-994,-611,-293,128,96,-102
19314,2634,0,2023-03-10T14:08:10.830985,6369010,1828,399,796,-1006,-661,-263,128,96,-102
19315,2635,0,2023-03-10T14:08:10.835803,6369015,1828,399,796,-1006,-661,-263,128,96,-102
19316,2636,0,2023-03-10T14:08:10.841171,6369020,1828,399,796,-1006,-661,-263,128,96,-102
19317,2637,0,2023-03-10T14:08:10.845827,6369026,1828,399,796,-1006,-661,-263,128,96,-102
19318,2638,0,2023-03-10T14:08:10.850711,6369031,1865,416,809,-1000,-622,-276,128,96,-102
19319,2639,0,2023-03-10T14:08:10.855830,6369036,1865,416,809,-1000,-622,-276,128,96,-102
19320,2640,0,2023-03-10T14:08:10.860890,6369041,1865,416,809,-1000,-622,-276,128,96,-102
19321,2641,0,2023-03-10T14:08:10.865903,6369045,1865,416,809,-1000,-622,-276,128,96,-102
19322,2642,0,2023-03-10T14:08:10.870918,6369050,1825,402,796,-975,-631,-246,128,96,-102
19323,2643,0,2023-03-10T14:08:10.876068,6369055,1825,402,796,-975,-631,-246,128,96,-102
19324,2644,0,2023-03-10T14:08:10.880382,6369060,1825,402,796,-975,-631,-246,128,96,-102
19325,2645,0,2023-03-10T14:08:10.885130,6369064,1825,402,796,-975,-631,-246,128,96,-102
19326,2646,0,2023-03-10T14:08:10.889797,6369070,1835,404,801,-999,-624,-277,128,96,-102
19327,2647,0,2023-03-10T14:08:10.894749,6369075,1835,404,801,-999,-624,-277,128,96,-102
19328,2648,0,2023-03-10T14:08:10.899339,6369079,1835,404,801,-999,-624,-277,128,96,-102
19329,2649,0,2023-03-10T14:08:10.903987,6369084,1835,404,801,-999,-624,-277,128,96,-102
19330,2650,0,2023-03-10T14:08:10.908905,6369089,1835,404,801,-999,-624,-277,128,96,-102
19331,2651,0,2023-03-10T14:08:10.913668,6369093,1858,416,796,-1008,-647,-290,128,96,-102
19332,2652,0,2023-03-10T14:08:10.918776,6369098,1858,416,796,-1008,-647,-290,128,96,-102
19333,2653,0,2023-03-10T14:08:10.923337,6369102,1858,416,796,-1008,-647,-290,128,96,-102
19334,2654,0,2023-03-10T14:08:10.928605,6369108,1858,416,796,-1008,-647,-290,128,96,-102
19335,2655,0,2023-03-10T14:08:10.933157,6369113,1846,405,795,-991,-638,-266,128,96,-102
19336,2656,0,2023-03-10T14:08:10.938586,6369118,1846,405,795,-991,-638,-266,128,96,-102
19337,2657,0,2023-03-10T14:08:10.943072,6369123,1846,405,795,-991,-638,-266,128,96,-102
19338,2658,0,2023-03-10T14:08:10.948153,6369128,1846,405,795,-991,-638,-266,128,96,-102
19339,2659,0,2023-03-10T14:08:10.952708,6369132,1836,410,792,-1004,-638,-284,115,93,-89
19340,2660,0,2023-03-10T14:08:10.958014,6369137,1836,410,792,-1004,-638,-284,115,93,-89
19341,2661,0,2023-03-10T14:08:10.962522,6369142,1836,410,792,-1004,-638,-284,115,93,-89
19342,2662,0,2023-03-10T14:08:10.967174,6369146,1836,410,792,-1004,-638,-284,115,93,-89
19343,2663,0,2023-03-10T14:08:10.972228,6369152,1839,405,808,-986,-612,-252,115,93,-89
19344,2664,0,2023-03-10T14:08:10.977557,6369157,1839,405,808,-986,-612,-252,115,93,-89
19345,2665,0,2023-03-10T14:08:10.982531,6369162,1839,405,808,-986,-612,-252,115,93,-89
19346,2666,0,2023-03-10T14:08:10.987372,6369167,1839,405,808,-986,-612,-252,115,93,-89
19347,2667,0,2023-03-10T14:08:10.992309,6369172,1836,407,799,-977,-644,-264,115,93,-89
19348,2668,0,2023-03-10T14:08:10.997239,6369177,1836,407,799,-977,-644,-264,115,93,-89
19349,2669,0,2023-03-10T14:08:11.001634,6369181,1836,407,799,-977,-644,-264,115,93,-89
19350,2670,0,2023-03-10T14:08:11.006006,6369185,1836,407,799,-977,-644,-264,115,93,-89
19351,2671,0,2023-03-10T14:08:11.011257,6369190,1861,412,797,-1017,-632,-286,115,93,-89
19352,2672,0,2023-03-10T14:08:11.016635,6369196,1861,412,797,-1017,-632,-286,115,93,-89
19353,2673,0,2023-03-10T14:08:11.021310,6369201,1861,412,797,-1017,-632,-286,115,93,-89
19354,2674,0,2023-03-10T14:08:11.025925,6369205,1861,412,797,-1017,-632,-286,115,93,-89
19355,2675,0,2023-03-10T14:08:11.031036,6369211,1829,401,787,-1004,-637,-267,115,93,-89
19356,2676,0,2023-03-10T14:08:11.036862,6369216,1829,401,787,-1004,-637,-267,115,93,-89
19357,2677,0,2023-03-10T14:08:11.041236,6369221,1829,401,787,-1004,-637,-267,115,93,-89
19358,2678,0,2023-03-10T14:08:11.045734,6369225,1829,401,787,-1004,-637,-267,115,93,-89
19359,2679,0,2023-03-10T14:08:11.050887,6369230,1843,401,795,-1002,-614,-277,115,93,-89
19360,2680,0,2023-03-10T14:08:11.055362,6369234,1843,401,795,-1002,-614,-277,115,93,-89
19361,2681,0,2023-03-10T14:08:11.060086,6369240,1843,401,795,-1002,-614,-277,115,93,-89
19362,2682,0,2023-03-10T14:08:11.064606,6369245,1843,401,795,-1002,-614,-277,115,93,-89
19363,2683,0,2023-03-10T14:08:11.069733,6369249,1861,417,801,-983,-649,-281,115,93,-89
19364,2684,0,2023-03-10T14:08:11.074941,6369254,1861,417,801,-983,-649,-281,114,96,-100
19365,2685,0,2023-03-10T14:08:11.080397,6369260,1861,417,801,-983,-649,-281,114,96,-100
19366,2686,0,2023-03-10T14:08:11.084995,6369264,1861,417,801,-983,-649,-281,114,96,-100
19367,2687,0,2023-03-10T14:08:11.090255,6369269,1833,402,802,-984,-620,-251,114,96,-100
19368,2688,0,2023-03-10T14:08:11.095711,6369275,1833,402,802,-984,-620,-251,114,96,-100
19369,2689,0,2023-03-10T14:08:11.100181,6369280,1833,402,802,-984,-620,-251,114,96,-100
19370,2690,0,2023-03-10T14:08:11.104723,6369285,1833,402,802,-984,-620,-251,114,96,-100
19371,2691,0,2023-03-10T14:08:11.109546,6369289,1853,404,804,-1011,-643,-290,114,96,-100
19372,2692,0,2023-03-10T14:08:11.114808,6369294,1853,404,804,-1011,-643,-290,114,96,-100
19373,2693,0,2023-03-10T14:08:11.119213,6369299,1853,404,804,-1011,-643,-290,114,96,-100
19374,2694,0,2023-03-10T14:08:11.123754,6369303,1853,404,804,-1011,-643,-290,114,96,-100
19375,2695,0,2023-03-10T14:08:11.128943,6369308,1853,404,804,-1011,-643,-290,114,96,-100
19376,2696,0,2023-03-10T14:08:11.133475,6369313,1835,402,789,-1016,-647,-263,114,96,-100
19377,2697,0,2023-03-10T14:08:11.137997,6369317,1835,402,789,-1016,-647,-263,114,96,-100
19378,2698,0,2023-03-10T14:08:11.142947,6369323,1835,402,789,-1016,-647,-263,114,96,-100
19379,2699,0,2023-03-10T14:08:11.147504,6369327,1835,402,789,-1016,-647,-263,114,96,-100
19380,2700,0,2023-03-10T14:08:11.151959,6369332,1855,404,797,-993,-652,-286,114,96,-100
19381,2701,0,2023-03-10T14:08:11.157515,6369337,1855,404,797,-993,-652,-286,114,96,-100
19382,2702,0,2023-03-10T14:08:11.162828,6369342,1855,404,797,-993,-652,-286,114,96,-100
19383,2703,0,2023-03-10T14:08:11.167966,6369347,1855,404,797,-993,-652,-286,114,96,-100
19384,2704,0,2023-03-10T14:08:11.172740,6369352,1841,406,787,-992,-630,-264,114,96,-100
19385,2705,0,2023-03-10T14:08:11.177963,6369357,1841,406,787,-992,-630,-264,114,96,-100
19386,2706,0,2023-03-10T14:08:11.182635,6369362,1841,406,787,-992,-630,-264,114,96,-100
19387,2707,0,2023-03-10T14:08:11.187597,6369368,1841,406,787,-992,-630,-264,114,96,-100
19388,2708,0,2023-03-10T14:08:11.192634,6369372,1859,403,805,-971,-662,-266,114,96,-100
19389,2709,0,2023-03-10T14:08:11.197509,6369377,1859,403,805,-971,-662,-266,114,96,-100
19390,2710,0,2023-03-10T14:08:11.202159,6369382,1859,403,805,-971,-662,-266,114,96,-100
19391,2711,0,2023-03-10T14:08:11.206766,6369386,1859,403,805,-971,-662,-266,114,96,-100
