,Unnamed: 0,imu,server_time,arduino_time,ax,ay,az,gx,gy,gz,mx,my,mz
19833,3153,0,2023-03-10T14:08:13.320490,6371501,1868,398,769,-1034,-593,-285,123,81,-103
19834,3154,0,2023-03-10T14:08:13.325147,6371505,1868,398,769,-1034,-593,-285,123,81,-103
19835,3155,0,2023-03-10T14:08:13.330258,6371510,1868,398,769,-1034,-593,-285,123,81,-103
19836,3156,0,2023-03-10T14:08:13.335054,6371515,1885,406,772,-1009,-607,-292,123,81,-103
19837,3157,0,2023-03-10T14:08:13.340090,6371520,1885,406,772,-1009,-607,-292,123,81,-103
19838,3158,0,2023-03-10T14:08:13.344738,6371524,1885,406,772,-1009,-607,-292,123,81,-103
19839,3159,0,2023-03-10T14:08:13.349612,6371529,1885,406,772,-1009,-607,-292,123,81,-103
19840,3160,0,2023-03-10T14:08:13.354147,6371533,1835,386,752,-999,-672,-239,123,81,-103
19841,3161,0,2023-03-10T14:08:13.360017,6371539,1835,386,752,-999,-672,-239,123,81,-103
19842,3162,0,2023-03-10T14:08:13.364678,6371545,1835,386,752,-999,-672,-239,123,81,-103
19843,3163,0,2023-03-10T14:08:13.369750,6371550,1835,386,752,-999,-672,-239,123,81,-103
19844,3164,0,2023-03-10T14:08:13.374137,6371554,1898,415,772,-990,-599,-296,123,81,-103
19845,3165,0,2023-03-10T14:08:13.379387,6371559,1898,415,772,-990,-599,-296,123,81,-103
19846,3166,0,2023-03-10T14:08:13.383981,6371564,1898,415,772,-990,-599,-296,123,81,-103
19847,3167,0,2023-03-10T14:08:13.388388,6371568,1898,415,772,-990,-599,-296,123,81,-103
19848,3168,0,2023-03-10T14:08:13.392861,6371572,1855,394,761,-986,-610,-261,114,82,-110
19849,3169,0,2023-03-10T14:08:13.397781,6371577,1855,394,761,-986,-610,-261,114,82,-110
19850,3170,0,2023-03-10T14:08:13.402166,6371581,1855,394,761,-986,-610,-261,114,82,-110
19851,3171,0,2023-03-10T14:08:13.406775,6371587,1855,394,761,-986,-610,-261,114,82,-110
19852,3172,0,2023-03-10T14:08:13.411728,6371592,1855,394,761,-986,-610,-261,114,82,-110
19853,3173,0,2023-03-10T14:08:13.416023,6371596,1855,394,761,-986,-610,-261,114,82,-110
19854,3174,0,2023-03-10T14:08:13.420454,6371600,1855,394,761,-986,-610,-261,114,82,-110
19855,3175,0,2023-03-10T14:08:13.424958,6371605,1855,394,761,-986,-610,-261,114,82,-110
19856,3176,0,2023-03-10T14:08:13.429979,6371610,1855,394,761,-986,-610,-261,114,82,-110
19857,3177,0,2023-03-10T14:08:13.434653,6371614,1856,391,762,-1002,-647,-264,114,82,-110
19858,3178,0,2023-03-10T14:08:13.439675,6371619,1856,391,762,-1002,-647,-264,114,82,-110
19859,3179,0,2023-03-10T14:08:13.444296,6371623,1856,391,762,-1002,-647,-264,114,82,-110
19860,3180,0,2023-03-10T14:08:13.448799,6371629,1856,391,762,-1002,-647,-264,114,82,-110
19861,3181,0,2023-03-10T14:08:13.453372,6371633,1874,401,767,-996,-616,-274,114,82,-110
19862,3182,0,2023-03-10T14:08:13.457885,6371638,1874,401,767,-996,-616,-274,114,82,-110
19863,3183,0,2023-03-10T14:08:13.463102,6371643,1874,401,767,-996,-616,-274,114,82,-110
19864,3184,0,2023-03-10T14:08:13.467609,6371647,1874,401,767,-996,-616,-274,114,82,-110
19865,3185,0,2023-03-10T14:08:13.472846,6371652,1862,396,759,-998,-653,-270,114,82,-110
19866,3186,0,2023-03-10T14:08:13.477255,6371657,1862,396,759,-998,-653,-270,114,82,-110
19867,3187,0,2023-03-10T14:08:13.482040,6371661,1862,396,759,-998,-653,-270,114,82,-110
19868,3188,0,2023-03-10T14:08:13.486254,6371666,1862,396,759,-998,-653,-270,114,82,-110
19869,3189,0,2023-03-10T14:08:13.491212,6371671,1862,396,759,-998,-653,-270,114,82,-110
19870,3190,0,2023-03-10T14:08:13.496027,6371676,1888,404,765,-1003,-622,-282,114,82,-110
19871,3191,0,2023-03-10T14:08:13.501294,6371681,1888,404,765,-1003,-622,-282,114,82,-110
19872,3192,0,2023-03-10T14:08:13.505609,6371685,1888,404,765,-1003,-622,-282,114,82,-110
19873,3193,0,2023-03-10T14:08:13.510547,6371690,1888,404,765,-1003,-622,-282,114,82,-110
19874,3194,0,2023-03-10T14:08:13.515441,6371695,1839,391,759,-966,-648,-230,123,89,-107
19875,3195,0,2023-03-10T14:08:13.520463,6371700,1839,391,759,-966,-648,-230,123,89,-107
19876,3196,0,2023-03-10T14:08:13.524897,6371704,1839,391,759,-966,-648,-230,123,89,-107
19877,3197,0,2023-03-10T14:08:13.529752,6371709,1839,391,759,-966,-648,-230,123,89,-107
19878,3198,0,2023-03-10T14:08:13.534217,6371714,1872,402,787,-1007,-602,-289,123,89,-107
19879,3199,0,2023-03-10T14:08:13.538994,6371719,1872,402,787,-1007,-602,-289,123,89,-107
19880,3200,0,2023-03-10T14:08:13.543276,6371723,1872,402,787,-1007,-602,-289,123,89,-107
19881,3201,0,2023-03-10T14:08:13.547575,6371727,1872,402,787,-1007,-602,-289,123,89,-107
19882,3202,0,2023-03-10T14:08:13.552539,6371732,1872,402,787,-1007,-602,-289,123,89,-107
19883,3203,0,2023-03-10T14:08:13.557089,6371737,1860,398,754,-1008,-704,-283,123,89,-107
19884,3204,0,2023-03-10T14:08:13.563138,6371743,1860,398,754,-1008,-704,-283,123,89,-107
19885,3205,0,2023-03-10T14:08:13.567523,6371747,1860,398,754,-1008,-704,-283,123,89,-107
19886,3206,0,2023-03-10T14:08:13.572824,6371752,1860,398,754,-1008,-704,-283,123,89,-107
19887,3207,0,2023-03-10T14:08:13.577081,6371757,1878,398,766,-994,-613,-279,123,89,-107
19888,3208,0,2023-03-10T14:08:13.581583,6371762,1878,398,766,-994,-613,-279,123,89,-107
19889,3209,0,2023-03-10T14:08:13.585949,6371766,1878,398,766,-994,-613,-279,123,89,-107
19890,3210,0,2023-03-10T14:08:13.590635,6371770,1878,398,766,-994,-613,-279,123,89,-107
19891,3211,0,2023-03-10T14:08:13.595108,6371775,1855,398,762,-1014,-582,-283,123,89,-107
19892,3212,0,2023-03-10T14:08:13.600223,6371780,1855,398,762,-1014,-582,-283,123,89,-107
19893,3213,0,2023-03-10T14:08:13.604773,6371784,1855,398,762,-1014,-582,-283,123,89,-107
19894,3214,0,2023-03-10T14:08:13.609906,6371789,1855,398,762,-1014,-582,-283,123,89,-107
19895,3215,0,2023-03-10T14:08:13.614480,6371794,1879,403,773,-984,-691,-266,123,89,-107
19896,3216,0,2023-03-10T14:08:13.619290,6371799,1879,403,773,-984,-691,-266,123,89,-107
19897,3217,0,2023-03-10T14:08:13.623641,6371804,1879,403,773,-984,-691,-266,123,89,-107
19898,3218,0,2023-03-10T14:08:13.628502,6371808,1879,403,773,-984,-691,-266,123,89,-107
19899,3219,0,2023-03-10T14:08:13.633038,6371813,1871,401,771,-976,-641,-249,123,89,-107
19900,3220,0,2023-03-10T14:08:13.638228,6371818,1871,401,771,-976,-641,-249,123,89,-107
19901,3221,0,2023-03-10T14:08:13.642825,6371822,1871,401,771,-976,-641,-249,123,89,-107
19902,3222,0,2023-03-10T14:08:13.647486,6371827,1871,401,771,-976,-641,-249,123,89,-107
19903,3223,0,2023-03-10T14:08:13.652376,6371832,1871,401,771,-976,-641,-249,123,89,-107
19904,3224,0,2023-03-10T14:08:13.656785,6371836,1849,392,763,-1023,-605,-282,126,84,-96
19905,3225,0,2023-03-10T14:08:13.661610,6371842,1849,392,763,-1023,-605,-282,126,84,-96
19906,3226,0,2023-03-10T14:08:13.666073,6371846,1849,392,763,-1023,-605,-282,126,84,-96
19907,3227,0,2023-03-10T14:08:13.671162,6371851,1849,392,763,-1023,-605,-282,126,84,-96
19908,3228,0,2023-03-10T14:08:13.675772,6371856,1874,395,769,-1015,-621,-285,126,84,-96
19909,3229,0,2023-03-10T14:08:13.680927,6371860,1874,395,769,-1015,-621,-285,126,84,-96
19910,3230,0,2023-03-10T14:08:13.685581,6371865,1874,395,769,-1015,-621,-285,126,84,-96
19911,3231,0,2023-03-10T14:08:13.690430,6371870,1874,395,769,-1015,-621,-285,126,84,-96
19912,3232,0,2023-03-10T14:08:13.695275,6371875,1860,393,766,-988,-657,-267,126,84,-96
19913,3233,0,2023-03-10T14:08:13.700374,6371880,1860,393,766,-988,-657,-267,126,84,-96
19914,3234,0,2023-03-10T14:08:13.704857,6371885,1860,393,766,-988,-657,-267,126,84,-96
19915,3235,0,2023-03-10T14:08:13.710026,6371890,1860,393,766,-988,-657,-267,126,84,-96
19916,3236,0,2023-03-10T14:08:13.714735,6371894,1879,412,766,-1003,-598,-295,126,84,-96
19917,3237,0,2023-03-10T14:08:13.719899,6371900,1879,412,766,-1003,-598,-295,126,84,-96
19918,3238,0,2023-03-10T14:08:13.724680,6371904,1879,412,766,-1003,-598,-295,126,84,-96
19919,3239,0,2023-03-10T14:08:13.729546,6371909,1879,412,766,-1003,-598,-295,126,84,-96
19920,3240,0,2023-03-10T14:08:13.733957,6371913,1865,400,769,-961,-693,-243,126,84,-96
19921,3241,0,2023-03-10T14:08:13.738962,6371918,1865,400,769,-961,-693,-243,126,84,-96
19922,3242,0,2023-03-10T14:08:13.743261,6371923,1865,400,769,-961,-693,-243,126,84,-96
19923,3243,0,2023-03-10T14:08:13.747502,6371928,1865,400,769,-961,-693,-243,126,84,-96
19924,3244,0,2023-03-10T14:08:13.753110,6371933,1865,400,769,-961,-693,-243,126,84,-96
19925,3245,0,2023-03-10T14:08:13.757568,6371937,1869,403,766,-986,-640,-267,126,84,-96
19926,3246,0,2023-03-10T14:08:13.763203,6371943,1869,403,766,-986,-640,-267,126,84,-96
19927,3247,0,2023-03-10T14:08:13.767548,6371947,1869,403,766,-986,-640,-267,126,84,-96
19928,3248,0,2023-03-10T14:08:13.772615,6371952,1869,403,766,-986,-640,-267,126,84,-96
19929,3249,0,2023-03-10T14:08:13.777076,6371957,1851,390,763,-1026,-593,-279,127,87,-105
19930,3250,0,2023-03-10T14:08:13.782206,6371961,1851,390,763,-1026,-593,-279,127,87,-105
19931,3251,0,2023-03-10T14:08:13.786492,6371966,1851,390,763,-1026,-593,-279,127,87,-105
19932,3252,0,2023-03-10T14:08:13.790974,6371971,1851,390,763,-1026,-593,-279,127,87,-105
19933,3253,0,2023-03-10T14:08:13.795503,6371975,1908,411,767,-988,-666,-298,127,87,-105
19934,3254,0,2023-03-10T14:08:13.800722,6371981,1908,411,767,-988,-666,-298,127,87,-105
19935,3255,0,2023-03-10T14:08:13.805163,6371985,1908,411,767,-988,-666,-298,127,87,-105
19936,3256,0,2023-03-10T14:08:13.810211,6371990,1908,411,767,-988,-666,-298,127,87,-105
19937,3257,0,2023-03-10T14:08:13.814720,6371994,1842,386,742,-1002,-667,-250,127,87,-105
19938,3258,0,2023-03-10T14:08:13.819623,6371999,1842,386,742,-1002,-667,-250,127,87,-105
19939,3259,0,2023-03-10T14:08:13.824133,6372003,1842,386,742,-1002,-667,-250,127,87,-105
19940,3260,0,2023-03-10T14:08:13.828488,6372008,1842,386,742,-1002,-667,-250,127,87,-105
19941,3261,0,2023-03-10T14:08:13.833172,6372013,1872,405,757,-1002,-587,-294,127,87,-105
19942,3262,0,2023-03-10T14:08:13.838044,6372018,1872,405,757,-1002,-587,-294,127,87,-105
19943,3263,0,2023-03-10T14:08:13.842659,6372023,1872,405,757,-1002,-587,-294,127,87,-105
19944,3264,0,2023-03-10T14:08:13.847043,6372027,1872,405,757,-1002,-587,-294,127,87,-105
19945,3265,0,2023-03-10T14:08:13.851631,6372031,1872,405,757,-1002,-587,-294,127,87,-105
19946,3266,0,2023-03-10T14:08:13.856203,6372036,1875,402,771,-978,-604,-264,127,87,-105
19947,3267,0,2023-03-10T14:08:13.860969,6372040,1875,402,771,-978,-604,-264,127,87,-105
19948,3268,0,2023-03-10T14:08:13.865378,6372045,1875,402,771,-978,-604,-264,127,87,-105
19949,3269,0,2023-03-10T14:08:13.870531,6372050,1875,402,771,-978,-604,-264,127,87,-105
19950,3270,0,2023-03-10T14:08:13.875068,6372055,1871,400,761,-1016,-647,-280,127,87,-105
19951,3271,0,2023-03-10T14:08:13.880162,6372060,1871,400,761,-1016,-647,-280,127,87,-105
19952,3272,0,2023-03-10T14:08:13.884641,6372065,1871,400,761,-1016,-647,-280,127,87,-105
19953,3273,0,2023-03-10T14:08:13.889503,6372069,1871,400,761,-1016,-647,-280,127,87,-105
19954,3274,0,2023-03-10T14:08:13.893808,6372073,1875,400,756,-1021,-625,-288,127,87,-105
19955,3275,0,2023-03-10T14:08:13.898778,6372078,1875,400,756,-1021,-625,-288,127,87,-105
19956,3276,0,2023-03-10T14:08:13.903608,6372083,1875,400,756,-1021,-625,-288,127,87,-105
19957,3277,0,2023-03-10T14:08:13.908206,6372088,1875,400,756,-1021,-625,-288,127,87,-105
19958,3278,0,2023-03-10T14:08:13.913275,6372093,1896,402,766,-987,-665,-279,127,87,-105
19959,3279,0,2023-03-10T14:08:13.918152,6372098,1896,402,766,-987,-665,-279,119,77,-103
19960,3280,0,2023-03-10T14:08:13.922664,6372103,1896,402,766,-987,-665,-279,119,77,-103
19961,3281,0,2023-03-10T14:08:13.927321,6372107,1896,402,766,-987,-665,-279,119,77,-103
19962,3282,0,2023-03-10T14:08:13.932406,6372112,1896,402,766,-987,-665,-279,119,77,-103
19963,3283,0,2023-03-10T14:08:13.936884,6372117,1853,399,735,-1010,-674,-273,119,77,-103
19964,3284,0,2023-03-10T14:08:13.941894,6372121,1853,399,735,-1010,-674,-273,119,77,-103
19965,3285,0,2023-03-10T14:08:13.946213,6372126,1853,399,735,-1010,-674,-273,119,77,-103
19966,3286,0,2023-03-10T14:08:13.950527,6372130,1853,399,735,-1010,-674,-273,119,77,-103
19967,3287,0,2023-03-10T14:08:13.955833,6372135,1874,398,762,-995,-582,-255,119,77,-103
19968,3288,0,2023-03-10T14:08:13.960789,6372141,1874,398,762,-995,-582,-255,119,77,-103
19969,3289,0,2023-03-10T14:08:13.965125,6372145,1874,398,762,-995,-582,-255,119,77,-103
19970,3290,0,2023-03-10T14:08:13.970033,6372150,1874,398,762,-995,-582,-255,119,77,-103
19971,3291,0,2023-03-10T14:08:13.974403,6372154,1888,402,771,-981,-606,-281,119,77,-103
19972,3292,0,2023-03-10T14:08:13.979681,6372159,1888,402,771,-981,-606,-281,119,77,-103
19973,3293,0,2023-03-10T14:08:13.984290,6372164,1888,402,771,-981,-606,-281,119,77,-103
19974,3294,0,2023-03-10T14:08:13.989400,6372169,1888,402,771,-981,-606,-281,119,77,-103
19975,3295,0,2023-03-10T14:08:13.994008,6372173,1838,384,739,-1022,-684,-264,119,77,-103
19976,3296,0,2023-03-10T14:08:13.999131,6372178,1838,384,739,-1022,-684,-264,119,77,-103
19977,3297,0,2023-03-10T14:08:14.003585,6372184,1838,384,739,-1022,-684,-264,119,77,-103
19978,3298,0,2023-03-10T14:08:14.008274,6372188,1838,384,739,-1022,-684,-264,119,77,-103
19979,3299,0,2023-03-10T14:08:14.013068,6372193,1838,384,739,-1022,-684,-264,119,77,-103
19980,3300,0,2023-03-10T14:08:14.017458,6372197,1898,410,763,-1009,-614,-302,119,77,-103
19981,3301,0,2023-03-10T14:08:14.022994,6372203,1898,410,763,-1009,-614,-302,119,77,-103
19982,3302,0,2023-03-10T14:08:14.027499,6372207,1898,410,763,-1009,-614,-302,119,77,-103
19983,3303,0,2023-03-10T14:08:14.032684,6372212,1898,410,763,-1009,-614,-302,119,77,-103
19984,3304,0,2023-03-10T14:08:14.037166,6372217,1867,392,767,-989,-610,-270,114,84,-104
19985,3305,0,2023-03-10T14:08:14.041975,6372221,1867,392,767,-989,-610,-270,114,84,-104
19986,3306,0,2023-03-10T14:08:14.046411,6372227,1867,392,767,-989,-610,-270,114,84,-104
19987,3307,0,2023-03-10T14:08:14.050821,6372231,1867,392,767,-989,-610,-270,114,84,-104
19988,3308,0,2023-03-10T14:08:14.055252,6372235,1877,395,755,-1013,-617,-290,114,84,-104
19989,3309,0,2023-03-10T14:08:14.060146,6372240,1877,395,755,-1013,-617,-290,114,84,-104
19990,3310,0,2023-03-10T14:08:14.064657,6372244,1877,395,755,-1013,-617,-290,114,84,-104
19991,3311,0,2023-03-10T14:08:14.069422,6372249,1877,395,755,-1013,-617,-290,114,84,-104
19992,3312,0,2023-03-10T14:08:14.073989,6372253,1850,393,757,-961,-696,-237,114,84,-104
19993,3313,0,2023-03-10T14:08:14.078797,6372258,1850,393,757,-961,-696,-237,114,84,-104
19994,3314,0,2023-03-10T14:08:14.083312,6372263,1850,393,757,-961,-696,-237,114,84,-104
19995,3315,0,2023-03-10T14:08:14.087767,6372268,1850,393,757,-961,-696,-237,114,84,-104
19996,3316,0,2023-03-10T14:08:14.092868,6372273,1850,393,757,-961,-696,-237,114,84,-104
19997,3317,0,2023-03-10T14:08:14.097278,6372277,1887,404,778,-983,-602,-283,114,84,-104
19998,3318,0,2023-03-10T14:08:14.102988,6372283,1887,404,778,-983,-602,-283,114,84,-104
19999,3319,0,2023-03-10T14:08:14.107580,6372287,1887,404,778,-983,-602,-283,114,84,-104
20000,3320,0,2023-03-10T14:08:14.112600,6372292,1887,404,778,-983,-602,-283,114,84,-104
20001,3321,0,2023-03-10T14:08:14.117153,6372297,1870,401,747,-1022,-622,-286,114,84,-104
20002,3322,0,2023-03-10T14:08:14.121993,6372301,1870,401,747,-1022,-622,-286,114,84,-104
20003,3323,0,2023-03-10T14:08:14.126365,6372306,1870,401,747,-1022,-622,-286,114,84,-104
20004,3324,0,2023-03-10T14:08:14.131210,6372311,1870,401,747,-1022,-622,-286,114,84,-104
20005,3325,0,2023-03-10T14:08:14.135745,6372316,1875,397,761,-992,-624,-266,114,84,-104
20006,3326,0,2023-03-10T14:08:14.140686,6372321,1875,397,761,-992,-624,-266,114,84,-104
20007,3327,0,2023-03-10T14:08:14.144947,6372325,1875,397,761,-992,-624,-266,114,84,-104
20008,3328,0,2023-03-10T14:08:14.149185,6372329,1875,397,761,-992,-624,-266,114,84,-104
20009,3329,0,2023-03-10T14:08:14.153631,6372333,1862,390,745,-997,-650,-278,115,84,-104
20010,3330,0,2023-03-10T14:08:14.158741,6372338,1862,390,745,-997,-650,-278,115,79,-97
20011,3331,0,2023-03-10T14:08:14.163526,6372343,1862,390,745,-997,-650,-278,115,79,-97
20012,3332,0,2023-03-10T14:08:14.168089,6372347,1862,390,745,-997,-650,-278,115,79,-97
20013,3333,0,2023-03-10T14:08:14.172690,6372353,1862,390,745,-997,-650,-278,115,79,-97
20014,3334,0,2023-03-10T14:08:14.177101,6372357,1878,399,765,-1001,-595,-285,115,79,-97
20015,3335,0,2023-03-10T14:08:14.181968,6372362,1878,399,765,-1001,-595,-285,115,79,-97
20016,3336,0,2023-03-10T14:08:14.187446,6372367,1878,399,765,-1001,-595,-285,115,79,-97
20017,3337,0,2023-03-10T14:08:14.192278,6372372,1878,399,765,-1001,-595,-285,115,79,-97
20018,3338,0,2023-03-10T14:08:14.196875,6372376,1853,396,756,-959,-702,-247,115,79,-97
20019,3339,0,2023-03-10T14:08:14.201643,6372381,1853,396,756,-959,-702,-247,115,79,-97
20020,3340,0,2023-03-10T14:08:14.206480,6372386,1853,396,756,-959,-702,-247,115,79,-97
20021,3341,0,2023-03-10T14:08:14.211011,6372390,1853,396,756,-959,-702,-247,115,79,-97
20022,3342,0,2023-03-10T14:08:14.215298,6372396,1888,402,768,-1015,-628,-300,115,79,-97
20023,3343,0,2023-03-10T14:08:14.220229,6372400,1888,402,768,-1015,-628,-300,115,79,-97
20024,3344,0,2023-03-10T14:08:14.224734,6372405,1888,402,768,-1015,-628,-300,115,79,-97
20025,3345,0,2023-03-10T14:08:14.229617,6372409,1888,402,768,-1015,-628,-300,115,79,-97
20026,3346,0,2023-03-10T14:08:14.234046,6372414,1855,394,756,-1027,-600,-283,115,79,-97
20027,3347,0,2023-03-10T14:08:14.239408,6372419,1855,394,756,-1027,-600,-283,115,79,-97
20028,3348,0,2023-03-10T14:08:14.243643,6372423,1855,394,756,-1027,-600,-283,115,79,-97
20029,3349,0,2023-03-10T14:08:14.248457,6372428,1855,394,756,-1027,-600,-283,115,79,-97
20030,3350,0,2023-03-10T14:08:14.253193,6372432,1855,394,756,-1027,-600,-283,115,79,-97
20031,3351,0,2023-03-10T14:08:14.257431,6372438,1893,399,765,-988,-689,-283,115,79,-97
20032,3352,0,2023-03-10T14:08:14.262301,6372442,1893,399,765,-988,-689,-283,115,79,-97
20033,3353,0,2023-03-10T14:08:14.266677,6372447,1893,399,765,-988,-689,-283,115,79,-97
20034,3354,0,2023-03-10T14:08:14.271857,6372452,1893,399,765,-988,-689,-283,115,79,-97
20035,3355,0,2023-03-10T14:08:14.276325,6372456,1871,401,742,-1015,-645,-280,115,79,-97
20036,3356,0,2023-03-10T14:08:14.281237,6372461,1871,401,742,-1015,-645,-280,115,79,-97
20037,3357,0,2023-03-10T14:08:14.285784,6372465,1871,401,742,-1015,-645,-280,115,79,-97
20038,3358,0,2023-03-10T14:08:14.290571,6372470,1871,401,742,-1015,-645,-280,115,79,-97
20039,3359,0,2023-03-10T14:08:14.295553,6372475,1857,390,753,-985,-586,-262,117,87,-101
20040,3360,0,2023-03-10T14:08:14.300419,6372481,1857,390,753,-985,-586,-262,117,87,-101
20041,3361,0,2023-03-10T14:08:14.304726,6372485,1857,390,753,-985,-586,-262,117,87,-101
20042,3362,0,2023-03-10T14:08:14.309227,6372489,1857,390,753,-985,-586,-262,117,87,-101
20043,3363,0,2023-03-10T14:08:14.313591,6372494,1857,390,753,-985,-586,-262,117,87,-101
20044,3364,0,2023-03-10T14:08:14.318198,6372498,1872,398,775,-975,-611,-275,117,87,-101
20045,3365,0,2023-03-10T14:08:14.323323,6372503,1872,398,775,-975,-611,-275,117,87,-101
20046,3366,0,2023-03-10T14:08:14.327747,6372507,1872,398,775,-975,-611,-275,117,87,-101
20047,3367,0,2023-03-10T14:08:14.332610,6372512,1872,398,775,-975,-611,-275,117,87,-101
20048,3368,0,2023-03-10T14:08:14.337069,6372516,1865,392,760,-1018,-657,-283,117,87,-101
20049,3369,0,2023-03-10T14:08:14.342132,6372521,1865,392,760,-1018,-657,-283,117,87,-101
20050,3370,0,2023-03-10T14:08:14.346988,6372527,1865,392,760,-1018,-657,-283,117,87,-101
20051,3371,0,2023-03-10T14:08:14.352077,6372532,1865,392,760,-1018,-657,-283,117,87,-101
20052,3372,0,2023-03-10T14:08:14.356458,6372536,1882,400,750,-1024,-611,-282,117,87,-101
20053,3373,0,2023-03-10T14:08:14.361647,6372541,1882,400,750,-1024,-611,-282,117,87,-101
20054,3374,0,2023-03-10T14:08:14.366175,6372546,1882,400,750,-1024,-611,-282,117,87,-101
20055,3375,0,2023-03-10T14:08:14.370733,6372550,1882,400,750,-1024,-611,-282,117,87,-101
20056,3376,0,2023-03-10T14:08:14.375267,6372555,1883,395,754,-995,-678,-275,117,87,-101
20057,3377,0,2023-03-10T14:08:14.380202,6372560,1883,395,754,-995,-678,-275,117,87,-101
20058,3378,0,2023-03-10T14:08:14.384863,6372564,1883,395,754,-995,-678,-275,117,87,-101
20059,3379,0,2023-03-10T14:08:14.389913,6372570,1883,395,754,-995,-678,-275,117,87,-101
20060,3380,0,2023-03-10T14:08:14.394316,6372574,1877,403,739,-1011,-633,-285,117,87,-101
20061,3381,0,2023-03-10T14:08:14.399169,6372579,1877,403,739,-1011,-633,-285,117,87,-101
20062,3382,0,2023-03-10T14:08:14.404481,6372584,1877,403,739,-1011,-633,-285,117,87,-101
20063,3383,0,2023-03-10T14:08:14.409359,6372589,1877,403,739,-1011,-633,-285,117,87,-101
20064,3384,0,2023-03-10T14:08:14.413868,6372593,1877,403,739,-1011,-633,-285,117,87,-101
20065,3385,0,2023-03-10T14:08:14.418497,6372598,1862,391,760,-983,-570,-242,115,83,-95
20066,3386,0,2023-03-10T14:08:14.423250,6372603,1862,391,760,-983,-570,-242,115,83,-95
20067,3387,0,2023-03-10T14:08:14.427773,6372608,1862,391,760,-983,-570,-242,115,83,-95
20068,3388,0,2023-03-10T14:08:14.433120,6372613,1862,391,760,-983,-570,-242,115,83,-95
20069,3389,0,2023-03-10T14:08:14.437448,6372617,1911,409,769,-999,-643,-305,115,83,-95
20070,3390,0,2023-03-10T14:08:14.442612,6372622,1911,409,769,-999,-643,-305,115,83,-95
20071,3391,0,2023-03-10T14:08:14.447173,6372627,1911,409,769,-999,-643,-305,115,83,-95
20072,3392,0,2023-03-10T14:08:14.451687,6372631,1911,409,769,-999,-643,-305,115,83,-95
20073,3393,0,2023-03-10T14:08:14.456246,6372636,1843,388,730,-1032,-677,-260,115,83,-95
20074,3394,0,2023-03-10T14:08:14.461109,6372641,1843,388,730,-1032,-677,-260,115,83,-95
20075,3395,0,2023-03-10T14:08:14.465604,6372645,1843,388,730,-1032,-677,-260,115,83,-95
20076,3396,0,2023-03-10T14:08:14.470588,6372651,1843,388,730,-1032,-677,-260,115,83,-95
20077,3397,0,2023-03-10T14:08:14.475069,6372655,1883,395,748,-998,-601,-292,115,83,-95
20078,3398,0,2023-03-10T14:08:14.480225,6372660,1883,395,748,-998,-601,-292,115,83,-95
20079,3399,0,2023-03-10T14:08:14.484626,6372665,1883,395,748,-998,-601,-292,115,83,-95
20080,3400,0,2023-03-10T14:08:14.489346,6372669,1883,395,748,-998,-601,-292,115,83,-95
20081,3401,0,2023-03-10T14:08:14.493804,6372674,1883,395,748,-998,-601,-292,115,83,-95
20082,3402,0,2023-03-10T14:08:14.498394,6372678,1891,404,755,-995,-606,-293,115,83,-95
20083,3403,0,2023-03-10T14:08:14.503388,6372683,1891,404,755,-995,-606,-293,115,83,-95
20084,3404,0,2023-03-10T14:08:14.507772,6372687,1891,404,755,-995,-606,-293,115,83,-95
20085,3405,0,2023-03-10T14:08:14.512810,6372692,1891,404,755,-995,-606,-293,115,83,-95
20086,3406,0,2023-03-10T14:08:14.517221,6372697,1886,404,747,-1004,-644,-276,115,83,-95
20087,3407,0,2023-03-10T14:08:14.522608,6372703,1886,404,747,-1004,-644,-276,115,83,-95
20088,3408,0,2023-03-10T14:08:14.527419,6372707,1886,404,747,-1004,-644,-276,115,83,-95
20089,3409,0,2023-03-10T14:08:14.531946,6372712,1886,404,747,-1004,-644,-276,115,83,-95
20090,3410,0,2023-03-10T14:08:14.536393,6372716,1866,394,754,-978,-618,-253,115,83,-95
20091,3411,0,2023-03-10T14:08:14.541200,6372721,1866,394,754,-978,-618,-253,115,83,-95
20092,3412,0,2023-03-10T14:08:14.546295,6372726,1866,394,754,-978,-618,-253,115,83,-95
20093,3413,0,2023-03-10T14:08:14.551167,6372731,1866,394,754,-978,-618,-253,115,83,-95
20094,3414,0,2023-03-10T14:08:14.555624,6372736,1894,398,762,-1020,-652,-293,118,80,-100
20095,3415,0,2023-03-10T14:08:14.560529,6372741,1894,398,762,-1020,-652,-293,118,80,-100
20096,3416,0,2023-03-10T14:08:14.564992,6372745,1894,398,762,-1020,-652,-293,118,80,-100
20097,3417,0,2023-03-10T14:08:14.570317,6372750,1894,398,762,-1020,-652,-293,118,80,-100
20098,3418,0,2023-03-10T14:08:14.574856,6372755,1854,393,733,-1019,-699,-269,118,80,-100
20099,3419,0,2023-03-10T14:08:14.580252,6372760,1854,393,733,-1019,-699,-269,118,80,-100
20100,3420,0,2023-03-10T14:08:14.584769,6372764,1854,393,733,-1019,-699,-269,118,80,-100
20101,3421,0,2023-03-10T14:08:14.589981,6372769,1854,393,733,-1019,-699,-269,118,80,-100
20102,3422,0,2023-03-10T14:08:14.594420,6372774,1883,391,756,-992,-595,-274,118,80,-100
20103,3423,0,2023-03-10T14:08:14.599497,6372780,1883,391,756,-992,-595,-274,118,80,-100
20104,3424,0,2023-03-10T14:08:14.604010,6372784,1883,391,756,-992,-595,-274,118,80,-100
20105,3425,0,2023-03-10T14:08:14.608956,6372789,1883,391,756,-992,-595,-274,118,80,-100
20106,3426,0,2023-03-10T14:08:14.613561,6372793,1883,391,756,-992,-595,-274,118,80,-100
20107,3427,0,2023-03-10T14:08:14.618563,6372798,1885,394,749,-1007,-597,-304,118,80,-100
20108,3428,0,2023-03-10T14:08:14.623648,6372803,1885,394,749,-1007,-597,-304,118,80,-100
20109,3429,0,2023-03-10T14:08:14.627949,6372808,1885,394,749,-1007,-597,-304,118,80,-100
20110,3430,0,2023-03-10T14:08:14.632083,6372812,1885,394,749,-1007,-597,-304,118,80,-100
20111,3431,0,2023-03-10T14:08:14.636494,6372816,1850,390,742,-976,-675,-237,118,80,-100
20112,3432,0,2023-03-10T14:08:14.641395,6372822,1850,390,742,-976,-675,-237,118,80,-100
20113,3433,0,2023-03-10T14:08:14.646092,6372826,1850,390,742,-976,-675,-237,118,80,-100
20114,3434,0,2023-03-10T14:08:14.651035,6372831,1850,390,742,-976,-675,-237,118,80,-100
20115,3435,0,2023-03-10T14:08:14.655483,6372835,1900,408,762,-964,-601,-274,118,80,-100
20116,3436,0,2023-03-10T14:08:14.660369,6372840,1900,408,762,-964,-601,-274,118,80,-100
20117,3437,0,2023-03-10T14:08:14.664825,6372845,1900,408,762,-964,-601,-274,118,80,-100
20118,3438,0,2023-03-10T14:08:14.669988,6372850,1900,408,762,-964,-601,-274,118,80,-100
20119,3439,0,2023-03-10T14:08:14.674441,6372854,1870,394,752,-1023,-613,-282,119,81,-100
20120,3440,0,2023-03-10T14:08:14.679263,6372858,1870,394,752,-1023,-613,-282,119,81,-107
20121,3441,0,2023-03-10T14:08:14.684449,6372865,1870,394,752,-1023,-613,-282,119,81,-107
20122,3442,0,2023-03-10T14:08:14.689476,6372870,1870,394,752,-1023,-613,-282,119,81,-107
20123,3443,0,2023-03-10T14:08:14.693935,6372874,1870,394,752,-1023,-613,-282,119,81,-107
20124,3444,0,2023-03-10T14:08:14.698556,6372878,1883,392,741,-1017,-639,-285,119,81,-107
20125,3445,0,2023-03-10T14:08:14.703934,6372884,1883,392,741,-1017,-639,-285,119,81,-107
20126,3446,0,2023-03-10T14:08:14.708565,6372888,1883,392,741,-1017,-639,-285,119,81,-107
20127,3447,0,2023-03-10T14:08:14.713702,6372893,1883,392,741,-1017,-639,-285,119,81,-107
20128,3448,0,2023-03-10T14:08:14.718059,6372898,1858,383,745,-981,-689,-254,119,81,-107
20129,3449,0,2023-03-10T14:08:14.722588,6372902,1858,383,745,-981,-689,-254,119,81,-107
20130,3450,0,2023-03-10T14:08:14.727104,6372907,1858,383,745,-981,-689,-254,119,81,-107
20131,3451,0,2023-03-10T14:08:14.731814,6372912,1858,383,745,-981,-689,-254,119,81,-107
20132,3452,0,2023-03-10T14:08:14.736298,6372916,1898,407,750,-1014,-594,-292,119,81,-107
20133,3453,0,2023-03-10T14:08:14.741151,6372921,1898,407,750,-1014,-594,-292,119,81,-107
20134,3454,0,2023-03-10T14:08:14.746150,6372926,1898,407,750,-1014,-594,-292,119,81,-107
20135,3455,0,2023-03-10T14:08:14.751192,6372931,1898,407,750,-1014,-594,-292,119,81,-107
20136,3456,0,2023-03-10T14:08:14.755739,6372935,1882,397,750,-996,-627,-270,119,81,-107
20137,3457,0,2023-03-10T14:08:14.760616,6372940,1882,397,750,-996,-627,-270,119,81,-107
20138,3458,0,2023-03-10T14:08:14.765059,6372944,1882,397,750,-996,-627,-270,119,81,-107
20139,3459,0,2023-03-10T14:08:14.770100,6372950,1882,397,750,-996,-627,-270,119,81,-107
20140,3460,0,2023-03-10T14:08:14.774748,6372955,1884,396,743,-1012,-615,-284,119,81,-107
20141,3461,0,2023-03-10T14:08:14.780045,6372960,1884,396,743,-1012,-615,-284,119,81,-107
20142,3462,0,2023-03-10T14:08:14.784495,6372964,1884,396,743,-1012,-615,-284,119,81,-107
20143,3463,0,2023-03-10T14:08:14.789269,6372969,1884,396,743,-1012,-615,-284,119,81,-107
20144,3464,0,2023-03-10T14:08:14.793674,6372973,1884,396,743,-1012,-615,-284,119,81,-107
20145,3465,0,2023-03-10T14:08:14.798236,6372978,1857,380,749,-992,-629,-256,119,81,-107
20146,3466,0,2023-03-10T14:08:14.803502,6372983,1857,380,749,-992,-629,-256,119,81,-107
20147,3467,0,2023-03-10T14:08:14.807844,6372987,1857,380,749,-992,-629,-256,119,81,-107
20148,3468,0,2023-03-10T14:08:14.813039,6372993,1857,380,749,-992,-629,-256,119,81,-107
20149,3469,0,2023-03-10T14:08:14.817641,6372998,1885,398,748,-1020,-645,-290,115,83,-91
20150,3470,0,2023-03-10T14:08:14.822763,6373003,1885,398,748,-1020,-645,-290,115,83,-91
20151,3471,0,2023-03-10T14:08:14.827142,6373007,1885,398,748,-1020,-645,-290,115,83,-91
20152,3472,0,2023-03-10T14:08:14.832138,6373012,1885,398,748,-1020,-645,-290,115,83,-91
20153,3473,0,2023-03-10T14:08:14.836855,6373016,1897,404,744,-1015,-632,-280,115,83,-91
20154,3474,0,2023-03-10T14:08:14.841738,6373021,1897,404,744,-1015,-632,-280,115,83,-91
20155,3475,0,2023-03-10T14:08:14.846162,6373026,1897,404,744,-1015,-632,-280,115,83,-91
20156,3476,0,2023-03-10T14:08:14.851110,6373030,1897,404,744,-1015,-632,-280,115,83,-91
20157,3477,0,2023-03-10T14:08:14.855986,6373036,1874,390,758,-954,-621,-249,115,83,-91
20158,3478,0,2023-03-10T14:08:14.861215,6373041,1874,390,758,-954,-621,-249,115,83,-91
20159,3479,0,2023-03-10T14:08:14.865857,6373046,1874,390,758,-954,-621,-249,115,83,-91
20160,3480,0,2023-03-10T14:08:14.870902,6373051,1874,390,758,-954,-621,-249,115,83,-91
20161,3481,0,2023-03-10T14:08:14.875498,6373055,1860,388,733,-999,-682,-271,115,83,-91
20162,3482,0,2023-03-10T14:08:14.880511,6373060,1860,388,733,-999,-682,-271,115,83,-91
20163,3483,0,2023-03-10T14:08:14.885100,6373065,1860,388,733,-999,-682,-271,115,83,-91
20164,3484,0,2023-03-10T14:08:14.889900,6373069,1860,388,733,-999,-682,-271,115,83,-91
20165,3485,0,2023-03-10T14:08:14.894344,6373074,1860,388,733,-999,-682,-271,115,83,-91
20166,3486,0,2023-03-10T14:08:14.899280,6373079,1900,407,754,-1024,-610,-306,115,83,-91
20167,3487,0,2023-03-10T14:08:14.904442,6373085,1900,407,754,-1024,-610,-306,115,83,-91
20168,3488,0,2023-03-10T14:08:14.909245,6373089,1900,407,754,-1024,-610,-306,115,83,-91
20169,3489,0,2023-03-10T14:08:14.913991,6373094,1900,407,754,-1024,-610,-306,115,83,-91
20170,3490,0,2023-03-10T14:08:14.918308,6373098,1888,400,741,-1003,-641,-282,115,83,-91
20171,3491,0,2023-03-10T14:08:14.923924,6373104,1888,400,741,-1003,-641,-282,115,83,-91
20172,3492,0,2023-03-10T14:08:14.928296,6373108,1888,400,741,-1003,-641,-282,115,83,-91
20173,3493,0,2023-03-10T14:08:14.933091,6373113,1888,400,741,-1003,-641,-282,115,83,-91
20174,3494,0,2023-03-10T14:08:14.937577,6373117,1878,401,744,-1017,-619,-292,125,83,-107
20175,3495,0,2023-03-10T14:08:14.942280,6373122,1878,401,744,-1017,-619,-292,125,83,-107
20176,3496,0,2023-03-10T14:08:14.947241,6373127,1878,401,744,-1017,-619,-292,125,83,-107
20177,3497,0,2023-03-10T14:08:14.952048,6373132,1878,401,744,-1017,-619,-292,125,83,-107
20178,3498,0,2023-03-10T14:08:14.956582,6373136,1871,394,757,-989,-602,-265,125,83,-107
20179,3499,0,2023-03-10T14:08:14.961422,6373141,1871,394,757,-989,-602,-265,125,83,-107
20180,3500,0,2023-03-10T14:08:14.965933,6373146,1871,394,757,-989,-602,-265,125,83,-107
20181,3501,0,2023-03-10T14:08:14.970965,6373150,1871,394,757,-989,-602,-265,125,83,-107
20182,3502,0,2023-03-10T14:08:14.975272,6373155,1883,397,755,-964,-689,-269,125,83,-107
20183,3503,0,2023-03-10T14:08:14.980330,6373160,1883,397,755,-964,-689,-269,125,83,-107
20184,3504,0,2023-03-10T14:08:14.984787,6373165,1883,397,755,-964,-689,-269,125,83,-107
20185,3505,0,2023-03-10T14:08:14.989834,6373170,1883,397,755,-964,-689,-269,125,83,-107
20186,3506,0,2023-03-10T14:08:14.994159,6373174,1883,397,755,-964,-689,-269,125,83,-107
20187,3507,0,2023-03-10T14:08:14.998685,6373179,1884,399,737,-1027,-639,-286,125,83,-107
20188,3508,0,2023-03-10T14:08:15.003936,6373183,1884,399,737,-1027,-639,-286,125,83,-107
20189,3509,0,2023-03-10T14:08:15.008588,6373188,1884,399,737,-1027,-639,-286,125,83,-107
20190,3510,0,2023-03-10T14:08:15.013545,6373193,1884,399,737,-1027,-639,-286,125,83,-107
20191,3511,0,2023-03-10T14:08:15.018263,6373198,1879,392,735,-1012,-614,-278,125,83,-107
20192,3512,0,2023-03-10T14:08:15.023294,6373203,1879,392,735,-1012,-614,-278,125,83,-107
20193,3513,0,2023-03-10T14:08:15.027592,6373208,1879,392,735,-1012,-614,-278,125,83,-107
20194,3514,0,2023-03-10T14:08:15.032543,6373212,1879,392,735,-1012,-614,-278,125,83,-107
20195,3515,0,2023-03-10T14:08:15.036998,6373217,1876,390,744,-987,-637,-273,125,83,-107
20196,3516,0,2023-03-10T14:08:15.041910,6373222,1876,390,744,-987,-637,-273,125,83,-107
20197,3517,0,2023-03-10T14:08:15.046326,6373226,1876,390,744,-987,-637,-273,125,83,-107
20198,3518,0,2023-03-10T14:08:15.051638,6373231,1876,390,744,-987,-637,-273,125,83,-107
20199,3519,0,2023-03-10T14:08:15.056554,6373236,1883,399,746,-1025,-605,-287,110,82,-98
20200,3520,0,2023-03-10T14:08:15.062036,6373241,1883,399,746,-1025,-605,-287,110,82,-98
20201,3521,0,2023-03-10T14:08:15.067276,6373248,1883,399,746,-1025,-605,-287,110,82,-98
20202,3522,0,2023-03-10T14:08:15.071620,6373252,1883,399,746,-1025,-605,-287,110,82,-98
20203,3523,0,2023-03-10T14:08:15.076112,6373256,1857,392,749,-964,-696,-246,110,82,-98
20204,3524,0,2023-03-10T14:08:15.081364,6373261,1857,392,749,-964,-696,-246,110,82,-98
20205,3525,0,2023-03-10T14:08:15.086244,6373266,1857,392,749,-964,-696,-246,110,82,-98
20206,3526,0,2023-03-10T14:08:15.091066,6373271,1857,392,749,-964,-696,-246,110,82,-98
20207,3527,0,2023-03-10T14:08:15.095565,6373275,1857,392,749,-964,-696,-246,110,82,-98
20208,3528,0,2023-03-10T14:08:15.100159,6373280,1857,392,749,-964,-696,-246,110,82,-98
20209,3529,0,2023-03-10T14:08:15.104783,6373284,1857,392,749,-964,-696,-246,110,82,-98
20210,3530,0,2023-03-10T14:08:15.110126,6373289,1857,392,749,-964,-696,-246,110,82,-98
20211,3531,0,2023-03-10T14:08:15.114658,6373295,1857,392,749,-964,-696,-246,110,82,-98
20212,3532,0,2023-03-10T14:08:15.119113,6373299,1864,394,746,-1016,-589,-275,110,82,-98
20213,3533,0,2023-03-10T14:08:15.124028,6373304,1864,394,746,-1016,-589,-275,110,82,-98
20214,3534,0,2023-03-10T14:08:15.128254,6373308,1864,394,746,-1016,-589,-275,110,82,-98
20215,3535,0,2023-03-10T14:08:15.132781,6373313,1864,394,746,-1016,-589,-275,110,82,-98
20216,3536,0,2023-03-10T14:08:15.137157,6373317,1907,398,749,-992,-679,-292,110,82,-98
20217,3537,0,2023-03-10T14:08:15.142052,6373321,1907,398,749,-992,-679,-292,110,82,-98
20218,3538,0,2023-03-10T14:08:15.146948,6373326,1907,398,749,-992,-679,-292,110,82,-98
20219,3539,0,2023-03-10T14:08:15.151309,6373331,1907,398,749,-992,-679,-292,110,82,-98
20220,3540,0,2023-03-10T14:08:15.156244,6373336,1880,399,731,-1000,-637,-265,110,82,-98
20221,3541,0,2023-03-10T14:08:15.161483,6373342,1880,399,731,-1000,-637,-265,110,82,-98
20222,3542,0,2023-03-10T14:08:15.166355,6373346,1880,399,731,-1000,-637,-265,110,82,-98
20223,3543,0,2023-03-10T14:08:15.171574,6373351,1880,399,731,-1000,-637,-265,110,82,-98
20224,3544,0,2023-03-10T14:08:15.175995,6373356,1867,388,750,-969,-583,-246,110,82,-98
20225,3545,0,2023-03-10T14:08:15.180934,6373361,1867,388,750,-969,-583,-246,110,82,-98
20226,3546,0,2023-03-10T14:08:15.185376,6373365,1867,388,750,-969,-583,-246,110,82,-98
20227,3547,0,2023-03-10T14:08:15.190651,6373370,1867,388,750,-969,-583,-246,110,82,-98
20228,3548,0,2023-03-10T14:08:15.195046,6373374,1888,399,756,-1012,-611,-294,126,88,-106
20229,3549,0,2023-03-10T14:08:15.199839,6373380,1888,399,756,-1012,-611,-294,126,88,-106
20230,3550,0,2023-03-10T14:08:15.204831,6373385,1888,399,756,-1012,-611,-294,126,88,-106
20231,3551,0,2023-03-10T14:08:15.209270,6373389,1888,399,756,-1012,-611,-294,126,88,-106
20232,3552,0,2023-03-10T14:08:15.213828,6373394,1888,399,756,-1012,-611,-294,126,88,-106
20233,3553,0,2023-03-10T14:08:15.218361,6373398,1890,395,739,-1015,-704,-281,126,88,-106
20234,3554,0,2023-03-10T14:08:15.223176,6373403,1890,395,739,-1015,-704,-281,126,88,-106
20235,3555,0,2023-03-10T14:08:15.228141,6373408,1890,395,739,-1015,-704,-281,126,88,-106
20236,3556,0,2023-03-10T14:08:15.232866,6373412,1890,395,739,-1015,-704,-281,126,88,-106
20237,3557,0,2023-03-10T14:08:15.237626,6373417,1890,394,744,-994,-634,-270,126,88,-106
20238,3558,0,2023-03-10T14:08:15.242688,6373423,1890,394,744,-994,-634,-270,126,88,-106
20239,3559,0,2023-03-10T14:08:15.247603,6373428,1890,394,744,-994,-634,-270,126,88,-106
20240,3560,0,2023-03-10T14:08:15.252676,6373433,1890,394,744,-994,-634,-270,126,88,-106
20241,3561,0,2023-03-10T14:08:15.257147,6373437,1868,390,730,-1010,-602,-287,126,88,-106
20242,3562,0,2023-03-10T14:08:15.262064,6373442,1868,390,730,-1010,-602,-287,126,88,-106
20243,3563,0,2023-03-10T14:08:15.266564,6373446,1868,390,730,-1010,-602,-287,126,88,-106
20244,3564,0,2023-03-10T14:08:15.270927,6373451,1868,390,730,-1010,-602,-287,126,88,-106
20245,3565,0,2023-03-10T14:08:15.275425,6373455,1882,399,740,-978,-632,-268,126,88,-106
20246,3566,0,2023-03-10T14:08:15.280361,6373459,1882,399,740,-978,-632,-268,126,88,-106
20247,3567,0,2023-03-10T14:08:15.284771,6373465,1882,399,740,-978,-632,-268,126,88,-106
20248,3568,0,2023-03-10T14:08:15.289418,6373469,1882,399,740,-978,-632,-268,126,88,-106
20249,3569,0,2023-03-10T14:08:15.293727,6373474,1882,399,740,-978,-632,-268,126,88,-106
20250,3570,0,2023-03-10T14:08:15.298068,6373478,1877,391,756,-981,-608,-265,126,88,-106
20251,3571,0,2023-03-10T14:08:15.303252,6373483,1877,391,756,-981,-608,-265,126,88,-106
20252,3572,0,2023-03-10T14:08:15.307782,6373488,1877,391,756,-981,-608,-265,126,88,-106
20253,3573,0,2023-03-10T14:08:15.312350,6373492,1877,391,756,-981,-608,-265,126,88,-106
20254,3574,0,2023-03-10T14:08:15.316778,6373496,1872,395,740,-1009,-696,-284,119,91,-115
20255,3575,0,2023-03-10T14:08:15.321777,6373501,1872,395,740,-1009,-696,-284,119,91,-115
20256,3576,0,2023-03-10T14:08:15.326206,6373506,1872,395,740,-1009,-696,-284,119,91,-115
20257,3577,0,2023-03-10T14:08:15.331139,6373511,1872,395,740,-1009,-696,-284,119,91,-115
20258,3578,0,2023-03-10T14:08:15.335861,6373516,1904,398,741,-1018,-632,-290,119,91,-115
20259,3579,0,2023-03-10T14:08:15.340441,6373520,1904,398,741,-1018,-632,-290,119,91,-115
20260,3580,0,2023-03-10T14:08:15.345248,6373525,1904,398,741,-1018,-632,-290,119,91,-115
20261,3581,0,2023-03-10T14:08:15.350474,6373530,1904,398,741,-1018,-632,-290,119,91,-115
20262,3582,0,2023-03-10T14:08:15.354838,6373534,1904,398,741,-1018,-632,-290,119,91,-115
20263,3583,0,2023-03-10T14:08:15.359351,6373539,1863,387,746,-997,-585,-265,119,91,-115
20264,3584,0,2023-03-10T14:08:15.363721,6373543,1863,387,746,-997,-585,-265,119,91,-115
20265,3585,0,2023-03-10T14:08:15.368116,6373548,1863,387,746,-997,-585,-265,119,91,-115
20266,3586,0,2023-03-10T14:08:15.373114,6373553,1863,387,746,-997,-585,-265,119,91,-115
20267,3587,0,2023-03-10T14:08:15.377647,6373558,1908,409,740,-1004,-668,-306,119,91,-115
20268,3588,0,2023-03-10T14:08:15.382072,6373562,1908,409,740,-1004,-668,-306,119,91,-115
20269,3589,0,2023-03-10T14:08:15.386536,6373566,1908,409,740,-1004,-668,-306,119,91,-115
20270,3590,0,2023-03-10T14:08:15.391629,6373571,1908,409,740,-1004,-668,-306,119,91,-115
20271,3591,0,2023-03-10T14:08:15.396230,6373576,1868,389,739,-971,-645,-236,119,91,-115
20272,3592,0,2023-03-10T14:08:15.401097,6373580,1868,389,739,-971,-645,-236,119,91,-115
20273,3593,0,2023-03-10T14:08:15.405481,6373585,1868,389,739,-971,-645,-236,119,91,-115
20274,3594,0,2023-03-10T14:08:15.410481,6373591,1868,389,739,-971,-645,-236,119,91,-115
20275,3595,0,2023-03-10T14:08:15.414892,6373595,1868,389,739,-971,-645,-236,119,91,-115
20276,3596,0,2023-03-10T14:08:15.419248,6373599,1871,387,738,-998,-598,-285,119,91,-115
20277,3597,0,2023-03-10T14:08:15.424156,6373604,1871,387,738,-998,-598,-285,119,91,-115
20278,3598,0,2023-03-10T14:08:15.428531,6373608,1871,387,738,-998,-598,-285,119,91,-115
20279,3599,0,2023-03-10T14:08:15.433496,6373613,1871,387,738,-998,-598,-285,119,91,-115
20280,3600,0,2023-03-10T14:08:15.438045,6373618,1885,396,745,-1022,-624,-291,119,91,-115
20281,3601,0,2023-03-10T14:08:15.443159,6373623,1885,396,745,-1022,-624,-291,119,91,-115
20282,3602,0,2023-03-10T14:08:15.447821,6373627,1885,396,745,-1022,-624,-291,119,91,-115
20283,3603,0,2023-03-10T14:08:15.452964,6373633,1885,396,745,-1022,-624,-291,119,91,-115
20284,3604,0,2023-03-10T14:08:15.457441,6373638,1883,393,742,-998,-658,-273,124,80,-102
20285,3605,0,2023-03-10T14:08:15.462499,6373642,1883,393,742,-998,-658,-273,124,80,-102
20286,3606,0,2023-03-10T14:08:15.466968,6373647,1883,393,742,-998,-658,-273,124,80,-102
20287,3607,0,2023-03-10T14:08:15.471297,6373651,1883,393,742,-998,-658,-273,124,80,-102
20288,3608,0,2023-03-10T14:08:15.475771,6373655,1893,395,741,-1002,-608,-285,124,80,-102
20289,3609,0,2023-03-10T14:08:15.480697,6373660,1893,395,741,-1002,-608,-285,124,80,-102
20290,3610,0,2023-03-10T14:08:15.485068,6373665,1893,395,741,-1002,-608,-285,124,80,-102
20291,3611,0,2023-03-10T14:08:15.490141,6373669,1893,395,741,-1002,-608,-285,124,80,-102
20292,3612,0,2023-03-10T14:08:15.494637,6373675,1893,395,741,-1002,-608,-285,124,80,-102
20293,3613,0,2023-03-10T14:08:15.498987,6373679,1901,403,738,-993,-670,-277,124,80,-102
20294,3614,0,2023-03-10T14:08:15.504528,6373684,1901,403,738,-993,-670,-277,124,80,-102
20295,3615,0,2023-03-10T14:08:15.508973,6373689,1901,403,738,-993,-670,-277,124,80,-102
20296,3616,0,2023-03-10T14:08:15.513942,6373694,1901,403,738,-993,-670,-277,124,80,-102
20297,3617,0,2023-03-10T14:08:15.518417,6373698,1874,391,739,-960,-642,-255,124,80,-102
20298,3618,0,2023-03-10T14:08:15.523220,6373703,1874,391,739,-960,-642,-255,124,80,-102
20299,3619,0,2023-03-10T14:08:15.528476,6373708,1874,391,739,-960,-642,-255,124,80,-102
20300,3620,0,2023-03-10T14:08:15.533256,6373713,1874,391,739,-960,-642,-255,124,80,-102
20301,3621,0,2023-03-10T14:08:15.537820,6373718,1877,394,743,-1013,-583,-293,124,80,-102
20302,3622,0,2023-03-10T14:08:15.544213,6373724,1877,394,743,-1013,-583,-293,124,80,-102
20303,3623,0,2023-03-10T14:08:15.548733,6373729,1877,394,743,-1013,-583,-293,124,80,-102
20304,3624,0,2023-03-10T14:08:15.553636,6373734,1877,394,743,-1013,-583,-293,124,80,-102
20305,3625,0,2023-03-10T14:08:15.558071,6373738,1917,404,736,-1022,-658,-308,124,80,-102
20306,3626,0,2023-03-10T14:08:15.563585,6373743,1917,404,736,-1022,-658,-308,124,80,-102
20307,3627,0,2023-03-10T14:08:15.568022,6373748,1917,404,736,-1022,-658,-308,124,80,-102
20308,3628,0,2023-03-10T14:08:15.572435,6373752,1917,404,736,-1022,-658,-308,124,80,-102
20309,3629,0,2023-03-10T14:08:15.576943,6373756,1853,381,728,-998,-679,-250,121,91,-101
20310,3630,0,2023-03-10T14:08:15.581841,6373762,1853,381,728,-998,-679,-250,121,91,-101
20311,3631,0,2023-03-10T14:08:15.586219,6373766,1853,381,728,-998,-679,-250,121,91,-101
20312,3632,0,2023-03-10T14:08:15.591253,6373771,1853,381,728,-998,-679,-250,121,91,-101
20313,3633,0,2023-03-10T14:08:15.595539,6373776,1894,395,737,-1010,-590,-302,121,91,-101
20314,3634,0,2023-03-10T14:08:15.600727,6373780,1894,395,737,-1010,-590,-302,121,91,-101
20315,3635,0,2023-03-10T14:08:15.605105,6373785,1894,395,737,-1010,-590,-302,121,91,-101
20316,3636,0,2023-03-10T14:08:15.610006,6373790,1894,395,737,-1010,-590,-302,121,91,-101
20317,3637,0,2023-03-10T14:08:15.614653,6373794,1894,395,737,-1010,-590,-302,121,91,-101
20318,3638,0,2023-03-10T14:08:15.619261,6373799,1894,401,745,-978,-591,-261,121,91,-101
20319,3639,0,2023-03-10T14:08:15.624328,6373805,1894,401,745,-978,-591,-261,121,91,-101
20320,3640,0,2023-03-10T14:08:15.628970,6373809,1894,401,745,-978,-591,-261,121,91,-101
20321,3641,0,2023-03-10T14:08:15.633420,6373813,1894,401,745,-978,-591,-261,121,91,-101
20322,3642,0,2023-03-10T14:08:15.638245,6373818,1882,396,740,-978,-629,-261,121,91,-101
20323,3643,0,2023-03-10T14:08:15.643138,6373823,1882,396,740,-978,-629,-261,121,91,-101
20324,3644,0,2023-03-10T14:08:15.647659,6373827,1882,396,740,-978,-629,-261,121,91,-101
20325,3645,0,2023-03-10T14:08:15.652503,6373832,1882,396,740,-978,-629,-261,121,91,-101
20326,3646,0,2023-03-10T14:08:15.657179,6373837,1882,394,733,-1023,-627,-291,121,91,-101
20327,3647,0,2023-03-10T14:08:15.662191,6373841,1882,394,733,-1023,-627,-291,121,91,-101
20328,3648,0,2023-03-10T14:08:15.666635,6373847,1882,394,733,-1023,-627,-291,121,91,-101
20329,3649,0,2023-03-10T14:08:15.671343,6373851,1882,394,733,-1023,-627,-291,121,91,-101
20330,3650,0,2023-03-10T14:08:15.676805,6373857,1905,393,729,-1011,-653,-282,121,91,-101
20331,3651,0,2023-03-10T14:08:15.682169,6373862,1905,393,729,-1011,-653,-282,121,91,-101
20332,3652,0,2023-03-10T14:08:15.686841,6373867,1905,393,729,-1011,-653,-282,121,91,-101
20333,3653,0,2023-03-10T14:08:15.691882,6373871,1905,393,729,-1011,-653,-282,121,91,-101
20334,3654,0,2023-03-10T14:08:15.696278,6373876,1865,386,722,-988,-687,-254,125,85,-105
20335,3655,0,2023-03-10T14:08:15.701362,6373881,1865,386,722,-988,-687,-254,125,85,-105
20336,3656,0,2023-03-10T14:08:15.705856,6373885,1865,386,722,-988,-687,-254,125,85,-105
20337,3657,0,2023-03-10T14:08:15.710759,6373891,1865,386,722,-988,-687,-254,125,85,-105
20338,3658,0,2023-03-10T14:08:15.715236,6373895,1865,386,722,-988,-687,-254,125,85,-105
20339,3659,0,2023-03-10T14:08:15.719643,6373900,1900,404,740,-1005,-586,-287,125,85,-105
20340,3660,0,2023-03-10T14:08:15.725077,6373905,1900,404,740,-1005,-586,-287,125,85,-105
20341,3661,0,2023-03-10T14:08:15.730190,6373910,1900,404,740,-1005,-586,-287,125,85,-105
20342,3662,0,2023-03-10T14:08:15.734822,6373914,1900,404,740,-1005,-586,-287,125,85,-105
20343,3663,0,2023-03-10T14:08:15.739356,6373919,1880,391,743,-969,-592,-256,125,85,-105
20344,3664,0,2023-03-10T14:08:15.745174,6373925,1880,391,743,-969,-592,-256,125,85,-105
20345,3665,0,2023-03-10T14:08:15.750258,6373929,1880,391,743,-969,-592,-256,125,85,-105
20346,3666,0,2023-03-10T14:08:15.754712,6373935,1880,391,743,-969,-592,-256,125,85,-105
20347,3667,0,2023-03-10T14:08:15.759161,6373939,1861,387,737,-992,-681,-261,125,85,-105
20348,3668,0,2023-03-10T14:08:15.763998,6373944,1861,387,737,-992,-681,-261,125,85,-105
20349,3669,0,2023-03-10T14:08:15.768670,6373948,1861,387,737,-992,-681,-261,125,85,-105
20350,3670,0,2023-03-10T14:08:15.774125,6373954,1861,387,737,-992,-681,-261,125,85,-105
20351,3671,0,2023-03-10T14:08:15.778643,6373958,1909,400,736,-1034,-629,-298,125,85,-105
20352,3672,0,2023-03-10T14:08:15.783581,6373963,1909,400,736,-1034,-629,-298,125,85,-105
20353,3673,0,2023-03-10T14:08:15.787906,6373967,1909,400,736,-1034,-629,-298,125,85,-105
20354,3674,0,2023-03-10T14:08:15.792544,6373972,1909,400,736,-1034,-629,-298,125,85,-105
20355,3675,0,2023-03-10T14:08:15.797097,6373977,1878,391,731,-1001,-613,-267,125,85,-105
20356,3676,0,2023-03-10T14:08:15.802202,6373982,1878,391,731,-1001,-613,-267,125,85,-105
20357,3677,0,2023-03-10T14:08:15.807119,6373987,1878,391,731,-1001,-613,-267,125,85,-105
20358,3678,0,2023-03-10T14:08:15.812092,6373992,1878,391,731,-1001,-613,-267,125,85,-105
20359,3679,0,2023-03-10T14:08:15.816984,6373996,1889,386,733,-1000,-624,-280,125,85,-105
20360,3680,0,2023-03-10T14:08:15.821831,6374002,1889,386,733,-1000,-624,-280,125,85,-105
20361,3681,0,2023-03-10T14:08:15.826478,6374006,1889,386,733,-1000,-624,-280,125,85,-105
20362,3682,0,2023-03-10T14:08:15.831584,6374011,1889,386,733,-1000,-624,-280,125,85,-105
20363,3683,0,2023-03-10T14:08:15.836183,6374016,1870,392,728,-996,-681,-275,115,89,-107
20364,3684,0,2023-03-10T14:08:15.841785,6374022,1870,392,728,-996,-681,-275,115,89,-107
20365,3685,0,2023-03-10T14:08:15.846161,6374026,1870,392,728,-996,-681,-275,115,89,-107
20366,3686,0,2023-03-10T14:08:15.851255,6374031,1870,392,728,-996,-681,-275,115,89,-107
20367,3687,0,2023-03-10T14:08:15.855816,6374036,1901,398,746,-989,-600,-285,115,89,-107
20368,3688,0,2023-03-10T14:08:15.861259,6374041,1901,398,746,-989,-600,-285,115,89,-107
20369,3689,0,2023-03-10T14:08:15.866198,6374046,1901,398,746,-989,-600,-285,115,89,-107
20370,3690,0,2023-03-10T14:08:15.870850,6374050,1901,398,746,-989,-600,-285,115,89,-107
20371,3691,0,2023-03-10T14:08:15.875292,6374055,1901,398,746,-989,-600,-285,115,89,-107
20372,3692,0,2023-03-10T14:08:15.879928,6374060,1891,398,736,-1010,-613,-292,115,89,-107
20373,3693,0,2023-03-10T14:08:15.885483,6374066,1891,398,736,-1010,-613,-292,115,89,-107
20374,3694,0,2023-03-10T14:08:15.890026,6374070,1891,398,736,-1010,-613,-292,115,89,-107
20375,3695,0,2023-03-10T14:08:15.894660,6374074,1891,398,736,-1010,-613,-292,115,89,-107
20376,3696,0,2023-03-10T14:08:15.899400,6374079,1888,386,732,-1008,-632,-282,115,89,-107
20377,3697,0,2023-03-10T14:08:15.904417,6374084,1888,386,732,-1008,-632,-282,115,89,-107
20378,3698,0,2023-03-10T14:08:15.909030,6374089,1888,386,732,-1008,-632,-282,115,89,-107
20379,3699,0,2023-03-10T14:08:15.914013,6374094,1888,386,732,-1008,-632,-282,115,89,-107
20380,3700,0,2023-03-10T14:08:15.918410,6374098,1874,383,734,-995,-631,-279,115,89,-107
20381,3701,0,2023-03-10T14:08:15.923481,6374104,1874,383,734,-995,-631,-279,115,89,-107
20382,3702,0,2023-03-10T14:08:15.927977,6374108,1874,383,734,-995,-631,-279,115,89,-107
20383,3703,0,2023-03-10T14:08:15.932342,6374112,1874,383,734,-995,-631,-279,115,89,-107
20384,3704,0,2023-03-10T14:08:15.936739,6374117,1897,397,731,-994,-624,-283,115,89,-107
20385,3705,0,2023-03-10T14:08:15.941259,6374121,1897,397,731,-994,-624,-283,115,89,-107
20386,3706,0,2023-03-10T14:08:15.945639,6374125,1897,397,731,-994,-624,-283,115,89,-107
20387,3707,0,2023-03-10T14:08:15.950148,6374130,1897,397,731,-994,-624,-283,115,89,-107
20388,3708,0,2023-03-10T14:08:15.954753,6374134,1897,397,731,-994,-624,-283,115,89,-107
20389,3709,0,2023-03-10T14:08:15.959361,6374139,1904,398,733,-1000,-663,-277,119,81,-103
20390,3710,0,2023-03-10T14:08:15.964138,6374145,1904,398,733,-1000,-663,-277,119,81,-103
20391,3711,0,2023-03-10T14:08:15.968627,6374149,1904,398,733,-1000,-663,-277,119,81,-103
20392,3712,0,2023-03-10T14:08:15.973203,6374153,1904,398,733,-1000,-663,-277,119,81,-103
20393,3713,0,2023-03-10T14:08:15.977758,6374158,1872,393,718,-1001,-650,-274,119,81,-103
20394,3714,0,2023-03-10T14:08:15.982661,6374162,1872,393,718,-1001,-650,-274,119,81,-103
20395,3715,0,2023-03-10T14:08:15.987132,6374167,1872,393,718,-1001,-650,-274,119,81,-103
20396,3716,0,2023-03-10T14:08:15.991925,6374172,1872,393,718,-1001,-650,-274,119,81,-103
20397,3717,0,2023-03-10T14:08:15.996492,6374176,1887,392,748,-983,-589,-262,119,81,-103
20398,3718,0,2023-03-10T14:08:16.001719,6374181,1887,392,748,-983,-589,-262,119,81,-103
20399,3719,0,2023-03-10T14:08:16.006888,6374187,1887,392,748,-983,-589,-262,119,81,-103
20400,3720,0,2023-03-10T14:08:16.012197,6374192,1887,392,748,-983,-589,-262,119,81,-103
20401,3721,0,2023-03-10T14:08:16.016625,6374197,1889,395,742,-977,-661,-276,119,81,-103
20402,3722,0,2023-03-10T14:08:16.021513,6374202,1889,395,742,-977,-661,-276,119,81,-103
20403,3723,0,2023-03-10T14:08:16.026119,6374206,1889,395,742,-977,-661,-276,119,81,-103
20404,3724,0,2023-03-10T14:08:16.030899,6374211,1889,395,742,-977,-661,-276,119,81,-103
20405,3725,0,2023-03-10T14:08:16.035296,6374215,1889,395,742,-977,-661,-276,119,81,-103
20406,3726,0,2023-03-10T14:08:16.039846,6374219,1889,393,733,-1024,-612,-275,119,81,-103
20407,3727,0,2023-03-10T14:08:16.044953,6374224,1889,393,733,-1024,-612,-275,119,81,-103
20408,3728,0,2023-03-10T14:08:16.049559,6374230,1889,393,733,-1024,-612,-275,119,81,-103
20409,3729,0,2023-03-10T14:08:16.054100,6374234,1889,393,733,-1024,-612,-275,119,81,-103
20410,3730,0,2023-03-10T14:08:16.058464,6374239,1906,395,731,-993,-677,-282,119,81,-103
20411,3731,0,2023-03-10T14:08:16.063118,6374243,1906,395,731,-993,-677,-282,119,81,-103
20412,3732,0,2023-03-10T14:08:16.067597,6374248,1906,395,731,-993,-677,-282,119,81,-103
20413,3733,0,2023-03-10T14:08:16.072762,6374252,1906,395,731,-993,-677,-282,119,81,-103
20414,3734,0,2023-03-10T14:08:16.077320,6374257,1883,400,721,-994,-643,-270,119,81,-103
20415,3735,0,2023-03-10T14:08:16.082169,6374262,1883,400,721,-994,-643,-270,119,81,-103
20416,3736,0,2023-03-10T14:08:16.086732,6374266,1883,400,721,-994,-643,-270,119,81,-103
20417,3737,0,2023-03-10T14:08:16.091437,6374272,1883,400,721,-994,-643,-270,119,81,-103
20418,3738,0,2023-03-10T14:08:16.096051,6374276,1883,400,721,-994,-643,-270,119,81,-103
20419,3739,0,2023-03-10T14:08:16.100350,6374281,1879,387,737,-978,-582,-237,125,87,-107
20420,3740,0,2023-03-10T14:08:16.105220,6374285,1879,387,737,-978,-582,-237,125,87,-107
20421,3741,0,2023-03-10T14:08:16.110046,6374290,1879,387,737,-978,-582,-237,125,87,-107
20422,3742,0,2023-03-10T14:08:16.114518,6374294,1879,387,737,-978,-582,-237,125,87,-107
20423,3743,0,2023-03-10T14:08:16.118994,6374299,1914,406,747,-990,-617,-302,125,87,-107
20424,3744,0,2023-03-10T14:08:16.124013,6374304,1914,406,747,-990,-617,-302,125,87,-107
20425,3745,0,2023-03-10T14:08:16.128517,6374308,1914,406,747,-990,-617,-302,125,87,-107
20426,3746,0,2023-03-10T14:08:16.133781,6374313,1914,406,747,-990,-617,-302,125,87,-107
20427,3747,0,2023-03-10T14:08:16.138331,6374318,1854,378,710,-1023,-681,-249,125,87,-107
20428,3748,0,2023-03-10T14:08:16.143264,6374323,1854,378,710,-1023,-681,-249,125,87,-107
20429,3749,0,2023-03-10T14:08:16.147633,6374328,1854,378,710,-1023,-681,-249,125,87,-107
20430,3750,0,2023-03-10T14:08:16.152455,6374332,1854,378,710,-1023,-681,-249,125,87,-107
20431,3751,0,2023-03-10T14:08:16.157404,6374337,1902,390,729,-998,-598,-297,125,87,-107
20432,3752,0,2023-03-10T14:08:16.162083,6374342,1902,390,729,-998,-598,-297,125,87,-107
20433,3753,0,2023-03-10T14:08:16.166997,6374347,1902,390,729,-998,-598,-297,125,87,-107
20434,3754,0,2023-03-10T14:08:16.171341,6374351,1902,390,729,-998,-598,-297,125,87,-107
20435,3755,0,2023-03-10T14:08:16.175768,6374355,1902,390,729,-998,-598,-297,125,87,-107
20436,3756,0,2023-03-10T14:08:16.180239,6374360,1897,395,732,-1004,-619,-270,125,87,-107
20437,3757,0,2023-03-10T14:08:16.185333,6374365,1897,395,732,-1004,-619,-270,125,87,-107
20438,3758,0,2023-03-10T14:08:16.190515,6374371,1897,395,732,-1004,-619,-270,125,87,-107
20439,3759,0,2023-03-10T14:08:16.195098,6374375,1897,395,732,-1004,-619,-270,125,87,-107
20440,3760,0,2023-03-10T14:08:16.199720,6374379,1897,395,732,-1004,-619,-270,125,87,-107
20441,3761,0,2023-03-10T14:08:16.204841,6374384,1897,395,732,-1004,-619,-270,125,87,-107
20442,3762,0,2023-03-10T14:08:16.209310,6374389,1897,395,732,-1004,-619,-270,125,87,-107
20443,3763,0,2023-03-10T14:08:16.214378,6374394,1897,395,732,-1004,-619,-270,125,87,-107
20444,3764,0,2023-03-10T14:08:16.219401,6374400,1893,397,733,-998,-626,-277,122,78,-110
20445,3765,0,2023-03-10T14:08:16.224338,6374405,1893,397,733,-998,-626,-277,122,78,-110
20446,3766,0,2023-03-10T14:08:16.228926,6374409,1893,397,733,-998,-626,-277,122,78,-110
20447,3767,0,2023-03-10T14:08:16.234116,6374414,1893,397,733,-998,-626,-277,122,78,-110
20448,3768,0,2023-03-10T14:08:16.238720,6374419,1888,389,726,-1003,-622,-283,122,78,-110
20449,3769,0,2023-03-10T14:08:16.243774,6374423,1888,389,726,-1003,-622,-283,122,78,-110
20450,3770,0,2023-03-10T14:08:16.248075,6374428,1888,389,726,-1003,-622,-283,122,78,-110
20451,3771,0,2023-03-10T14:08:16.253162,6374433,1888,389,726,-1003,-622,-283,122,78,-110
20452,3772,0,2023-03-10T14:08:16.257834,6374437,1891,397,726,-982,-631,-263,122,78,-110
20453,3773,0,2023-03-10T14:08:16.262846,6374443,1891,397,726,-982,-631,-263,122,78,-110
20454,3774,0,2023-03-10T14:08:16.267252,6374448,1891,397,726,-982,-631,-263,122,78,-110
20455,3775,0,2023-03-10T14:08:16.272062,6374452,1891,397,726,-982,-631,-263,122,78,-110
20456,3776,0,2023-03-10T14:08:16.276496,6374456,1904,394,730,-970,-638,-250,122,78,-110
20457,3777,0,2023-03-10T14:08:16.281518,6374461,1904,394,730,-970,-638,-250,122,78,-110
20458,3778,0,2023-03-10T14:08:16.285930,6374466,1904,394,730,-970,-638,-250,122,78,-110
20459,3779,0,2023-03-10T14:08:16.291045,6374471,1904,394,730,-970,-638,-250,122,78,-110
20460,3780,0,2023-03-10T14:08:16.295635,6374475,1904,394,730,-970,-638,-250,122,78,-110
20461,3781,0,2023-03-10T14:08:16.299952,6374480,1881,394,721,-1006,-628,-284,122,78,-110
20462,3782,0,2023-03-10T14:08:16.304820,6374484,1881,394,721,-1006,-628,-284,122,78,-110
20463,3783,0,2023-03-10T14:08:16.309760,6374490,1881,394,721,-1006,-628,-284,122,78,-110
20464,3784,0,2023-03-10T14:08:16.314125,6374494,1881,394,721,-1006,-628,-284,122,78,-110
20465,3785,0,2023-03-10T14:08:16.318629,6374498,1912,398,720,-1012,-645,-289,122,78,-110
20466,3786,0,2023-03-10T14:08:16.323729,6374504,1912,398,720,-1012,-645,-289,122,78,-110
20467,3787,0,2023-03-10T14:08:16.328918,6374509,1912,398,720,-1012,-645,-289,122,78,-110
20468,3788,0,2023-03-10T14:08:16.334008,6374514,1912,398,720,-1012,-645,-289,122,78,-110
20469,3789,0,2023-03-10T14:08:16.338411,6374518,1867,387,719,-981,-683,-264,122,78,-110
20470,3790,0,2023-03-10T14:08:16.342838,6374522,1867,387,719,-981,-683,-264,122,78,-110
20471,3791,0,2023-03-10T14:08:16.347183,6374528,1867,387,719,-981,-683,-264,122,78,-110
20472,3792,0,2023-03-10T14:08:16.352302,6374532,1867,387,719,-981,-683,-264,122,78,-110
20473,3793,0,2023-03-10T14:08:16.356869,6374537,1905,401,733,-1020,-598,-298,113,77,-109
20474,3794,0,2023-03-10T14:08:16.361934,6374542,1905,401,733,-1020,-598,-298,113,77,-109
20475,3795,0,2023-03-10T14:08:16.366361,6374546,1905,401,733,-1020,-598,-298,113,77,-109
20476,3796,0,2023-03-10T14:08:16.371276,6374551,1905,401,733,-1020,-598,-298,113,77,-109
20477,3797,0,2023-03-10T14:08:16.375657,6374555,1905,401,733,-1020,-598,-298,113,77,-109
20478,3798,0,2023-03-10T14:08:16.380036,6374560,1887,387,737,-982,-592,-256,113,77,-109
20479,3799,0,2023-03-10T14:08:16.384529,6374564,1887,387,737,-982,-592,-256,113,77,-109
20480,3800,0,2023-03-10T14:08:16.388911,6374568,1887,387,737,-982,-592,-256,113,77,-109
20481,3801,0,2023-03-10T14:08:16.393760,6374574,1887,387,737,-982,-592,-256,113,77,-109
20482,3802,0,2023-03-10T14:08:16.398200,6374578,1869,384,738,-975,-668,-251,113,77,-109
20483,3803,0,2023-03-10T14:08:16.403152,6374583,1869,384,738,-975,-668,-251,113,77,-109
20484,3804,0,2023-03-10T14:08:16.407536,6374588,1869,384,738,-975,-668,-251,113,77,-109
20485,3805,0,2023-03-10T14:08:16.412590,6374592,1869,384,738,-975,-668,-251,113,77,-109
20486,3806,0,2023-03-10T14:08:16.417162,6374597,1920,397,727,-1021,-620,-299,113,77,-109
20487,3807,0,2023-03-10T14:08:16.422097,6374602,1920,397,727,-1021,-620,-299,113,77,-109
20488,3808,0,2023-03-10T14:08:16.426475,6374606,1920,397,727,-1021,-620,-299,113,77,-109
20489,3809,0,2023-03-10T14:08:16.431322,6374611,1920,397,727,-1021,-620,-299,113,77,-109
20490,3810,0,2023-03-10T14:08:16.435639,6374616,1920,397,727,-1021,-620,-299,113,77,-109
20491,3811,0,2023-03-10T14:08:16.440353,6374620,1892,389,720,-996,-615,-276,113,77,-109
20492,3812,0,2023-03-10T14:08:16.445800,6374626,1892,389,720,-996,-615,-276,113,77,-109
20493,3813,0,2023-03-10T14:08:16.450895,6374631,1892,389,720,-996,-615,-276,113,77,-109
20494,3814,0,2023-03-10T14:08:16.455604,6374635,1892,389,720,-996,-615,-276,113,77,-109
20495,3815,0,2023-03-10T14:08:16.460221,6374640,1892,389,721,-1002,-622,-276,113,77,-109
20496,3816,0,2023-03-10T14:08:16.465196,6374645,1892,389,721,-1002,-622,-276,113,77,-109
20497,3817,0,2023-03-10T14:08:16.470110,6374650,1892,389,721,-1002,-622,-276,113,77,-109
20498,3818,0,2023-03-10T14:08:16.474435,6374654,1892,389,721,-1002,-622,-276,113,77,-109
20499,3819,0,2023-03-10T14:08:16.478982,6374659,1879,388,734,-1010,-617,-281,116,76,-100
20500,3820,0,2023-03-10T14:08:16.483776,6374664,1879,388,734,-1010,-617,-281,116,76,-100
20501,3821,0,2023-03-10T14:08:16.488199,6374668,1879,388,734,-1010,-617,-281,116,76,-100
20502,3822,0,2023-03-10T14:08:16.492933,6374673,1879,388,734,-1010,-617,-281,116,76,-100
20503,3823,0,2023-03-10T14:08:16.497681,6374677,1895,394,739,-976,-637,-264,116,76,-100
20504,3824,0,2023-03-10T14:08:16.502795,6374682,1895,394,739,-976,-637,-264,116,76,-100
20505,3825,0,2023-03-10T14:08:16.507253,6374687,1895,394,739,-976,-637,-264,116,76,-100
20506,3826,0,2023-03-10T14:08:16.511645,6374691,1895,394,739,-976,-637,-264,116,76,-100
20507,3827,0,2023-03-10T14:08:16.516046,6374695,1895,394,739,-976,-637,-264,116,76,-100
20508,3828,0,2023-03-10T14:08:16.520742,6374701,1899,400,733,-1006,-635,-287,116,76,-100
20509,3829,0,2023-03-10T14:08:16.525842,6374706,1899,400,733,-1006,-635,-287,116,76,-100
20510,3830,0,2023-03-10T14:08:16.530867,6374711,1899,400,733,-1006,-635,-287,116,76,-100
20511,3831,0,2023-03-10T14:08:16.535502,6374715,1899,400,733,-1006,-635,-287,116,76,-100
20512,3832,0,2023-03-10T14:08:16.539902,6374720,1883,382,723,-1028,-631,-270,116,76,-100
20513,3833,0,2023-03-10T14:08:16.545377,6374725,1883,382,723,-1028,-631,-270,116,76,-100
20514,3834,0,2023-03-10T14:08:16.551286,6374731,1883,382,723,-1028,-631,-270,116,76,-100
20515,3835,0,2023-03-10T14:08:16.555843,6374735,1883,382,723,-1028,-631,-270,116,76,-100
20516,3836,0,2023-03-10T14:08:16.560293,6374740,1882,387,722,-991,-673,-280,116,76,-100
20517,3837,0,2023-03-10T14:08:16.565530,6374746,1882,387,722,-991,-673,-280,116,76,-100
20518,3838,0,2023-03-10T14:08:16.570626,6374751,1882,387,722,-991,-673,-280,116,76,-100
20519,3839,0,2023-03-10T14:08:16.575117,6374755,1882,387,722,-991,-673,-280,116,76,-100
20520,3840,0,2023-03-10T14:08:16.579450,6374759,1911,399,719,-991,-601,-270,116,76,-100
20521,3841,0,2023-03-10T14:08:16.584121,6374764,1911,399,719,-991,-601,-270,116,76,-100
20522,3842,0,2023-03-10T14:08:16.588651,6374768,1911,399,719,-991,-601,-270,116,76,-100
20523,3843,0,2023-03-10T14:08:16.593824,6374773,1911,399,719,-991,-601,-270,116,76,-100
20524,3844,0,2023-03-10T14:08:16.598634,6374778,1899,392,730,-973,-642,-275,113,83,-103
20525,3845,0,2023-03-10T14:08:16.603442,6374784,1899,392,730,-973,-642,-275,113,83,-103
20526,3846,0,2023-03-10T14:08:16.608307,6374788,1899,392,730,-973,-642,-275,113,83,-103
20527,3847,0,2023-03-10T14:08:16.612934,6374793,1899,392,730,-973,-642,-275,113,83,-103
20528,3848,0,2023-03-10T14:08:16.617359,6374797,1876,392,712,-1014,-656,-280,113,83,-103
20529,3849,0,2023-03-10T14:08:16.622379,6374802,1876,392,712,-1014,-656,-280,113,83,-103
20530,3850,0,2023-03-10T14:08:16.627268,6374807,1876,392,712,-1014,-656,-280,113,83,-103
20531,3851,0,2023-03-10T14:08:16.631858,6374811,1876,392,712,-1014,-656,-280,113,83,-103
20532,3852,0,2023-03-10T14:08:16.636211,6374816,1876,392,712,-1014,-656,-280,113,83,-103
20533,3853,0,2023-03-10T14:08:16.641096,6374820,1895,385,729,-1005,-588,-274,113,83,-103
20534,3854,0,2023-03-10T14:08:16.645970,6374825,1895,385,729,-1005,-588,-274,113,83,-103
20535,3855,0,2023-03-10T14:08:16.650494,6374831,1895,385,729,-1005,-588,-274,113,83,-103
20536,3856,0,2023-03-10T14:08:16.655112,6374835,1895,385,729,-1005,-588,-274,113,83,-103
20537,3857,0,2023-03-10T14:08:16.659666,6374840,1898,398,736,-995,-616,-288,113,83,-103
20538,3858,0,2023-03-10T14:08:16.665162,6374845,1898,398,736,-995,-616,-288,113,83,-103
20539,3859,0,2023-03-10T14:08:16.670121,6374850,1898,398,736,-995,-616,-288,113,83,-103
20540,3860,0,2023-03-10T14:08:16.674684,6374854,1898,398,736,-995,-616,-288,113,83,-103
20541,3861,0,2023-03-10T14:08:16.678996,6374859,1905,391,722,-1015,-649,-267,113,83,-103
20542,3862,0,2023-03-10T14:08:16.684359,6374864,1905,391,722,-1015,-649,-267,113,83,-103
20543,3863,0,2023-03-10T14:08:16.688735,6374868,1905,391,722,-1015,-649,-267,113,83,-103
20544,3864,0,2023-03-10T14:08:16.693154,6374874,1905,391,722,-1015,-649,-267,113,83,-103
20545,3865,0,2023-03-10T14:08:16.697700,6374878,1891,390,718,-991,-633,-279,113,83,-103
20546,3866,0,2023-03-10T14:08:16.703273,6374883,1891,390,718,-991,-633,-279,113,83,-103
20547,3867,0,2023-03-10T14:08:16.708052,6374888,1891,390,718,-991,-633,-279,113,83,-103
20548,3868,0,2023-03-10T14:08:16.713021,6374893,1891,390,718,-991,-633,-279,113,83,-103
20549,3869,0,2023-03-10T14:08:16.717495,6374897,1883,388,723,-1011,-607,-279,113,83,-103
20550,3870,0,2023-03-10T14:08:16.722560,6374902,1883,388,723,-1011,-607,-279,113,83,-103
20551,3871,0,2023-03-10T14:08:16.727554,6374907,1883,388,723,-1011,-607,-279,113,83,-103
20552,3872,0,2023-03-10T14:08:16.732734,6374913,1883,388,723,-1011,-607,-279,113,83,-103
20553,3873,0,2023-03-10T14:08:16.737271,6374917,1900,396,730,-982,-649,-280,122,86,-102
20554,3874,0,2023-03-10T14:08:16.742825,6374923,1900,396,730,-982,-649,-280,122,86,-102
20555,3875,0,2023-03-10T14:08:16.747241,6374927,1900,396,730,-982,-649,-280,122,86,-102
20556,3876,0,2023-03-10T14:08:16.751877,6374932,1900,396,730,-982,-649,-280,122,86,-102
20557,3877,0,2023-03-10T14:08:16.756528,6374936,1900,396,730,-982,-649,-280,122,86,-102
20558,3878,0,2023-03-10T14:08:16.760778,6374941,1898,397,733,-1013,-608,-276,122,86,-102
20559,3879,0,2023-03-10T14:08:16.765860,6374945,1898,397,733,-1013,-608,-276,122,86,-102
20560,3880,0,2023-03-10T14:08:16.770829,6374950,1898,397,733,-1013,-608,-276,122,86,-102
20561,3881,0,2023-03-10T14:08:16.775357,6374956,1898,397,733,-1013,-608,-276,122,86,-102
20562,3882,0,2023-03-10T14:08:16.779698,6374960,1909,393,726,-1003,-685,-284,122,86,-102
20563,3883,0,2023-03-10T14:08:16.784584,6374964,1909,393,726,-1003,-685,-284,122,86,-102
20564,3884,0,2023-03-10T14:08:16.789034,6374969,1909,393,726,-1003,-685,-284,122,86,-102
20565,3885,0,2023-03-10T14:08:16.794158,6374974,1909,393,726,-1003,-685,-284,122,86,-102
20566,3886,0,2023-03-10T14:08:16.798740,6374978,1897,394,716,-1003,-645,-278,122,86,-102
20567,3887,0,2023-03-10T14:08:16.804058,6374984,1897,394,716,-1003,-645,-278,122,86,-102
20568,3888,0,2023-03-10T14:08:16.808318,6374988,1897,394,716,-1003,-645,-278,122,86,-102
20569,3889,0,2023-03-10T14:08:16.813123,6374993,1897,394,716,-1003,-645,-278,122,86,-102
20570,3890,0,2023-03-10T14:08:16.817631,6374998,1881,379,726,-982,-586,-230,122,86,-102
20571,3891,0,2023-03-10T14:08:16.822594,6375003,1881,379,726,-982,-586,-230,122,86,-102
20572,3892,0,2023-03-10T14:08:16.827058,6375007,1881,379,726,-982,-586,-230,122,86,-102
20573,3893,0,2023-03-10T14:08:16.832026,6375012,1881,379,726,-982,-586,-230,122,86,-102
20574,3894,0,2023-03-10T14:08:16.836286,6375016,1881,379,726,-982,-586,-230,122,86,-102
20575,3895,0,2023-03-10T14:08:16.840844,6375021,1927,402,733,-990,-639,-308,122,86,-102
20576,3896,0,2023-03-10T14:08:16.845917,6375026,1927,402,733,-990,-639,-308,122,86,-102
20577,3897,0,2023-03-10T14:08:16.850402,6375030,1927,402,733,-990,-639,-308,122,86,-102
20578,3898,0,2023-03-10T14:08:16.854950,6375034,1927,402,733,-990,-639,-308,122,86,-102
20579,3899,0,2023-03-10T14:08:16.859398,6375040,1864,380,703,-1024,-667,-256,122,84,-102
20580,3900,0,2023-03-10T14:08:16.864187,6375044,1864,380,703,-1024,-667,-256,122,84,-102
20581,3901,0,2023-03-10T14:08:16.869248,6375049,1864,380,703,-1024,-667,-256,122,84,-102
20582,3902,0,2023-03-10T14:08:16.873885,6375054,1864,380,703,-1024,-667,-256,122,84,-102
20583,3903,0,2023-03-10T14:08:16.878761,6375059,1905,392,729,-991,-589,-305,122,84,-102
20584,3904,0,2023-03-10T14:08:16.883574,6375064,1905,392,729,-991,-589,-305,122,84,-102
20585,3905,0,2023-03-10T14:08:16.888516,6375068,1905,392,729,-991,-589,-305,122,84,-102
20586,3906,0,2023-03-10T14:08:16.893762,6375073,1905,392,729,-991,-589,-305,122,84,-102
20587,3907,0,2023-03-10T14:08:16.898352,6375078,1905,399,726,-1002,-606,-282,122,84,-102
20588,3908,0,2023-03-10T14:08:16.903735,6375084,1905,399,726,-1002,-606,-282,122,84,-102
20589,3909,0,2023-03-10T14:08:16.908332,6375088,1905,399,726,-1002,-606,-282,122,84,-102
20590,3910,0,2023-03-10T14:08:16.912685,6375093,1905,399,726,-1002,-606,-282,122,84,-102
20591,3911,0,2023-03-10T14:08:16.917193,6375097,1905,399,726,-1002,-606,-282,122,84,-102
20592,3912,0,2023-03-10T14:08:16.921561,6375101,1905,393,720,-998,-632,-272,122,84,-102
20593,3913,0,2023-03-10T14:08:16.926646,6375106,1905,393,720,-998,-632,-272,122,84,-102
20594,3914,0,2023-03-10T14:08:16.931726,6375111,1905,393,720,-998,-632,-272,122,84,-102
20595,3915,0,2023-03-10T14:08:16.936323,6375116,1905,393,720,-998,-632,-272,122,84,-102
20596,3916,0,2023-03-10T14:08:16.941092,6375121,1905,393,720,-998,-632,-272,122,84,-102
20597,3917,0,2023-03-10T14:08:16.945470,6375126,1905,393,720,-998,-632,-272,122,84,-102
20598,3918,0,2023-03-10T14:08:16.950549,6375131,1905,393,720,-998,-632,-272,122,84,-102
20599,3919,0,2023-03-10T14:08:16.955067,6375135,1905,393,720,-998,-632,-272,122,84,-102
20600,3920,0,2023-03-10T14:08:16.959540,6375140,1916,395,727,-1003,-649,-291,122,84,-102
20601,3921,0,2023-03-10T14:08:16.964773,6375145,1916,395,727,-1003,-649,-291,122,84,-102
20602,3922,0,2023-03-10T14:08:16.969196,6375149,1916,395,727,-1003,-649,-291,122,84,-102
20603,3923,0,2023-03-10T14:08:16.974127,6375154,1916,395,727,-1003,-649,-291,122,84,-102
20604,3924,0,2023-03-10T14:08:16.978928,6375158,1873,389,705,-985,-692,-258,122,84,-102
20605,3925,0,2023-03-10T14:08:16.984249,6375164,1873,389,705,-985,-692,-258,122,84,-102
20606,3926,0,2023-03-10T14:08:16.988627,6375169,1873,389,705,-985,-692,-258,122,84,-102
20607,3927,0,2023-03-10T14:08:16.993562,6375174,1873,389,705,-985,-692,-258,122,84,-102
20608,3928,0,2023-03-10T14:08:16.998106,6375178,1908,398,723,-1007,-592,-284,130,82,-112
20609,3929,0,2023-03-10T14:08:17.003163,6375183,1908,398,723,-1007,-592,-284,130,82,-112
20610,3930,0,2023-03-10T14:08:17.007514,6375187,1908,398,723,-1007,-592,-284,130,82,-112
20611,3931,0,2023-03-10T14:08:17.012611,6375192,1908,398,723,-1007,-592,-284,130,82,-112
20612,3932,0,2023-03-10T14:08:17.017210,6375197,1908,398,723,-1007,-592,-284,130,82,-112
20613,3933,0,2023-03-10T14:08:17.021690,6375201,1902,389,727,-975,-601,-256,130,82,-112
20614,3934,0,2023-03-10T14:08:17.026606,6375206,1902,389,727,-975,-601,-256,130,82,-112
20615,3935,0,2023-03-10T14:08:17.031642,6375212,1902,389,727,-975,-601,-256,130,82,-112
20616,3936,0,2023-03-10T14:08:17.036415,6375216,1902,389,727,-975,-601,-256,130,82,-112
20617,3937,0,2023-03-10T14:08:17.040785,6375221,1872,381,722,-962,-683,-243,130,82,-112
20618,3938,0,2023-03-10T14:08:17.046097,6375226,1872,381,722,-962,-683,-243,130,82,-112
20619,3939,0,2023-03-10T14:08:17.051053,6375231,1872,381,722,-962,-683,-243,130,82,-112
20620,3940,0,2023-03-10T14:08:17.055741,6375235,1872,381,722,-962,-683,-243,130,82,-112
20621,3941,0,2023-03-10T14:08:17.060253,6375240,1923,402,719,-1020,-621,-302,130,82,-112
20622,3942,0,2023-03-10T14:08:17.065258,6375245,1923,402,719,-1020,-621,-302,130,82,-112
20623,3943,0,2023-03-10T14:08:17.070749,6375250,1923,402,719,-1020,-621,-302,130,82,-112
20624,3944,0,2023-03-10T14:08:17.075216,6375255,1923,402,719,-1020,-621,-302,130,82,-112
20625,3945,0,2023-03-10T14:08:17.079579,6375260,1886,388,716,-999,-593,-261,130,82,-112
20626,3946,0,2023-03-10T14:08:17.084452,6375265,1886,388,716,-999,-593,-261,130,82,-112
20627,3947,0,2023-03-10T14:08:17.089090,6375269,1886,388,716,-999,-593,-261,130,82,-112
20628,3948,0,2023-03-10T14:08:17.094263,6375274,1886,388,716,-999,-593,-261,130,82,-112
20629,3949,0,2023-03-10T14:08:17.098886,6375279,1909,390,722,-986,-624,-290,130,82,-112
20630,3950,0,2023-03-10T14:08:17.103718,6375283,1909,390,722,-986,-624,-290,130,82,-112
20631,3951,0,2023-03-10T14:08:17.108259,6375288,1909,390,722,-986,-624,-290,130,82,-112
20632,3952,0,2023-03-10T14:08:17.112761,6375292,1909,390,722,-986,-624,-290,130,82,-112
20633,3953,0,2023-03-10T14:08:17.117216,6375298,1909,390,722,-986,-624,-290,130,82,-112
20634,3954,0,2023-03-10T14:08:17.121832,6375302,1891,392,716,-1006,-620,-275,115,75,-101
20635,3955,0,2023-03-10T14:08:17.127212,6375307,1891,392,716,-1006,-620,-275,115,75,-101
20636,3956,0,2023-03-10T14:08:17.132302,6375312,1891,392,716,-1006,-620,-275,115,75,-101
20637,3957,0,2023-03-10T14:08:17.137076,6375317,1891,392,716,-1006,-620,-275,115,75,-101
20638,3958,0,2023-03-10T14:08:17.141464,6375321,1896,389,731,-968,-647,-261,115,75,-101
20639,3959,0,2023-03-10T14:08:17.146925,6375327,1896,389,731,-968,-647,-261,115,75,-101
20640,3960,0,2023-03-10T14:08:17.151941,6375331,1896,389,731,-968,-647,-261,115,75,-101
20641,3961,0,2023-03-10T14:08:17.156656,6375336,1896,389,731,-968,-647,-261,115,75,-101
20642,3962,0,2023-03-10T14:08:17.161108,6375341,1901,390,719,-1006,-619,-288,115,75,-101
20643,3963,0,2023-03-10T14:08:17.166229,6375346,1901,390,719,-1006,-619,-288,115,75,-101
20644,3964,0,2023-03-10T14:08:17.171305,6375351,1901,390,719,-1006,-619,-288,115,75,-101
20645,3965,0,2023-03-10T14:08:17.175826,6375356,1901,390,719,-1006,-619,-288,115,75,-101
20646,3966,0,2023-03-10T14:08:17.180266,6375360,1905,387,717,-1012,-659,-278,115,75,-101
20647,3967,0,2023-03-10T14:08:17.185260,6375365,1905,387,717,-1012,-659,-278,115,75,-101
20648,3968,0,2023-03-10T14:08:17.189860,6375369,1905,387,717,-1012,-659,-278,115,75,-101
20649,3969,0,2023-03-10T14:08:17.194331,6375374,1905,387,717,-1012,-659,-278,115,75,-101
20650,3970,0,2023-03-10T14:08:17.198853,6375378,1892,388,712,-996,-630,-273,115,75,-101
20651,3971,0,2023-03-10T14:08:17.203967,6375384,1892,388,712,-996,-630,-273,115,75,-101
20652,3972,0,2023-03-10T14:08:17.208390,6375389,1892,388,712,-996,-630,-273,115,75,-101
20653,3973,0,2023-03-10T14:08:17.212907,6375393,1892,388,712,-996,-630,-273,115,75,-101
20654,3974,0,2023-03-10T14:08:17.217362,6375397,1892,388,712,-996,-630,-273,115,75,-101
20655,3975,0,2023-03-10T14:08:17.222034,6375402,1903,392,720,-985,-621,-276,115,75,-101
20656,3976,0,2023-03-10T14:08:17.226964,6375407,1903,392,720,-985,-621,-276,115,75,-101
20657,3977,0,2023-03-10T14:08:17.231466,6375411,1903,392,720,-985,-621,-276,115,75,-101
20658,3978,0,2023-03-10T14:08:17.236099,6375416,1903,392,720,-985,-621,-276,115,75,-101
20659,3979,0,2023-03-10T14:08:17.240456,6375420,1906,389,728,-961,-622,-268,115,79,-105
20660,3980,0,2023-03-10T14:08:17.245219,6375426,1906,389,728,-961,-622,-268,115,79,-105
20661,3981,0,2023-03-10T14:08:17.250159,6375431,1906,389,728,-961,-622,-268,115,79,-105
20662,3982,0,2023-03-10T14:08:17.254824,6375435,1906,389,728,-961,-622,-268,115,79,-105
20663,3983,0,2023-03-10T14:08:17.259368,6375439,1887,386,720,-1014,-614,-288,115,79,-105
20664,3984,0,2023-03-10T14:08:17.264390,6375444,1887,386,720,-1014,-614,-288,115,79,-105
20665,3985,0,2023-03-10T14:08:17.269956,6375450,1887,386,720,-1014,-614,-288,115,79,-105
20666,3986,0,2023-03-10T14:08:17.274748,6375454,1887,386,720,-1014,-614,-288,115,79,-105
20667,3987,0,2023-03-10T14:08:17.279290,6375459,1896,385,712,-1001,-653,-278,115,79,-105
20668,3988,0,2023-03-10T14:08:17.284075,6375464,1896,385,712,-1001,-653,-278,115,79,-105
20669,3989,0,2023-03-10T14:08:17.288636,6375469,1896,385,712,-1001,-653,-278,115,79,-105
20670,3990,0,2023-03-10T14:08:17.293873,6375474,1896,385,712,-1001,-653,-278,115,79,-105
20671,3991,0,2023-03-10T14:08:17.298480,6375479,1910,396,718,-1008,-605,-291,115,79,-105
20672,3992,0,2023-03-10T14:08:17.303580,6375483,1910,396,718,-1008,-605,-291,115,79,-105
20673,3993,0,2023-03-10T14:08:17.308482,6375488,1910,396,718,-1008,-605,-291,115,79,-105
20674,3994,0,2023-03-10T14:08:17.313340,6375493,1910,396,718,-1008,-605,-291,115,79,-105
20675,3995,0,2023-03-10T14:08:17.317968,6375498,1894,389,707,-982,-633,-252,115,79,-105
20676,3996,0,2023-03-10T14:08:17.322499,6375502,1894,389,707,-982,-633,-252,115,79,-105
20677,3997,0,2023-03-10T14:08:17.327062,6375507,1894,389,707,-982,-633,-252,115,79,-105
20678,3998,0,2023-03-10T14:08:17.332104,6375512,1894,389,707,-982,-633,-252,115,79,-105
20679,3999,0,2023-03-10T14:08:17.336636,6375517,1894,389,707,-982,-633,-252,115,79,-105
20680,4000,0,2023-03-10T14:08:17.340909,6375521,1900,386,733,-964,-608,-256,115,79,-105
20681,4001,0,2023-03-10T14:08:17.345744,6375526,1900,386,733,-964,-608,-256,115,79,-105
20682,4002,0,2023-03-10T14:08:17.350674,6375531,1900,386,733,-964,-608,-256,115,79,-105
20683,4003,0,2023-03-10T14:08:17.355192,6375535,1900,386,733,-964,-608,-256,115,79,-105
20684,4004,0,2023-03-10T14:08:17.359556,6375539,1883,383,709,-1008,-662,-275,115,79,-105
20685,4005,0,2023-03-10T14:08:17.364617,6375544,1883,383,709,-1008,-662,-275,115,79,-105
20686,4006,0,2023-03-10T14:08:17.369118,6375548,1883,383,709,-1008,-662,-275,115,79,-105
20687,4007,0,2023-03-10T14:08:17.374075,6375554,1883,383,709,-1008,-662,-275,115,79,-105
20688,4008,0,2023-03-10T14:08:17.378718,6375559,1915,396,716,-1011,-620,-292,120,72,-100
20689,4009,0,2023-03-10T14:08:17.383765,6375564,1915,396,716,-1011,-620,-292,120,72,-100
20690,4010,0,2023-03-10T14:08:17.388293,6375568,1915,396,716,-1011,-620,-292,120,72,-100
20691,4011,0,2023-03-10T14:08:17.393248,6375573,1915,396,716,-1011,-620,-292,120,72,-100
20692,4012,0,2023-03-10T14:08:17.397667,6375577,1915,396,716,-1011,-620,-292,120,72,-100
20693,4013,0,2023-03-10T14:08:17.402055,6375582,1896,386,721,-978,-635,-273,120,72,-100
20694,4014,0,2023-03-10T14:08:17.406919,6375587,1896,386,721,-978,-635,-273,120,72,-100
20695,4015,0,2023-03-10T14:08:17.411379,6375591,1896,386,721,-978,-635,-273,120,72,-100
20696,4016,0,2023-03-10T14:08:17.416018,6375596,1896,386,721,-978,-635,-273,120,72,-100
20697,4017,0,2023-03-10T14:08:17.420411,6375601,1909,398,704,-1008,-604,-292,120,72,-100
20698,4018,0,2023-03-10T14:08:17.425484,6375606,1909,398,704,-1008,-604,-292,120,72,-100
20699,4019,0,2023-03-10T14:08:17.430801,6375611,1909,398,704,-1008,-604,-292,120,72,-100
20700,4020,0,2023-03-10T14:08:17.435214,6375615,1909,398,704,-1008,-604,-292,120,72,-100
20701,4021,0,2023-03-10T14:08:17.439560,6375619,1876,379,716,-954,-616,-242,120,72,-100
20702,4022,0,2023-03-10T14:08:17.444698,6375624,1876,379,716,-954,-616,-242,120,72,-100
20703,4023,0,2023-03-10T14:08:17.449016,6375629,1876,379,716,-954,-616,-242,120,72,-100
20704,4024,0,2023-03-10T14:08:17.454119,6375634,1876,379,716,-954,-616,-242,120,72,-100
20705,4025,0,2023-03-10T14:08:17.458708,6375639,1908,393,726,-985,-625,-281,120,72,-100
20706,4026,0,2023-03-10T14:08:17.463831,6375644,1908,393,726,-985,-625,-281,120,72,-100
20707,4027,0,2023-03-10T14:08:17.468739,6375649,1908,393,726,-985,-625,-281,120,72,-100
20708,4028,0,2023-03-10T14:08:17.473977,6375654,1908,393,726,-985,-625,-281,120,72,-100
20709,4029,0,2023-03-10T14:08:17.478551,6375658,1915,395,711,-1023,-649,-292,120,72,-100
20710,4030,0,2023-03-10T14:08:17.483653,6375663,1915,395,711,-1023,-649,-292,120,72,-100
20711,4031,0,2023-03-10T14:08:17.487987,6375668,1915,395,711,-1023,-649,-292,120,72,-100
20712,4032,0,2023-03-10T14:08:17.492897,6375672,1915,395,711,-1023,-649,-292,120,72,-100
20713,4033,0,2023-03-10T14:08:17.497487,6375677,1915,395,711,-1023,-649,-292,120,72,-100
20714,4034,0,2023-03-10T14:08:17.501962,6375682,1892,386,706,-982,-638,-258,126,78,-98
20715,4035,0,2023-03-10T14:08:17.506936,6375687,1892,386,706,-982,-638,-258,126,78,-98
20716,4036,0,2023-03-10T14:08:17.512005,6375692,1892,386,706,-982,-638,-258,126,78,-98
20717,4037,0,2023-03-10T14:08:17.516388,6375696,1892,386,706,-982,-638,-258,126,78,-98
20718,4038,0,2023-03-10T14:08:17.520753,6375701,1913,387,718,-996,-603,-290,126,78,-98
20719,4039,0,2023-03-10T14:08:17.525804,6375705,1913,387,718,-996,-603,-290,126,78,-98
20720,4040,0,2023-03-10T14:08:17.530961,6375711,1913,387,718,-996,-603,-290,126,78,-98
20721,4041,0,2023-03-10T14:08:17.535423,6375715,1913,387,718,-996,-603,-290,126,78,-98
20722,4042,0,2023-03-10T14:08:17.540004,6375720,1897,395,712,-981,-616,-278,126,78,-98
20723,4043,0,2023-03-10T14:08:17.544213,6375725,1897,395,712,-981,-616,-278,126,78,-98
20724,4044,0,2023-03-10T14:08:17.548702,6375729,1897,395,712,-981,-616,-278,126,78,-98
20725,4045,0,2023-03-10T14:08:17.553634,6375734,1897,395,712,-981,-616,-278,126,78,-98
20726,4046,0,2023-03-10T14:08:17.558254,6375738,1914,392,729,-963,-621,-252,126,78,-98
20727,4047,0,2023-03-10T14:08:17.563314,6375743,1914,392,729,-963,-621,-252,126,78,-98
20728,4048,0,2023-03-10T14:08:17.568150,6375748,1914,392,729,-963,-621,-252,126,78,-98
20729,4049,0,2023-03-10T14:08:17.573164,6375753,1914,392,729,-963,-621,-252,126,78,-98
20730,4050,0,2023-03-10T14:08:17.577690,6375757,1914,392,729,-963,-621,-252,126,78,-98
20731,4051,0,2023-03-10T14:08:17.582000,6375761,1914,392,729,-963,-621,-252,126,78,-98
20732,4052,0,2023-03-10T14:08:17.586303,6375767,1914,392,729,-963,-621,-252,126,78,-98
20733,4053,0,2023-03-10T14:08:17.591241,6375771,1914,392,729,-963,-621,-252,126,78,-98
20734,4054,0,2023-03-10T14:08:17.595599,6375776,1914,392,729,-963,-621,-252,126,78,-98
20735,4055,0,2023-03-10T14:08:17.599967,6375780,1913,389,709,-1038,-633,-290,126,78,-98
20736,4056,0,2023-03-10T14:08:17.604844,6375785,1913,389,709,-1038,-633,-290,126,78,-98
20737,4057,0,2023-03-10T14:08:17.609656,6375790,1913,389,709,-1038,-633,-290,126,78,-98
20738,4058,0,2023-03-10T14:08:17.614686,6375794,1913,389,709,-1038,-633,-290,126,78,-98
20739,4059,0,2023-03-10T14:08:17.619148,6375799,1893,387,707,-973,-641,-264,126,78,-98
20740,4060,0,2023-03-10T14:08:17.624320,6375804,1893,387,707,-973,-641,-264,126,78,-98
20741,4061,0,2023-03-10T14:08:17.628714,6375809,1893,387,707,-973,-641,-264,126,78,-98
20742,4062,0,2023-03-10T14:08:17.633113,6375813,1893,387,707,-973,-641,-264,126,78,-98
20743,4063,0,2023-03-10T14:08:17.637610,6375818,1893,387,707,-973,-641,-264,126,78,-98
20744,4064,0,2023-03-10T14:08:17.642007,6375822,1914,394,708,-1004,-609,-295,114,82,-106
20745,4065,0,2023-03-10T14:08:17.647035,6375827,1914,394,708,-1004,-609,-295,114,82,-106
20746,4066,0,2023-03-10T14:08:17.651953,6375832,1914,394,708,-1004,-609,-295,114,82,-106
20747,4067,0,2023-03-10T14:08:17.656473,6375836,1914,394,708,-1004,-609,-295,114,82,-106
20748,4068,0,2023-03-10T14:08:17.661102,6375841,1903,390,718,-970,-615,-250,114,82,-106
20749,4069,0,2023-03-10T14:08:17.666282,6375846,1903,390,718,-970,-615,-250,114,82,-106
20750,4070,0,2023-03-10T14:08:17.670991,6375851,1903,390,718,-970,-615,-250,114,82,-106
20751,4071,0,2023-03-10T14:08:17.675247,6375856,1903,390,718,-970,-615,-250,114,82,-106
20752,4072,0,2023-03-10T14:08:17.679791,6375860,1884,385,723,-967,-635,-250,114,82,-106
20753,4073,0,2023-03-10T14:08:17.685145,6375865,1884,385,723,-967,-635,-250,114,82,-106
20754,4074,0,2023-03-10T14:08:17.689451,6375869,1884,385,723,-967,-635,-250,114,82,-106
20755,4075,0,2023-03-10T14:08:17.694191,6375874,1884,385,723,-967,-635,-250,114,82,-106
20756,4076,0,2023-03-10T14:08:17.698763,6375878,1910,394,714,-1023,-607,-298,114,82,-106
20757,4077,0,2023-03-10T14:08:17.703756,6375883,1910,394,714,-1023,-607,-298,114,82,-106
20758,4078,0,2023-03-10T14:08:17.708014,6375888,1910,394,714,-1023,-607,-298,114,82,-106
20759,4079,0,2023-03-10T14:08:17.712960,6375892,1910,394,714,-1023,-607,-298,114,82,-106
20760,4080,0,2023-03-10T14:08:17.717816,6375898,1910,394,714,-1023,-607,-298,114,82,-106
20761,4081,0,2023-03-10T14:08:17.722214,6375902,1899,388,698,-994,-696,-270,114,82,-106
20762,4082,0,2023-03-10T14:08:17.727663,6375908,1899,388,698,-994,-696,-270,114,82,-106
20763,4083,0,2023-03-10T14:08:17.732627,6375913,1899,388,698,-994,-696,-270,114,82,-106
20764,4084,0,2023-03-10T14:08:17.737097,6375917,1899,388,698,-994,-696,-270,114,82,-106
20765,4085,0,2023-03-10T14:08:17.741469,6375921,1913,386,711,-996,-626,-277,114,82,-106
20766,4086,0,2023-03-10T14:08:17.746347,6375926,1913,386,711,-996,-626,-277,114,82,-106
20767,4087,0,2023-03-10T14:08:17.751657,6375931,1913,386,711,-996,-626,-277,114,82,-106
20768,4088,0,2023-03-10T14:08:17.755930,6375936,1913,386,711,-996,-626,-277,114,82,-106
20769,4089,0,2023-03-10T14:08:17.760599,6375941,1894,391,709,-1008,-576,-288,123,81,-109
20770,4090,0,2023-03-10T14:08:17.766525,6375947,1894,391,709,-1008,-576,-288,123,81,-109
20771,4091,0,2023-03-10T14:08:17.771533,6375951,1894,391,709,-1008,-576,-288,123,81,-109
20772,4092,0,2023-03-10T14:08:17.776066,6375956,1894,391,709,-1008,-576,-288,123,81,-109
20773,4093,0,2023-03-10T14:08:17.780453,6375960,1910,389,728,-962,-636,-264,123,81,-109
20774,4094,0,2023-03-10T14:08:17.785596,6375965,1910,389,728,-962,-636,-264,123,81,-109
20775,4095,0,2023-03-10T14:08:17.791351,6375971,1910,389,728,-962,-636,-264,123,81,-109
20776,4096,0,2023-03-10T14:08:17.795929,6375975,1910,389,728,-962,-636,-264,123,81,-109
20777,4097,0,2023-03-10T14:08:17.800223,6375981,1901,389,723,-993,-620,-278,123,81,-109
20778,4098,0,2023-03-10T14:08:17.805065,6375985,1901,389,723,-993,-620,-278,123,81,-109
20779,4099,0,2023-03-10T14:08:17.809922,6375990,1901,389,723,-993,-620,-278,123,81,-109
20780,4100,0,2023-03-10T14:08:17.814404,6375995,1901,389,723,-993,-620,-278,123,81,-109
20781,4101,0,2023-03-10T14:08:17.818951,6375999,1917,391,717,-1021,-673,-290,123,81,-109
20782,4102,0,2023-03-10T14:08:17.823877,6376004,1917,391,717,-1021,-673,-290,123,81,-109
20783,4103,0,2023-03-10T14:08:17.828285,6376008,1917,391,717,-1021,-673,-290,123,81,-109
20784,4104,0,2023-03-10T14:08:17.833280,6376013,1917,391,717,-1021,-673,-290,123,81,-109
20785,4105,0,2023-03-10T14:08:17.837967,6376017,1917,391,717,-1021,-673,-290,123,81,-109
20786,4106,0,2023-03-10T14:08:17.842560,6376023,1897,387,702,-1000,-660,-272,123,81,-109
20787,4107,0,2023-03-10T14:08:17.847605,6376028,1897,387,702,-1000,-660,-272,123,81,-109
20788,4108,0,2023-03-10T14:08:17.852685,6376033,1897,387,702,-1000,-660,-272,123,81,-109
20789,4109,0,2023-03-10T14:08:17.857074,6376037,1897,387,702,-1000,-660,-272,123,81,-109
20790,4110,0,2023-03-10T14:08:17.861487,6376041,1899,383,706,-999,-585,-278,123,81,-109
20791,4111,0,2023-03-10T14:08:17.866431,6376046,1899,383,706,-999,-585,-278,123,81,-109
20792,4112,0,2023-03-10T14:08:17.871510,6376051,1899,383,706,-999,-585,-278,123,81,-109
20793,4113,0,2023-03-10T14:08:17.876137,6376056,1899,383,706,-999,-585,-278,123,81,-109
20794,4114,0,2023-03-10T14:08:17.880652,6376060,1931,405,713,-997,-609,-299,123,81,-109
20795,4115,0,2023-03-10T14:08:17.885590,6376066,1931,405,713,-997,-609,-299,123,81,-109
20796,4116,0,2023-03-10T14:08:17.890630,6376071,1931,405,713,-997,-609,-299,123,81,-109
20797,4117,0,2023-03-10T14:08:17.895213,6376075,1931,405,713,-997,-609,-299,123,81,-109
20798,4118,0,2023-03-10T14:08:17.899762,6376080,1874,375,713,-965,-630,-224,116,74,-104
20799,4119,0,2023-03-10T14:08:17.904933,6376085,1874,375,713,-965,-630,-224,116,74,-104
20800,4120,0,2023-03-10T14:08:17.909205,6376089,1874,375,713,-965,-630,-224,116,74,-104
20801,4121,0,2023-03-10T14:08:17.914445,6376094,1874,375,713,-965,-630,-224,116,74,-104
20802,4122,0,2023-03-10T14:08:17.919033,6376099,1918,389,718,-1013,-609,-302,116,74,-104
20803,4123,0,2023-03-10T14:08:17.923944,6376103,1918,389,718,-1013,-609,-302,116,74,-104
20804,4124,0,2023-03-10T14:08:17.928383,6376109,1918,389,718,-1013,-609,-302,116,74,-104
20805,4125,0,2023-03-10T14:08:17.932851,6376113,1918,389,718,-1013,-609,-302,116,74,-104
20806,4126,0,2023-03-10T14:08:17.937376,6376117,1918,389,718,-1013,-609,-302,116,74,-104
20807,4127,0,2023-03-10T14:08:17.941837,6376122,1899,387,695,-1016,-653,-278,116,74,-104
20808,4128,0,2023-03-10T14:08:17.947519,6376127,1899,387,695,-1016,-653,-278,116,74,-104
20809,4129,0,2023-03-10T14:08:17.952081,6376132,1899,387,695,-1016,-653,-278,116,74,-104
20810,4130,0,2023-03-10T14:08:17.956494,6376136,1899,387,695,-1016,-653,-278,116,74,-104
20811,4131,0,2023-03-10T14:08:17.961041,6376141,1919,387,712,-987,-630,-273,116,74,-104
20812,4132,0,2023-03-10T14:08:17.966078,6376145,1919,387,712,-987,-630,-273,116,74,-104
20813,4133,0,2023-03-10T14:08:17.971146,6376151,1919,387,712,-987,-630,-273,116,74,-104
20814,4134,0,2023-03-10T14:08:17.975647,6376156,1919,387,712,-987,-630,-273,116,74,-104
20815,4135,0,2023-03-10T14:08:17.980185,6376160,1905,391,700,-1011,-621,-292,116,74,-104
20816,4136,0,2023-03-10T14:08:17.985278,6376165,1905,391,700,-1011,-621,-292,116,74,-104
20817,4137,0,2023-03-10T14:08:17.989599,6376170,1905,391,700,-1011,-621,-292,116,74,-104
20818,4138,0,2023-03-10T14:08:17.994830,6376174,1905,391,700,-1011,-621,-292,116,74,-104
20819,4139,0,2023-03-10T14:08:17.999422,6376179,1905,391,700,-1011,-621,-292,116,74,-104
20820,4140,0,2023-03-10T14:08:18.004031,6376183,1905,391,700,-1011,-621,-292,116,74,-104
20821,4141,0,2023-03-10T14:08:18.008345,6376188,1905,391,700,-1011,-621,-292,116,74,-104
20822,4142,0,2023-03-10T14:08:18.013213,6376194,1905,391,700,-1011,-621,-292,116,74,-104
20823,4143,0,2023-03-10T14:08:18.017794,6376198,1905,391,700,-1011,-621,-292,116,74,-104
20824,4144,0,2023-03-10T14:08:18.022497,6376203,1911,392,719,-963,-611,-270,122,86,-102
20825,4145,0,2023-03-10T14:08:18.027330,6376207,1911,392,719,-963,-611,-270,122,86,-102
20826,4146,0,2023-03-10T14:08:18.032553,6376212,1911,392,719,-963,-611,-270,122,86,-102
20827,4147,0,2023-03-10T14:08:18.037145,6376217,1911,392,719,-963,-611,-270,122,86,-102
20828,4148,0,2023-03-10T14:08:18.041523,6376221,1909,388,709,-1019,-643,-289,122,86,-102
20829,4149,0,2023-03-10T14:08:18.046421,6376226,1909,388,709,-1019,-643,-289,122,86,-102
20830,4150,0,2023-03-10T14:08:18.051274,6376231,1909,388,709,-1019,-643,-289,122,86,-102
20831,4151,0,2023-03-10T14:08:18.055641,6376236,1909,388,709,-1019,-643,-289,122,86,-102
20832,4152,0,2023-03-10T14:08:18.060187,6376240,1908,393,697,-1001,-632,-274,122,86,-102
20833,4153,0,2023-03-10T14:08:18.065208,6376245,1908,393,697,-1001,-632,-274,122,86,-102
20834,4154,0,2023-03-10T14:08:18.069689,6376250,1908,393,697,-1001,-632,-274,122,86,-102
20835,4155,0,2023-03-10T14:08:18.074670,6376255,1908,393,697,-1001,-632,-274,122,86,-102
20836,4156,0,2023-03-10T14:08:18.079054,6376259,1902,378,718,-978,-601,-264,122,86,-102
20837,4157,0,2023-03-10T14:08:18.083694,6376263,1902,378,718,-978,-601,-264,122,86,-102
20838,4158,0,2023-03-10T14:08:18.088208,6376268,1902,378,718,-978,-601,-264,122,86,-102
20839,4159,0,2023-03-10T14:08:18.093535,6376273,1902,378,718,-978,-601,-264,122,86,-102
20840,4160,0,2023-03-10T14:08:18.097971,6376278,1902,378,718,-978,-601,-264,122,86,-102
20841,4161,0,2023-03-10T14:08:18.102369,6376283,1914,399,697,-1000,-634,-292,122,86,-102
20842,4162,0,2023-03-10T14:08:18.107343,6376288,1914,399,697,-1000,-634,-292,122,86,-102
20843,4163,0,2023-03-10T14:08:18.112494,6376293,1914,399,697,-1000,-634,-292,122,86,-102
20844,4164,0,2023-03-10T14:08:18.117075,6376297,1914,399,697,-1000,-634,-292,122,86,-102
20845,4165,0,2023-03-10T14:08:18.121973,6376302,1914,399,697,-1000,-634,-292,122,86,-102
20846,4166,0,2023-03-10T14:08:18.126736,6376306,1914,399,697,-1000,-634,-292,122,86,-102
20847,4167,0,2023-03-10T14:08:18.131586,6376311,1914,399,697,-1000,-634,-292,122,86,-102
20848,4168,0,2023-03-10T14:08:18.136227,6376316,1914,399,697,-1000,-634,-292,122,86,-102
20849,4169,0,2023-03-10T14:08:18.140539,6376321,1896,392,700,-1003,-624,-291,120,88,-106
20850,4170,0,2023-03-10T14:08:18.145612,6376326,1896,392,700,-1003,-624,-291,120,88,-106
20851,4171,0,2023-03-10T14:08:18.150602,6376331,1896,392,700,-1003,-624,-291,120,88,-106
20852,4172,0,2023-03-10T14:08:18.154959,6376335,1896,392,700,-1003,-624,-291,120,88,-106
20853,4173,0,2023-03-10T14:08:18.159465,6376339,1900,381,706,-1013,-633,-272,120,88,-106
20854,4174,0,2023-03-10T14:08:18.164406,6376344,1900,381,706,-1013,-633,-272,120,88,-106
20855,4175,0,2023-03-10T14:08:18.168778,6376349,1900,381,706,-1013,-633,-272,120,88,-106
20856,4176,0,2023-03-10T14:08:18.173871,6376353,1900,381,706,-1013,-633,-272,120,88,-106
20857,4177,0,2023-03-10T14:08:18.178477,6376358,1900,381,706,-1013,-633,-272,120,88,-106
20858,4178,0,2023-03-10T14:08:18.183124,6376364,1915,390,706,-990,-625,-280,120,88,-106
20859,4179,0,2023-03-10T14:08:18.189377,6376370,1915,390,706,-990,-625,-280,120,88,-106
20860,4180,0,2023-03-10T14:08:18.194069,6376374,1915,390,706,-990,-625,-280,120,88,-106
20861,4181,0,2023-03-10T14:08:18.198586,6376379,1915,390,706,-990,-625,-280,120,88,-106
20862,4182,0,2023-03-10T14:08:18.203088,6376383,1920,390,703,-1002,-629,-279,120,88,-106
20863,4183,0,2023-03-10T14:08:18.208128,6376388,1920,390,703,-1002,-629,-279,120,88,-106
20864,4184,0,2023-03-10T14:08:18.212908,6376393,1920,390,703,-1002,-629,-279,120,88,-106
20865,4185,0,2023-03-10T14:08:18.217305,6376397,1920,390,703,-1002,-629,-279,120,88,-106
20866,4186,0,2023-03-10T14:08:18.221717,6376401,1891,386,693,-983,-636,-266,120,88,-106
20867,4187,0,2023-03-10T14:08:18.227077,6376407,1891,386,693,-983,-636,-266,120,88,-106
20868,4188,0,2023-03-10T14:08:18.232119,6376412,1891,386,693,-983,-636,-266,120,88,-106
20869,4189,0,2023-03-10T14:08:18.236455,6376417,1891,386,693,-983,-636,-266,120,88,-106
20870,4190,0,2023-03-10T14:08:18.241082,6376421,1917,389,717,-1000,-598,-286,120,88,-106
20871,4191,0,2023-03-10T14:08:18.246314,6376426,1917,389,717,-1000,-598,-286,120,88,-106
20872,4192,0,2023-03-10T14:08:18.252146,6376432,1917,389,717,-1000,-598,-286,120,88,-106
20873,4193,0,2023-03-10T14:08:18.256908,6376436,1917,389,717,-1000,-598,-286,120,88,-106
20874,4194,0,2023-03-10T14:08:18.261291,6376441,1895,385,701,-984,-641,-270,120,88,-106
20875,4195,0,2023-03-10T14:08:18.266329,6376446,1895,385,701,-984,-641,-270,120,88,-106
20876,4196,0,2023-03-10T14:08:18.271842,6376452,1895,385,701,-984,-641,-270,120,88,-106
20877,4197,0,2023-03-10T14:08:18.276349,6376457,1895,385,701,-984,-641,-270,120,88,-106
20878,4198,0,2023-03-10T14:08:18.281237,6376461,1926,392,715,-986,-613,-269,121,81,-103
20879,4199,0,2023-03-10T14:08:18.286226,6376466,1926,392,715,-986,-613,-269,121,81,-103
20880,4200,0,2023-03-10T14:08:18.290527,6376470,1926,392,715,-986,-613,-269,121,81,-103
20881,4201,0,2023-03-10T14:08:18.295079,6376475,1926,392,715,-986,-613,-269,121,81,-103
20882,4202,0,2023-03-10T14:08:18.299664,6376479,1893,379,706,-969,-641,-251,121,81,-103
20883,4203,0,2023-03-10T14:08:18.304102,6376484,1893,379,706,-969,-641,-251,121,81,-103
20884,4204,0,2023-03-10T14:08:18.308539,6376488,1893,379,706,-969,-641,-251,121,81,-103
20885,4205,0,2023-03-10T14:08:18.313900,6376494,1893,379,706,-969,-641,-251,121,81,-103
20886,4206,0,2023-03-10T14:08:18.318626,6376499,1893,379,706,-969,-641,-251,121,81,-103
20887,4207,0,2023-03-10T14:08:18.323091,6376503,1902,390,706,-1015,-617,-295,121,81,-103
20888,4208,0,2023-03-10T14:08:18.328805,6376508,1902,390,706,-1015,-617,-295,121,81,-103
20889,4209,0,2023-03-10T14:08:18.334085,6376514,1902,390,706,-1015,-617,-295,121,81,-103
20890,4210,0,2023-03-10T14:08:18.338665,6376518,1902,390,706,-1015,-617,-295,121,81,-103
20891,4211,0,2023-03-10T14:08:18.343184,6376523,1917,390,699,-999,-652,-283,121,81,-103
20892,4212,0,2023-03-10T14:08:18.348600,6376528,1917,390,699,-999,-652,-283,121,81,-103
20893,4213,0,2023-03-10T14:08:18.353434,6376534,1917,390,699,-999,-652,-283,121,81,-103
20894,4214,0,2023-03-10T14:08:18.358317,6376539,1917,390,699,-999,-652,-283,121,81,-103
20895,4215,0,2023-03-10T14:08:18.363255,6376543,1903,390,712,-995,-601,-286,121,81,-103
20896,4216,0,2023-03-10T14:08:18.368240,6376548,1903,390,712,-995,-601,-286,121,81,-103
20897,4217,0,2023-03-10T14:08:18.372830,6376553,1903,390,712,-995,-601,-286,121,81,-103
20898,4218,0,2023-03-10T14:08:18.377299,6376557,1903,390,712,-995,-601,-286,121,81,-103
20899,4219,0,2023-03-10T14:08:18.381855,6376562,1912,386,707,-996,-635,-275,121,81,-103
20900,4220,0,2023-03-10T14:08:18.387184,6376567,1912,386,707,-996,-635,-275,121,81,-103
20901,4221,0,2023-03-10T14:08:18.391804,6376571,1912,386,707,-996,-635,-275,121,81,-103
20902,4222,0,2023-03-10T14:08:18.396480,6376577,1912,386,707,-996,-635,-275,121,81,-103
20903,4223,0,2023-03-10T14:08:18.401107,6376581,1900,394,711,-1000,-620,-281,116,80,-98
20904,4224,0,2023-03-10T14:08:18.406079,6376586,1900,394,711,-1000,-620,-281,116,80,-98
20905,4225,0,2023-03-10T14:08:18.411194,6376591,1900,394,711,-1000,-620,-281,116,80,-98
20906,4226,0,2023-03-10T14:08:18.415701,6376596,1900,394,711,-1000,-620,-281,116,80,-98
20907,4227,0,2023-03-10T14:08:18.420238,6376600,1906,381,712,-998,-656,-272,116,80,-98
20908,4228,0,2023-03-10T14:08:18.425265,6376605,1906,381,712,-998,-656,-272,116,80,-98
20909,4229,0,2023-03-10T14:08:18.429820,6376609,1906,381,712,-998,-656,-272,116,80,-98
20910,4230,0,2023-03-10T14:08:18.434986,6376615,1906,381,712,-998,-656,-272,116,80,-98
20911,4231,0,2023-03-10T14:08:18.439487,6376620,1916,397,703,-997,-615,-286,116,80,-98
20912,4232,0,2023-03-10T14:08:18.444802,6376625,1916,397,703,-997,-615,-286,116,80,-98
20913,4233,0,2023-03-10T14:08:18.449708,6376630,1916,397,703,-997,-615,-286,116,80,-98
20914,4234,0,2023-03-10T14:08:18.454761,6376635,1916,397,703,-997,-615,-286,116,80,-98
20915,4235,0,2023-03-10T14:08:18.459246,6376639,1906,376,702,-980,-645,-249,116,80,-98
20916,4236,0,2023-03-10T14:08:18.464249,6376644,1906,376,702,-980,-645,-249,116,80,-98
20917,4237,0,2023-03-10T14:08:18.468603,6376648,1906,376,702,-980,-645,-249,116,80,-98
20918,4238,0,2023-03-10T14:08:18.473192,6376653,1906,376,702,-980,-645,-249,116,80,-98
20919,4239,0,2023-03-10T14:08:18.477478,6376657,1906,376,702,-980,-645,-249,116,80,-98
20920,4240,0,2023-03-10T14:08:18.481989,6376662,1901,391,702,-1006,-626,-295,116,80,-98
20921,4241,0,2023-03-10T14:08:18.487156,6376668,1901,391,702,-1006,-626,-295,116,80,-98
20922,4242,0,2023-03-10T14:08:18.492000,6376672,1901,391,702,-1006,-626,-295,116,80,-98
20923,4243,0,2023-03-10T14:08:18.496506,6376677,1901,391,702,-1006,-626,-295,116,80,-98
20924,4244,0,2023-03-10T14:08:18.501254,6376681,1911,384,702,-1004,-617,-273,116,80,-98
20925,4245,0,2023-03-10T14:08:18.505799,6376686,1911,384,702,-1004,-617,-273,116,80,-98
20926,4246,0,2023-03-10T14:08:18.510947,6376691,1911,384,702,-1004,-617,-273,116,80,-98
20927,4247,0,2023-03-10T14:08:18.515572,6376695,1911,384,702,-1004,-617,-273,116,80,-98
20928,4248,0,2023-03-10T14:08:18.520177,6376700,1923,396,702,-982,-618,-296,116,80,-98
20929,4249,0,2023-03-10T14:08:18.525258,6376706,1923,396,702,-982,-618,-296,116,80,-98
20930,4250,0,2023-03-10T14:08:18.529614,6376710,1923,396,702,-982,-618,-296,116,80,-98
20931,4251,0,2023-03-10T14:08:18.534771,6376715,1923,396,702,-982,-618,-296,116,80,-98
20932,4252,0,2023-03-10T14:08:18.539323,6376719,1923,396,702,-982,-618,-296,116,80,-98
20933,4253,0,2023-03-10T14:08:18.543766,6376724,1897,382,699,-1012,-620,-258,122,82,-98
20934,4254,0,2023-03-10T14:08:18.548884,6376729,1897,382,699,-1012,-620,-258,122,82,-98
20935,4255,0,2023-03-10T14:08:18.554054,6376734,1897,382,699,-1012,-620,-258,122,82,-98
20936,4256,0,2023-03-10T14:08:18.558362,6376738,1897,382,699,-1012,-620,-258,122,82,-98
20937,4257,0,2023-03-10T14:08:18.562851,6376742,1901,383,705,-994,-625,-279,122,82,-98
20938,4258,0,2023-03-10T14:08:18.568352,6376749,1901,383,705,-994,-625,-279,122,82,-98
20939,4259,0,2023-03-10T14:08:18.573411,6376754,1901,383,705,-994,-625,-279,122,82,-98
20940,4260,0,2023-03-10T14:08:18.578070,6376758,1901,383,705,-994,-625,-279,122,82,-98
20941,4261,0,2023-03-10T14:08:18.582537,6376763,1921,393,706,-988,-626,-262,122,82,-98
20942,4262,0,2023-03-10T14:08:18.587368,6376767,1921,393,706,-988,-626,-262,122,82,-98
20943,4263,0,2023-03-10T14:08:18.592146,6376772,1921,393,706,-988,-626,-262,122,82,-98
20944,4264,0,2023-03-10T14:08:18.596673,6376776,1921,393,706,-988,-626,-262,122,82,-98
20945,4265,0,2023-03-10T14:08:18.601079,6376781,1912,386,705,-957,-641,-254,122,82,-98
20946,4266,0,2023-03-10T14:08:18.605980,6376786,1912,386,705,-957,-641,-254,122,82,-98
20947,4267,0,2023-03-10T14:08:18.611501,6376792,1912,386,705,-957,-641,-254,122,82,-98
20948,4268,0,2023-03-10T14:08:18.616218,6376796,1912,386,705,-957,-641,-254,122,82,-98
20949,4269,0,2023-03-10T14:08:18.620683,6376801,1909,391,690,-1019,-624,-297,122,82,-98
20950,4270,0,2023-03-10T14:08:18.625461,6376806,1909,391,690,-1019,-624,-297,122,82,-98
20951,4271,0,2023-03-10T14:08:18.629950,6376810,1909,391,690,-1019,-624,-297,122,82,-98
20952,4272,0,2023-03-10T14:08:18.635056,6376815,1909,391,690,-1019,-624,-297,122,82,-98
20953,4273,0,2023-03-10T14:08:18.639525,6376819,1909,391,690,-1019,-624,-297,122,82,-98
20954,4274,0,2023-03-10T14:08:18.643998,6376824,1915,378,694,-1001,-620,-269,122,82,-98
20955,4275,0,2023-03-10T14:08:18.648853,6376828,1915,378,694,-1001,-620,-269,122,82,-98
20956,4276,0,2023-03-10T14:08:18.654221,6376834,1915,378,694,-1001,-620,-269,122,82,-98
20957,4277,0,2023-03-10T14:08:18.658487,6376839,1915,378,694,-1001,-620,-269,122,82,-98
20958,4278,0,2023-03-10T14:08:18.662800,6376843,1904,389,708,-992,-627,-282,125,73,-109
20959,4279,0,2023-03-10T14:08:18.668300,6376848,1904,389,708,-992,-627,-282,125,73,-109
20960,4280,0,2023-03-10T14:08:18.673266,6376853,1904,389,708,-992,-627,-282,125,73,-109
20961,4281,0,2023-03-10T14:08:18.677878,6376858,1904,389,708,-992,-627,-282,125,73,-109
20962,4282,0,2023-03-10T14:08:18.682259,6376862,1923,391,703,-1021,-627,-285,125,73,-109
20963,4283,0,2023-03-10T14:08:18.687296,6376867,1923,391,703,-1021,-627,-285,125,73,-109
20964,4284,0,2023-03-10T14:08:18.692406,6376872,1923,391,703,-1021,-627,-285,125,73,-109
20965,4285,0,2023-03-10T14:08:18.696673,6376877,1923,391,703,-1021,-627,-285,125,73,-109
20966,4286,0,2023-03-10T14:08:18.701043,6376881,1923,391,703,-1021,-627,-285,125,73,-109
20967,4287,0,2023-03-10T14:08:18.705548,6376886,1923,391,703,-1021,-627,-285,125,73,-109
20968,4288,0,2023-03-10T14:08:18.710547,6376891,1923,391,703,-1021,-627,-285,125,73,-109
20969,4289,0,2023-03-10T14:08:18.715004,6376895,1923,391,703,-1021,-627,-285,125,73,-109
20970,4290,0,2023-03-10T14:08:18.719572,6376899,1923,391,703,-1021,-627,-285,125,73,-109
20971,4291,0,2023-03-10T14:08:18.724050,6376904,1917,384,709,-998,-616,-275,125,73,-109
20972,4292,0,2023-03-10T14:08:18.729117,6376909,1917,384,709,-998,-616,-275,125,73,-109
20973,4293,0,2023-03-10T14:08:18.733712,6376913,1917,384,709,-998,-616,-275,125,73,-109
20974,4294,0,2023-03-10T14:08:18.738218,6376919,1917,384,709,-998,-616,-275,125,73,-109
20975,4295,0,2023-03-10T14:08:18.743100,6376923,1903,395,690,-993,-646,-285,125,73,-109
20976,4296,0,2023-03-10T14:08:18.748674,6376929,1903,395,690,-993,-646,-285,125,73,-109
20977,4297,0,2023-03-10T14:08:18.753996,6376934,1903,395,690,-993,-646,-285,125,73,-109
20978,4298,0,2023-03-10T14:08:18.758331,6376938,1903,395,690,-993,-646,-285,125,73,-109
20979,4299,0,2023-03-10T14:08:18.763066,6376943,1920,382,705,-961,-626,-243,125,73,-109
20980,4300,0,2023-03-10T14:08:18.768149,6376948,1920,382,705,-961,-626,-243,125,73,-109
20981,4301,0,2023-03-10T14:08:18.773425,6376953,1920,382,705,-961,-626,-243,125,73,-109
20982,4302,0,2023-03-10T14:08:18.778348,6376958,1920,382,705,-961,-626,-243,125,73,-109
20983,4303,0,2023-03-10T14:08:18.782598,6376963,1908,384,696,-981,-634,-279,125,73,-109
20984,4304,0,2023-03-10T14:08:18.787762,6376968,1908,384,696,-981,-634,-279,125,73,-109
20985,4305,0,2023-03-10T14:08:18.792671,6376973,1908,384,696,-981,-634,-279,125,73,-109
20986,4306,0,2023-03-10T14:08:18.797529,6376978,1908,384,696,-981,-634,-279,125,73,-109
20987,4307,0,2023-03-10T14:08:18.802071,6376982,1905,381,692,-1023,-640,-288,125,73,-109
20988,4308,0,2023-03-10T14:08:18.807222,6376987,1905,381,692,-1023,-640,-288,125,73,-109
20989,4309,0,2023-03-10T14:08:18.812193,6376992,1905,381,692,-1023,-640,-288,125,73,-109
20990,4310,0,2023-03-10T14:08:18.816697,6376996,1905,381,692,-1023,-640,-288,125,73,-109
20991,4311,0,2023-03-10T14:08:18.821093,6377001,1919,390,708,-998,-609,-288,125,73,-109
20992,4312,0,2023-03-10T14:08:18.826090,6377006,1919,390,708,-998,-609,-288,125,73,-109
20993,4313,0,2023-03-10T14:08:18.830863,6377011,1919,390,708,-998,-609,-288,125,73,-109
20994,4314,0,2023-03-10T14:08:18.835210,6377015,1919,390,708,-998,-609,-288,125,73,-109
20995,4315,0,2023-03-10T14:08:18.839533,6377020,1919,390,708,-998,-609,-288,125,73,-109
20996,4316,0,2023-03-10T14:08:18.843757,6377024,1904,382,702,-994,-685,-284,125,73,-109
20997,4317,0,2023-03-10T14:08:18.848790,6377029,1904,382,702,-994,-685,-284,125,73,-109
20998,4318,0,2023-03-10T14:08:18.853685,6377033,1904,382,702,-994,-685,-284,125,73,-109
20999,4319,0,2023-03-10T14:08:18.858246,6377038,1904,382,702,-994,-685,-284,125,73,-109
21000,4320,0,2023-03-10T14:08:18.862771,6377042,1928,396,692,-1015,-621,-285,125,73,-109
21001,4321,0,2023-03-10T14:08:18.867831,6377048,1928,396,692,-1015,-621,-285,125,73,-109
21002,4322,0,2023-03-10T14:08:18.872729,6377053,1928,396,692,-1015,-621,-285,125,73,-109
21003,4323,0,2023-03-10T14:08:18.877209,6377057,1928,396,692,-1015,-621,-285,125,73,-109
21004,4324,0,2023-03-10T14:08:18.881561,6377062,1880,374,713,-961,-583,-243,125,73,-109
21005,4325,0,2023-03-10T14:08:18.886663,6377067,1880,374,713,-961,-583,-243,125,73,-109
21006,4326,0,2023-03-10T14:08:18.890975,6377071,1880,374,713,-961,-583,-243,125,73,-109
21007,4327,0,2023-03-10T14:08:18.895356,6377075,1880,374,713,-961,-583,-243,125,73,-109
21008,4328,0,2023-03-10T14:08:18.900220,6377080,1923,388,703,-1003,-649,-303,125,73,-109
21009,4329,0,2023-03-10T14:08:18.905126,6377085,1923,388,703,-1003,-649,-303,125,73,-109
21010,4330,0,2023-03-10T14:08:18.909421,6377090,1923,388,703,-1003,-649,-303,125,73,-109
21011,4331,0,2023-03-10T14:08:18.913917,6377094,1923,388,703,-1003,-649,-303,125,73,-109
21012,4332,0,2023-03-10T14:08:18.918353,6377098,1923,388,703,-1003,-649,-303,125,73,-109
21013,4333,0,2023-03-10T14:08:18.922769,6377103,1916,389,692,-1024,-637,-285,114,82,-110
21014,4334,0,2023-03-10T14:08:18.927657,6377108,1916,389,692,-1024,-637,-285,114,82,-110
21015,4335,0,2023-03-10T14:08:18.932523,6377112,1916,389,692,-1024,-637,-285,114,82,-110
21016,4336,0,2023-03-10T14:08:18.937068,6377117,1916,389,692,-1024,-637,-285,114,82,-110
21017,4337,0,2023-03-10T14:08:18.941602,6377121,1916,381,702,-971,-635,-269,114,82,-110
21018,4338,0,2023-03-10T14:08:18.946589,6377126,1916,381,702,-971,-635,-269,114,82,-110
21019,4339,0,2023-03-10T14:08:18.951536,6377132,1916,381,702,-971,-635,-269,114,82,-110
21020,4340,0,2023-03-10T14:08:18.956133,6377136,1916,381,702,-971,-635,-269,114,82,-110
21021,4341,0,2023-03-10T14:08:18.960809,6377141,1907,390,695,-1009,-617,-297,114,82,-110
21022,4342,0,2023-03-10T14:08:18.965693,6377146,1907,390,695,-1009,-617,-297,114,82,-110
21023,4343,0,2023-03-10T14:08:18.970851,6377151,1907,390,695,-1009,-617,-297,114,82,-110
21024,4344,0,2023-03-10T14:08:18.975639,6377155,1907,390,695,-1009,-617,-297,114,82,-110
21025,4345,0,2023-03-10T14:08:18.980419,6377160,1916,388,708,-981,-617,-272,114,82,-110
21026,4346,0,2023-03-10T14:08:18.985590,6377165,1916,388,708,-981,-617,-272,114,82,-110
21027,4347,0,2023-03-10T14:08:18.989996,6377170,1916,388,708,-981,-617,-272,114,82,-110
21028,4348,0,2023-03-10T14:08:18.995121,6377175,1916,388,708,-981,-617,-272,114,82,-110
21029,4349,0,2023-03-10T14:08:18.999602,6377180,1916,388,708,-981,-617,-272,114,82,-110
21030,4350,0,2023-03-10T14:08:19.004263,6377184,1907,386,705,-975,-622,-272,114,82,-110
21031,4351,0,2023-03-10T14:08:19.009571,6377190,1907,386,705,-975,-622,-272,114,82,-110
21032,4352,0,2023-03-10T14:08:19.014507,6377195,1907,386,705,-975,-622,-272,114,82,-110
21033,4353,0,2023-03-10T14:08:19.018965,6377199,1907,386,705,-975,-622,-272,114,82,-110
21034,4354,0,2023-03-10T14:08:19.023371,6377203,1914,388,696,-1026,-640,-292,114,82,-110
21035,4355,0,2023-03-10T14:08:19.027997,6377208,1914,388,696,-1026,-640,-292,114,82,-110
21036,4356,0,2023-03-10T14:08:19.032847,6377212,1914,388,696,-1026,-640,-292,114,82,-110
21037,4357,0,2023-03-10T14:08:19.037255,6377218,1914,388,696,-1026,-640,-292,114,82,-110
21038,4358,0,2023-03-10T14:08:19.041696,6377222,1908,384,697,-985,-637,-274,112,78,-106
21039,4359,0,2023-03-10T14:08:19.046567,6377227,1908,384,697,-985,-637,-274,112,78,-106
21040,4360,0,2023-03-10T14:08:19.051295,6377232,1908,384,697,-985,-637,-274,112,78,-106
21041,4361,0,2023-03-10T14:08:19.055971,6377236,1908,384,697,-985,-637,-274,112,78,-106
21042,4362,0,2023-03-10T14:08:19.060247,6377240,1924,397,696,-994,-635,-286,112,78,-106
21043,4363,0,2023-03-10T14:08:19.065147,6377245,1924,397,696,-994,-635,-286,112,78,-106
21044,4364,0,2023-03-10T14:08:19.070083,6377250,1924,397,696,-994,-635,-286,112,78,-106
21045,4365,0,2023-03-10T14:08:19.075306,6377255,1924,397,696,-994,-635,-286,112,78,-106
21046,4366,0,2023-03-10T14:08:19.080050,6377261,1912,387,695,-965,-622,-245,112,78,-106
21047,4367,0,2023-03-10T14:08:19.085049,6377265,1912,387,695,-965,-622,-245,112,78,-106
21048,4368,0,2023-03-10T14:08:19.089621,6377270,1912,387,695,-965,-622,-245,112,78,-106
21049,4369,0,2023-03-10T14:08:19.094626,6377275,1912,387,695,-965,-622,-245,112,78,-106
21050,4370,0,2023-03-10T14:08:19.099192,6377279,1912,387,695,-965,-622,-245,112,78,-106
21051,4371,0,2023-03-10T14:08:19.103765,6377284,1910,384,700,-991,-619,-275,112,78,-106
21052,4372,0,2023-03-10T14:08:19.108783,6377289,1910,384,700,-991,-619,-275,112,78,-106
21053,4373,0,2023-03-10T14:08:19.113699,6377293,1910,384,700,-991,-619,-275,112,78,-106
21054,4374,0,2023-03-10T14:08:19.118080,6377298,1910,384,700,-991,-619,-275,112,78,-106
21055,4375,0,2023-03-10T14:08:19.122368,6377303,1902,385,688,-1036,-627,-285,112,78,-106
21056,4376,0,2023-03-10T14:08:19.127240,6377308,1902,385,688,-1036,-627,-285,112,78,-106
21057,4377,0,2023-03-10T14:08:19.132226,6377312,1902,385,688,-1036,-627,-285,112,78,-106
21058,4378,0,2023-03-10T14:08:19.136871,6377317,1902,385,688,-1036,-627,-285,112,78,-106
21059,4379,0,2023-03-10T14:08:19.141126,6377321,1925,389,700,-988,-616,-284,112,78,-106
21060,4380,0,2023-03-10T14:08:19.145914,6377326,1925,389,700,-988,-616,-284,112,78,-106
21061,4381,0,2023-03-10T14:08:19.150671,6377331,1925,389,700,-988,-616,-284,112,78,-106
21062,4382,0,2023-03-10T14:08:19.155209,6377335,1925,389,700,-988,-616,-284,112,78,-106
21063,4383,0,2023-03-10T14:08:19.159542,6377339,1925,389,700,-988,-616,-284,112,78,-106
21064,4384,0,2023-03-10T14:08:19.164253,6377344,1923,392,691,-995,-621,-278,112,78,-106
21065,4385,0,2023-03-10T14:08:19.169666,6377350,1923,392,691,-995,-621,-278,112,78,-106
21066,4386,0,2023-03-10T14:08:19.174592,6377355,1923,392,691,-995,-621,-278,112,78,-106
21067,4387,0,2023-03-10T14:08:19.179139,6377359,1923,392,691,-995,-621,-278,112,78,-106
21068,4388,0,2023-03-10T14:08:19.183803,6377364,1899,377,697,-1002,-621,-274,115,75,-107
21069,4389,0,2023-03-10T14:08:19.188861,6377369,1899,377,697,-1002,-621,-274,115,75,-107
21070,4390,0,2023-03-10T14:08:19.193722,6377374,1899,377,697,-1002,-621,-274,115,75,-107
21071,4391,0,2023-03-10T14:08:19.199086,6377379,1899,377,697,-1002,-621,-274,115,75,-107
21072,4392,0,2023-03-10T14:08:19.203616,6377383,1914,388,692,-994,-624,-284,115,75,-107
21073,4393,0,2023-03-10T14:08:19.208596,6377389,1914,388,692,-994,-624,-284,115,75,-107
21074,4394,0,2023-03-10T14:08:19.213427,6377394,1914,388,692,-994,-624,-284,115,75,-107
21075,4395,0,2023-03-10T14:08:19.217972,6377398,1914,388,692,-994,-624,-284,115,75,-107
21076,4396,0,2023-03-10T14:08:19.222439,6377403,1916,381,697,-948,-627,-238,115,75,-107
21077,4397,0,2023-03-10T14:08:19.227851,6377408,1916,381,697,-948,-627,-238,115,75,-107
21078,4398,0,2023-03-10T14:08:19.232969,6377413,1916,381,697,-948,-627,-238,115,75,-107
21079,4399,0,2023-03-10T14:08:19.237561,6377417,1916,381,697,-948,-627,-238,115,75,-107
21080,4400,0,2023-03-10T14:08:19.241902,6377422,1930,389,700,-1008,-642,-294,115,75,-107
21081,4401,0,2023-03-10T14:08:19.246465,6377426,1930,389,700,-1008,-642,-294,115,75,-107
21082,4402,0,2023-03-10T14:08:19.251352,6377432,1930,389,700,-1008,-642,-294,115,75,-107
21083,4403,0,2023-03-10T14:08:19.255843,6377436,1930,389,700,-1008,-642,-294,115,75,-107
21084,4404,0,2023-03-10T14:08:19.260355,6377441,1910,381,674,-1037,-644,-273,115,75,-107
21085,4405,0,2023-03-10T14:08:19.265241,6377445,1910,381,674,-1037,-644,-273,115,75,-107
21086,4406,0,2023-03-10T14:08:19.269623,6377450,1910,381,674,-1037,-644,-273,115,75,-107
21087,4407,0,2023-03-10T14:08:19.274833,6377455,1910,381,674,-1037,-644,-273,115,75,-107
21088,4408,0,2023-03-10T14:08:19.279358,6377459,1910,381,674,-1037,-644,-273,115,75,-107
21089,4409,0,2023-03-10T14:08:19.283792,6377464,1922,382,705,-985,-618,-278,115,75,-107
21090,4410,0,2023-03-10T14:08:19.289392,6377469,1922,382,705,-985,-618,-278,115,75,-107
21091,4411,0,2023-03-10T14:08:19.294596,6377475,1922,382,705,-985,-618,-278,115,75,-107
21092,4412,0,2023-03-10T14:08:19.299302,6377479,1922,382,705,-985,-618,-278,115,75,-107
21093,4413,0,2023-03-10T14:08:19.303593,6377484,1908,388,684,-1012,-640,-301,116,82,-104
21094,4414,0,2023-03-10T14:08:19.308777,6377489,1908,388,684,-1012,-640,-301,116,82,-104
21095,4415,0,2023-03-10T14:08:19.313753,6377494,1908,388,684,-1012,-640,-301,116,82,-104
21096,4416,0,2023-03-10T14:08:19.318432,6377498,1908,388,684,-1012,-640,-301,116,82,-104
21097,4417,0,2023-03-10T14:08:19.323152,6377503,1930,391,703,-993,-615,-277,116,82,-104
21098,4418,0,2023-03-10T14:08:19.328144,6377508,1930,391,703,-993,-615,-277,116,82,-104
21099,4419,0,2023-03-10T14:08:19.332354,6377512,1930,391,703,-993,-615,-277,116,82,-104
21100,4420,0,2023-03-10T14:08:19.337431,6377518,1930,391,703,-993,-615,-277,116,82,-104
21101,4421,0,2023-03-10T14:08:19.341736,6377522,1902,387,700,-977,-641,-265,116,82,-104
21102,4422,0,2023-03-10T14:08:19.346641,6377527,1902,387,700,-977,-641,-265,116,82,-104
21103,4423,0,2023-03-10T14:08:19.351640,6377532,1902,387,700,-977,-641,-265,116,82,-104
21104,4424,0,2023-03-10T14:08:19.356064,6377536,1902,387,700,-977,-641,-265,116,82,-104
21105,4425,0,2023-03-10T14:08:19.360612,6377541,1928,384,691,-1027,-623,-297,116,82,-104
21106,4426,0,2023-03-10T14:08:19.365239,6377545,1928,384,691,-1027,-623,-297,116,82,-104
21107,4427,0,2023-03-10T14:08:19.369489,6377549,1928,384,691,-1027,-623,-297,116,82,-104
21108,4428,0,2023-03-10T14:08:19.374142,6377554,1928,384,691,-1027,-623,-297,116,82,-104
21109,4429,0,2023-03-10T14:08:19.378597,6377559,1928,384,691,-1027,-623,-297,116,82,-104
21110,4430,0,2023-03-10T14:08:19.383097,6377564,1906,385,688,-979,-659,-258,116,82,-104
21111,4431,0,2023-03-10T14:08:19.387843,6377568,1906,385,688,-979,-659,-258,116,82,-104
21112,4432,0,2023-03-10T14:08:19.393071,6377573,1906,385,688,-979,-659,-258,116,82,-104
21113,4433,0,2023-03-10T14:08:19.397729,6377578,1906,385,688,-979,-659,-258,116,82,-104
21114,4434,0,2023-03-10T14:08:19.402198,6377582,1932,388,693,-991,-613,-284,116,82,-104
21115,4435,0,2023-03-10T14:08:19.407389,6377587,1932,388,693,-991,-613,-284,116,82,-104
21116,4436,0,2023-03-10T14:08:19.412413,6377592,1932,388,693,-991,-613,-284,116,82,-104
21117,4437,0,2023-03-10T14:08:19.416750,6377596,1932,388,693,-991,-613,-284,116,82,-104
21118,4438,0,2023-03-10T14:08:19.421258,6377602,1906,380,688,-999,-614,-282,116,82,-104
21119,4439,0,2023-03-10T14:08:19.426249,6377607,1906,380,688,-999,-614,-282,116,82,-104
21120,4440,0,2023-03-10T14:08:19.430933,6377611,1906,380,688,-999,-614,-282,116,82,-104
21121,4441,0,2023-03-10T14:08:19.435765,6377616,1906,380,688,-999,-614,-282,116,82,-104
21122,4442,0,2023-03-10T14:08:19.440098,6377620,1906,380,688,-999,-614,-282,116,82,-104
21123,4443,0,2023-03-10T14:08:19.444630,6377625,1910,383,694,-998,-634,-281,115,83,-115
21124,4444,0,2023-03-10T14:08:19.449439,6377629,1910,383,694,-998,-634,-281,115,83,-115
21125,4445,0,2023-03-10T14:08:19.454063,6377634,1910,383,694,-998,-634,-281,115,83,-115
21126,4446,0,2023-03-10T14:08:19.458137,6377638,1910,383,694,-998,-634,-281,115,83,-115
21127,4447,0,2023-03-10T14:08:19.462609,6377643,1930,392,693,-1008,-603,-288,115,83,-115
21128,4448,0,2023-03-10T14:08:19.467671,6377648,1930,392,693,-1008,-603,-288,115,83,-115
21129,4449,0,2023-03-10T14:08:19.472538,6377653,1930,392,693,-1008,-603,-288,115,83,-115
21130,4450,0,2023-03-10T14:08:19.477015,6377657,1930,392,693,-1008,-603,-288,115,83,-115
21131,4451,0,2023-03-10T14:08:19.481440,6377662,1910,383,696,-983,-638,-271,115,83,-115
21132,4452,0,2023-03-10T14:08:19.486531,6377666,1910,383,696,-983,-638,-271,115,83,-115
21133,4453,0,2023-03-10T14:08:19.491601,6377671,1910,383,696,-983,-638,-271,115,83,-115
21134,4454,0,2023-03-10T14:08:19.495913,6377676,1910,383,696,-983,-638,-271,115,83,-115
21135,4455,0,2023-03-10T14:08:19.500457,6377680,1910,383,696,-983,-638,-271,115,83,-115
21136,4456,0,2023-03-10T14:08:19.504837,6377684,1928,390,688,-1010,-620,-290,115,83,-115
21137,4457,0,2023-03-10T14:08:19.509693,6377690,1928,390,688,-1010,-620,-290,115,83,-115
21138,4458,0,2023-03-10T14:08:19.514147,6377694,1928,390,688,-1010,-620,-290,115,83,-115
21139,4459,0,2023-03-10T14:08:19.518715,6377699,1928,390,688,-1010,-620,-290,115,83,-115
21140,4460,0,2023-03-10T14:08:19.523161,6377703,1892,374,699,-958,-618,-245,115,83,-115
21141,4461,0,2023-03-10T14:08:19.528285,6377708,1892,374,699,-958,-618,-245,115,83,-115
21142,4462,0,2023-03-10T14:08:19.533112,6377713,1892,374,699,-958,-618,-245,115,83,-115
21143,4463,0,2023-03-10T14:08:19.537548,6377717,1892,374,699,-958,-618,-245,115,83,-115
21144,4464,0,2023-03-10T14:08:19.542028,6377722,1933,393,689,-988,-642,-302,115,83,-115
21145,4465,0,2023-03-10T14:08:19.547067,6377728,1933,393,689,-988,-642,-302,115,83,-115
21146,4466,0,2023-03-10T14:08:19.552487,6377733,1933,393,689,-988,-642,-302,115,83,-115
21147,4467,0,2023-03-10T14:08:19.557002,6377737,1933,393,689,-988,-642,-302,115,83,-115
21148,4468,0,2023-03-10T14:08:19.561503,6377742,1914,387,687,-1027,-628,-279,125,81,-105
21149,4469,0,2023-03-10T14:08:19.566521,6377746,1914,387,687,-1027,-628,-279,125,81,-105
21150,4470,0,2023-03-10T14:08:19.571917,6377752,1914,387,687,-1027,-628,-279,125,81,-105
21151,4471,0,2023-03-10T14:08:19.576300,6377756,1914,387,687,-1027,-628,-279,125,81,-105
21152,4472,0,2023-03-10T14:08:19.581055,6377761,1922,384,692,-993,-623,-283,125,81,-105
21153,4473,0,2023-03-10T14:08:19.586056,6377766,1922,384,692,-993,-623,-283,125,81,-105
21154,4474,0,2023-03-10T14:08:19.590555,6377771,1922,384,692,-993,-623,-283,125,81,-105
21155,4475,0,2023-03-10T14:08:19.594948,6377775,1922,384,692,-993,-623,-283,125,81,-105
21156,4476,0,2023-03-10T14:08:19.599320,6377780,1922,384,692,-993,-623,-283,125,81,-105
21157,4477,0,2023-03-10T14:08:19.603872,6377784,1898,380,691,-1010,-621,-276,125,81,-105
21158,4478,0,2023-03-10T14:08:19.608652,6377789,1898,380,691,-1010,-621,-276,125,81,-105
21159,4479,0,2023-03-10T14:08:19.612910,6377793,1898,380,691,-1010,-621,-276,125,81,-105
21160,4480,0,2023-03-10T14:08:19.617243,6377797,1898,380,691,-1010,-621,-276,125,81,-105
21161,4481,0,2023-03-10T14:08:19.621735,6377802,1928,387,697,-980,-616,-271,125,81,-105
21162,4482,0,2023-03-10T14:08:19.626877,6377807,1928,387,697,-980,-616,-271,125,81,-105
21163,4483,0,2023-03-10T14:08:19.631705,6377811,1928,387,697,-980,-616,-271,125,81,-105
21164,4484,0,2023-03-10T14:08:19.636300,6377816,1928,387,697,-980,-616,-271,125,81,-105
21165,4485,0,2023-03-10T14:08:19.640980,6377821,1924,384,695,-980,-635,-263,125,81,-105
21166,4486,0,2023-03-10T14:08:19.646053,6377826,1924,384,695,-980,-635,-263,125,81,-105
21167,4487,0,2023-03-10T14:08:19.651012,6377831,1924,384,695,-980,-635,-263,125,81,-105
21168,4488,0,2023-03-10T14:08:19.655505,6377835,1924,384,695,-980,-635,-263,125,81,-105
21169,4489,0,2023-03-10T14:08:19.659992,6377840,1924,384,695,-980,-635,-263,125,81,-105
21170,4490,0,2023-03-10T14:08:19.664678,6377844,1914,384,679,-1019,-634,-284,125,81,-105
21171,4491,0,2023-03-10T14:08:19.670414,6377850,1914,384,679,-1019,-634,-284,125,81,-105
21172,4492,0,2023-03-10T14:08:19.675421,6377856,1914,384,679,-1019,-634,-284,125,81,-105
21173,4493,0,2023-03-10T14:08:19.679950,6377860,1914,384,679,-1019,-634,-284,125,81,-105
21174,4494,0,2023-03-10T14:08:19.684411,6377865,1920,379,688,-982,-617,-272,116,74,-102
21175,4495,0,2023-03-10T14:08:19.689429,6377870,1920,379,688,-982,-617,-272,116,74,-102
21176,4496,0,2023-03-10T14:08:19.694506,6377875,1920,379,688,-982,-617,-272,116,74,-102
21177,4497,0,2023-03-10T14:08:19.698818,6377879,1920,379,688,-982,-617,-272,116,74,-102
21178,4498,0,2023-03-10T14:08:19.703287,6377883,1927,391,695,-992,-653,-295,116,74,-102
21179,4499,0,2023-03-10T14:08:19.709061,6377889,1927,391,695,-992,-653,-295,116,74,-102
21180,4500,0,2023-03-10T14:08:19.714023,6377894,1927,391,695,-992,-653,-295,116,74,-102
21181,4501,0,2023-03-10T14:08:19.718326,6377899,1927,391,695,-992,-653,-295,116,74,-102
21182,4502,0,2023-03-10T14:08:19.723095,6377904,1917,377,688,-1006,-615,-263,116,74,-102
21183,4503,0,2023-03-10T14:08:19.728320,6377909,1917,377,688,-1006,-615,-263,116,74,-102
21184,4504,0,2023-03-10T14:08:19.733943,6377914,1917,377,688,-1006,-615,-263,116,74,-102
21185,4505,0,2023-03-10T14:08:19.738079,6377918,1917,377,688,-1006,-615,-263,116,74,-102
21186,4506,0,2023-03-10T14:08:19.742452,6377923,1931,394,690,-998,-623,-302,116,74,-102
21187,4507,0,2023-03-10T14:08:19.746999,6377927,1931,394,690,-998,-623,-302,116,74,-102
21188,4508,0,2023-03-10T14:08:19.752614,6377932,1931,394,690,-998,-623,-302,116,74,-102
21189,4509,0,2023-03-10T14:08:19.757046,6377937,1931,394,690,-998,-623,-302,116,74,-102
21190,4510,0,2023-03-10T14:08:19.761490,6377942,1903,377,688,-976,-631,-242,116,74,-102
