,Unnamed: 0,imu,server_time,arduino_time,ax,ay,az,gx,gy,gz,mx,my,mz
21636,4956,0,2023-03-10T14:08:21.887023,6380067,1931,380,663,-995,-638,-278,126,78,-112
21637,4957,0,2023-03-10T14:08:21.893119,6380073,1931,380,663,-995,-638,-278,126,78,-112
21638,4958,0,2023-03-10T14:08:21.897594,6380078,1931,380,663,-995,-638,-278,126,78,-112
21639,4959,0,2023-03-10T14:08:21.902108,6380082,1931,380,663,-995,-638,-278,126,78,-112
21640,4960,0,2023-03-10T14:08:21.906680,6380087,1937,380,668,-986,-621,-273,126,78,-112
21641,4961,0,2023-03-10T14:08:21.911715,6380092,1937,380,668,-986,-621,-273,126,78,-112
21642,4962,0,2023-03-10T14:08:21.916783,6380097,1937,380,668,-986,-621,-273,126,78,-112
21643,4963,0,2023-03-10T14:08:21.921299,6380101,1937,380,668,-986,-621,-273,126,78,-112
21644,4964,0,2023-03-10T14:08:21.925751,6380106,1916,374,669,-1004,-622,-291,126,78,-112
21645,4965,0,2023-03-10T14:08:21.930630,6380110,1916,374,669,-1004,-622,-291,126,78,-112
21646,4966,0,2023-03-10T14:08:21.935602,6380115,1916,374,669,-1004,-622,-291,126,78,-112
21647,4967,0,2023-03-10T14:08:21.940058,6380121,1916,374,669,-1004,-622,-291,126,78,-112
21648,4968,0,2023-03-10T14:08:21.944435,6380125,1953,383,664,-1014,-649,-294,126,78,-112
21649,4969,0,2023-03-10T14:08:21.949623,6380130,1953,383,664,-1014,-649,-294,126,78,-112
21650,4970,0,2023-03-10T14:08:21.954070,6380134,1953,383,664,-1014,-649,-294,126,78,-112
21651,4971,0,2023-03-10T14:08:21.958750,6380139,1953,383,664,-1014,-649,-294,126,78,-112
21652,4972,0,2023-03-10T14:08:21.963094,6380143,1953,383,664,-1014,-649,-294,126,78,-112
21653,4973,0,2023-03-10T14:08:21.967521,6380147,1939,383,660,-997,-637,-293,126,78,-112
21654,4974,0,2023-03-10T14:08:21.972997,6380153,1939,383,660,-997,-637,-293,126,78,-112
21655,4975,0,2023-03-10T14:08:21.977650,6380157,1939,383,660,-997,-637,-293,126,78,-112
21656,4976,0,2023-03-10T14:08:21.982192,6380163,1939,383,660,-997,-637,-293,126,78,-112
21657,4977,0,2023-03-10T14:08:21.986859,6380167,1929,373,657,-1003,-627,-274,126,78,-112
21658,4978,0,2023-03-10T14:08:21.992606,6380173,1929,373,657,-1003,-627,-274,126,78,-112
21659,4979,0,2023-03-10T14:08:21.997704,6380178,1929,373,657,-1003,-627,-274,126,78,-112
21660,4980,0,2023-03-10T14:08:22.002265,6380182,1929,373,657,-1003,-627,-274,126,78,-112
21661,4981,0,2023-03-10T14:08:22.006994,6380187,1925,371,670,-978,-632,-275,119,79,-105
21662,4982,0,2023-03-10T14:08:22.011623,6380192,1925,371,670,-978,-632,-275,119,79,-105
21663,4983,0,2023-03-10T14:08:22.016385,6380196,1925,371,670,-978,-632,-275,119,79,-105
21664,4984,0,2023-03-10T14:08:22.020882,6380200,1925,371,670,-978,-632,-275,119,79,-105
21665,4985,0,2023-03-10T14:08:22.025558,6380206,1942,385,663,-1014,-621,-293,119,79,-105
21666,4986,0,2023-03-10T14:08:22.030489,6380211,1942,385,663,-1014,-621,-293,119,79,-105
21667,4987,0,2023-03-10T14:08:22.035454,6380215,1942,385,663,-1014,-621,-293,119,79,-105
21668,4988,0,2023-03-10T14:08:22.040344,6380220,1942,385,663,-1014,-621,-293,119,79,-105
21669,4989,0,2023-03-10T14:08:22.044806,6380225,1940,381,653,-1009,-640,-284,119,79,-105
21670,4990,0,2023-03-10T14:08:22.050055,6380230,1940,381,653,-1009,-640,-284,119,79,-105
21671,4991,0,2023-03-10T14:08:22.055412,6380235,1940,381,653,-1009,-640,-284,119,79,-105
21672,4992,0,2023-03-10T14:08:22.060212,6380240,1940,381,653,-1009,-640,-284,119,79,-105
21673,4993,0,2023-03-10T14:08:22.065021,6380244,1932,378,657,-1006,-615,-292,119,79,-105
21674,4994,0,2023-03-10T14:08:22.070819,6380251,1932,378,657,-1006,-615,-292,119,79,-105
21675,4995,0,2023-03-10T14:08:22.076155,6380256,1932,378,657,-1006,-615,-292,119,79,-105
21676,4996,0,2023-03-10T14:08:22.081099,6380261,1932,378,657,-1006,-615,-292,119,79,-105
21677,4997,0,2023-03-10T14:08:22.085801,6380266,1933,373,663,-1006,-642,-279,119,79,-105
21678,4998,0,2023-03-10T14:08:22.091297,6380271,1933,373,663,-1006,-642,-279,119,79,-105
21679,4999,0,2023-03-10T14:08:22.096810,6380277,1933,373,663,-1006,-642,-279,119,79,-105
21680,5000,0,2023-03-10T14:08:22.101441,6380281,1933,373,663,-1006,-642,-279,119,79,-105
21681,5001,0,2023-03-10T14:08:22.105868,6380285,1945,383,656,-1017,-614,-302,119,79,-105
21682,5002,0,2023-03-10T14:08:22.111358,6380292,1945,383,656,-1017,-614,-302,119,79,-105
21683,5003,0,2023-03-10T14:08:22.116613,6380297,1945,383,656,-1017,-614,-302,119,79,-105
21684,5004,0,2023-03-10T14:08:22.121127,6380302,1945,383,656,-1017,-614,-302,119,79,-105
21685,5005,0,2023-03-10T14:08:22.125536,6380306,1934,379,656,-989,-636,-255,120,72,-122
21686,5006,0,2023-03-10T14:08:22.130281,6380310,1934,379,656,-989,-636,-255,120,72,-122
21687,5007,0,2023-03-10T14:08:22.135190,6380315,1934,379,656,-989,-636,-255,120,72,-122
21688,5008,0,2023-03-10T14:08:22.139803,6380320,1934,379,656,-989,-636,-255,120,72,-122
21689,5009,0,2023-03-10T14:08:22.144299,6380324,1935,377,671,-980,-613,-279,120,72,-122
21690,5010,0,2023-03-10T14:08:22.149262,6380329,1935,377,671,-980,-613,-279,120,72,-122
21691,5011,0,2023-03-10T14:08:22.154136,6380335,1935,377,671,-980,-613,-279,120,72,-122
21692,5012,0,2023-03-10T14:08:22.158650,6380339,1935,377,671,-980,-613,-279,120,72,-122
21693,5013,0,2023-03-10T14:08:22.163075,6380343,1935,377,671,-980,-613,-279,120,72,-122
21694,5014,0,2023-03-10T14:08:22.167485,6380348,1931,373,655,-1013,-663,-279,120,72,-122
21695,5015,0,2023-03-10T14:08:22.172801,6380353,1931,373,655,-1013,-663,-279,120,72,-122
21696,5016,0,2023-03-10T14:08:22.177184,6380357,1931,373,655,-1013,-663,-279,120,72,-122
21697,5017,0,2023-03-10T14:08:22.181852,6380362,1931,373,655,-1013,-663,-279,120,72,-122
21698,5018,0,2023-03-10T14:08:22.186403,6380366,1948,381,657,-1003,-621,-288,120,72,-122
21699,5019,0,2023-03-10T14:08:22.191440,6380371,1948,381,657,-1003,-621,-288,120,72,-122
21700,5020,0,2023-03-10T14:08:22.196468,6380377,1948,381,657,-1003,-621,-288,120,72,-122
21701,5021,0,2023-03-10T14:08:22.200997,6380381,1948,381,657,-1003,-621,-288,120,72,-122
21702,5022,0,2023-03-10T14:08:22.205403,6380386,1941,377,658,-996,-633,-284,120,72,-122
21703,5023,0,2023-03-10T14:08:22.210343,6380391,1941,377,658,-996,-633,-284,120,72,-122
21704,5024,0,2023-03-10T14:08:22.214828,6380395,1941,377,658,-996,-633,-284,120,72,-122
21705,5025,0,2023-03-10T14:08:22.219298,6380399,1941,377,658,-996,-633,-284,120,72,-122
21706,5026,0,2023-03-10T14:08:22.223614,6380404,1941,377,658,-996,-633,-284,120,72,-122
21707,5027,0,2023-03-10T14:08:22.228066,6380408,1938,379,652,-1004,-615,-290,120,72,-122
21708,5028,0,2023-03-10T14:08:22.233029,6380413,1938,379,652,-1004,-615,-290,120,72,-122
21709,5029,0,2023-03-10T14:08:22.237510,6380418,1938,379,652,-1004,-615,-290,120,72,-122
21710,5030,0,2023-03-10T14:08:22.242187,6380423,1938,379,652,-1004,-615,-290,120,72,-122
21711,5031,0,2023-03-10T14:08:22.246776,6380427,1922,371,664,-986,-627,-266,120,72,-122
21712,5032,0,2023-03-10T14:08:22.251606,6380432,1922,371,664,-986,-627,-266,120,72,-122
21713,5033,0,2023-03-10T14:08:22.256645,6380437,1922,371,664,-986,-627,-266,120,72,-122
21714,5034,0,2023-03-10T14:08:22.261337,6380441,1922,371,664,-986,-627,-266,120,72,-122
21715,5035,0,2023-03-10T14:08:22.265803,6380446,1949,379,660,-1014,-627,-307,121,73,-105
21716,5036,0,2023-03-10T14:08:22.270695,6380450,1949,379,660,-1014,-627,-307,121,73,-105
21717,5037,0,2023-03-10T14:08:22.275083,6380455,1949,379,660,-1014,-627,-307,121,73,-105
21718,5038,0,2023-03-10T14:08:22.279495,6380460,1949,379,660,-1014,-627,-307,121,73,-105
21719,5039,0,2023-03-10T14:08:22.284076,6380464,1949,379,660,-1014,-627,-307,121,73,-105
21720,5040,0,2023-03-10T14:08:22.288648,6380469,1944,379,654,-1023,-640,-284,121,73,-105
21721,5041,0,2023-03-10T14:08:22.293615,6380474,1944,379,654,-1023,-640,-284,121,73,-105
21722,5042,0,2023-03-10T14:08:22.298338,6380479,1944,379,654,-1023,-640,-284,121,73,-105
21723,5043,0,2023-03-10T14:08:22.302855,6380483,1944,379,654,-1023,-640,-284,121,73,-105
21724,5044,0,2023-03-10T14:08:22.307366,6380487,1931,376,650,-998,-646,-283,121,73,-105
21725,5045,0,2023-03-10T14:08:22.312197,6380492,1931,376,650,-998,-646,-283,121,73,-105
21726,5046,0,2023-03-10T14:08:22.316905,6380496,1931,376,650,-998,-646,-283,121,73,-105
21727,5047,0,2023-03-10T14:08:22.321455,6380502,1931,376,650,-998,-646,-283,121,73,-105
21728,5048,0,2023-03-10T14:08:22.325904,6380506,1947,381,660,-1020,-603,-293,121,73,-105
21729,5049,0,2023-03-10T14:08:22.331299,6380512,1947,381,660,-1020,-603,-293,121,73,-105
21730,5050,0,2023-03-10T14:08:22.336007,6380516,1947,381,660,-1020,-603,-293,121,73,-105
21731,5051,0,2023-03-10T14:08:22.340486,6380521,1947,381,660,-1020,-603,-293,121,73,-105
21732,5052,0,2023-03-10T14:08:22.345247,6380525,1935,385,653,-989,-626,-275,121,73,-105
21733,5053,0,2023-03-10T14:08:22.349789,6380530,1935,385,653,-989,-626,-275,121,73,-105
21734,5054,0,2023-03-10T14:08:22.355312,6380535,1935,385,653,-989,-626,-275,121,73,-105
21735,5055,0,2023-03-10T14:08:22.359902,6380540,1935,385,653,-989,-626,-275,121,73,-105
21736,5056,0,2023-03-10T14:08:22.364328,6380545,1935,385,653,-989,-626,-275,121,73,-105
21737,5057,0,2023-03-10T14:08:22.368592,6380549,1952,376,664,-994,-617,-278,121,73,-105
21738,5058,0,2023-03-10T14:08:22.373426,6380554,1952,376,664,-994,-617,-278,121,73,-105
21739,5059,0,2023-03-10T14:08:22.378116,6380558,1952,376,664,-994,-617,-278,121,73,-105
21740,5060,0,2023-03-10T14:08:22.382612,6380563,1952,376,664,-994,-617,-278,121,73,-105
21741,5061,0,2023-03-10T14:08:22.387041,6380567,1926,376,652,-1016,-643,-288,125,79,-113
21742,5062,0,2023-03-10T14:08:22.391961,6380572,1926,376,652,-1016,-643,-288,125,79,-113
21743,5063,0,2023-03-10T14:08:22.396343,6380576,1926,376,652,-1016,-643,-288,125,79,-113
21744,5064,0,2023-03-10T14:08:22.400705,6380581,1926,376,652,-1016,-643,-288,125,79,-113
21745,5065,0,2023-03-10T14:08:22.405211,6380585,1953,373,661,-1018,-625,-293,125,79,-113
21746,5066,0,2023-03-10T14:08:22.410008,6380591,1953,373,661,-1018,-625,-293,125,79,-113
21747,5067,0,2023-03-10T14:08:22.414740,6380595,1953,373,661,-1018,-625,-293,125,79,-113
21748,5068,0,2023-03-10T14:08:22.419205,6380600,1953,373,661,-1018,-625,-293,125,79,-113
21749,5069,0,2023-03-10T14:08:22.424223,6380604,1953,373,661,-1018,-625,-293,125,79,-113
21750,5070,0,2023-03-10T14:08:22.429145,6380609,1930,377,647,-986,-655,-285,125,79,-113
21751,5071,0,2023-03-10T14:08:22.434647,6380615,1930,377,647,-986,-655,-285,125,79,-113
21752,5072,0,2023-03-10T14:08:22.439012,6380619,1930,377,647,-986,-655,-285,125,79,-113
21753,5073,0,2023-03-10T14:08:22.443241,6380623,1930,377,647,-986,-655,-285,125,79,-113
21754,5074,0,2023-03-10T14:08:22.447785,6380628,1954,382,652,-1008,-608,-294,125,79,-113
21755,5075,0,2023-03-10T14:08:22.453331,6380634,1954,382,652,-1008,-608,-294,125,79,-113
21756,5076,0,2023-03-10T14:08:22.457805,6380638,1954,382,652,-1008,-608,-294,125,79,-113
21757,5077,0,2023-03-10T14:08:22.462425,6380643,1954,382,652,-1008,-608,-294,125,79,-113
21758,5078,0,2023-03-10T14:08:22.466981,6380647,1922,370,659,-980,-606,-272,125,79,-113
21759,5079,0,2023-03-10T14:08:22.472085,6380652,1922,370,659,-980,-606,-272,125,79,-113
21760,5080,0,2023-03-10T14:08:22.477377,6380657,1922,370,659,-980,-606,-272,125,79,-113
21761,5081,0,2023-03-10T14:08:22.481717,6380662,1922,370,659,-980,-606,-272,125,79,-113
21762,5082,0,2023-03-10T14:08:22.486052,6380666,1933,378,650,-1004,-652,-286,125,79,-113
21763,5083,0,2023-03-10T14:08:22.491457,6380672,1933,378,650,-1004,-652,-286,125,79,-113
21764,5084,0,2023-03-10T14:08:22.496454,6380677,1933,378,650,-1004,-652,-286,125,79,-113
21765,5085,0,2023-03-10T14:08:22.501069,6380681,1933,378,650,-1004,-652,-286,125,79,-113
21766,5086,0,2023-03-10T14:08:22.505666,6380686,1947,383,658,-1032,-612,-294,125,79,-113
21767,5087,0,2023-03-10T14:08:22.510793,6380691,1947,383,658,-1032,-612,-294,125,79,-113
21768,5088,0,2023-03-10T14:08:22.515868,6380696,1947,383,658,-1032,-612,-294,125,79,-113
21769,5089,0,2023-03-10T14:08:22.520436,6380700,1947,383,658,-1032,-612,-294,125,79,-113
21770,5090,0,2023-03-10T14:08:22.524842,6380705,1942,375,653,-1005,-690,-284,119,79,-113
21771,5091,0,2023-03-10T14:08:22.529333,6380709,1942,375,653,-1005,-690,-284,119,71,-97
21772,5092,0,2023-03-10T14:08:22.534464,6380715,1942,375,653,-1005,-690,-284,119,71,-97
21773,5093,0,2023-03-10T14:08:22.539150,6380720,1942,375,653,-1005,-690,-284,119,71,-97
21774,5094,0,2023-03-10T14:08:22.543393,6380724,1942,375,653,-1005,-690,-284,119,71,-97
21775,5095,0,2023-03-10T14:08:22.548167,6380729,1948,380,650,-1006,-639,-278,119,71,-97
21776,5096,0,2023-03-10T14:08:22.553161,6380733,1948,380,650,-1006,-639,-278,119,71,-97
21777,5097,0,2023-03-10T14:08:22.558044,6380738,1948,380,650,-1006,-639,-278,119,71,-97
21778,5098,0,2023-03-10T14:08:22.562351,6380742,1948,380,650,-1006,-639,-278,119,71,-97
21779,5099,0,2023-03-10T14:08:22.567261,6380747,1923,372,654,-1004,-581,-275,119,71,-97
21780,5100,0,2023-03-10T14:08:22.571628,6380751,1923,372,654,-1004,-581,-275,119,71,-97
21781,5101,0,2023-03-10T14:08:22.576239,6380756,1923,372,654,-1004,-581,-275,119,71,-97
21782,5102,0,2023-03-10T14:08:22.580634,6380761,1923,372,654,-1004,-581,-275,119,71,-97
21783,5103,0,2023-03-10T14:08:22.585076,6380766,1959,390,665,-1014,-621,-307,119,71,-97
21784,5104,0,2023-03-10T14:08:22.590199,6380771,1959,390,665,-1014,-621,-307,119,71,-97
21785,5105,0,2023-03-10T14:08:22.595290,6380775,1959,390,665,-1014,-621,-307,119,71,-97
21786,5106,0,2023-03-10T14:08:22.600008,6380780,1959,390,665,-1014,-621,-307,119,71,-97
21787,5107,0,2023-03-10T14:08:22.604418,6380784,1959,390,665,-1014,-621,-307,119,71,-97
21788,5108,0,2023-03-10T14:08:22.609017,6380789,1932,376,654,-1017,-626,-268,119,71,-97
21789,5109,0,2023-03-10T14:08:22.614342,6380794,1932,376,654,-1017,-626,-268,119,71,-97
21790,5110,0,2023-03-10T14:08:22.618944,6380800,1932,376,654,-1017,-626,-268,119,71,-97
21791,5111,0,2023-03-10T14:08:22.623439,6380804,1932,376,654,-1017,-626,-268,119,71,-97
21792,5112,0,2023-03-10T14:08:22.628080,6380808,1951,378,653,-1000,-627,-299,119,71,-97
21793,5113,0,2023-03-10T14:08:22.633484,6380814,1951,378,653,-1000,-627,-299,119,71,-97
21794,5114,0,2023-03-10T14:08:22.638035,6380818,1951,378,653,-1000,-627,-299,119,71,-97
21795,5115,0,2023-03-10T14:08:22.642404,6380823,1951,378,653,-1000,-627,-299,119,71,-97
21796,5116,0,2023-03-10T14:08:22.646950,6380827,1936,379,653,-998,-632,-261,119,75,-107
21797,5117,0,2023-03-10T14:08:22.651343,6380831,1936,379,653,-998,-632,-261,119,75,-107
21798,5118,0,2023-03-10T14:08:22.656043,6380836,1936,379,653,-998,-632,-261,119,75,-107
21799,5119,0,2023-03-10T14:08:22.660480,6380840,1936,379,653,-998,-632,-261,119,75,-107
21800,5120,0,2023-03-10T14:08:22.664899,6380846,1945,378,669,-960,-618,-266,119,75,-107
21801,5121,0,2023-03-10T14:08:22.669934,6380850,1945,378,669,-960,-618,-266,119,75,-107
21802,5122,0,2023-03-10T14:08:22.675197,6380856,1945,378,669,-960,-618,-266,119,75,-107
21803,5123,0,2023-03-10T14:08:22.679603,6380860,1945,378,669,-960,-618,-266,119,75,-107
21804,5124,0,2023-03-10T14:08:22.684195,6380864,1945,378,669,-960,-618,-266,119,75,-107
21805,5125,0,2023-03-10T14:08:22.688838,6380869,1953,382,651,-1009,-627,-291,119,75,-107
21806,5126,0,2023-03-10T14:08:22.693834,6380874,1953,382,651,-1009,-627,-291,119,75,-107
21807,5127,0,2023-03-10T14:08:22.698410,6380878,1953,382,651,-1009,-627,-291,119,75,-107
21808,5128,0,2023-03-10T14:08:22.703014,6380883,1953,382,651,-1009,-627,-291,119,75,-107
21809,5129,0,2023-03-10T14:08:22.707353,6380888,1927,376,645,-1009,-630,-275,119,75,-107
21810,5130,0,2023-03-10T14:08:22.713039,6380894,1927,376,645,-1009,-630,-275,119,75,-107
21811,5131,0,2023-03-10T14:08:22.717627,6380898,1927,376,645,-1009,-630,-275,119,75,-107
21812,5132,0,2023-03-10T14:08:22.722117,6380902,1927,376,645,-1009,-630,-275,119,75,-107
21813,5133,0,2023-03-10T14:08:22.726735,6380907,1935,371,651,-990,-637,-291,119,75,-107
21814,5134,0,2023-03-10T14:08:22.731638,6380912,1935,371,651,-990,-637,-291,119,75,-107
21815,5135,0,2023-03-10T14:08:22.736572,6380917,1935,371,651,-990,-637,-291,119,75,-107
21816,5136,0,2023-03-10T14:08:22.741056,6380921,1935,371,651,-990,-637,-291,119,75,-107
21817,5137,0,2023-03-10T14:08:22.745447,6380925,1952,383,645,-1006,-619,-297,119,75,-107
21818,5138,0,2023-03-10T14:08:22.750788,6380931,1952,383,645,-1006,-619,-297,119,75,-107
21819,5139,0,2023-03-10T14:08:22.755932,6380936,1952,383,645,-1006,-619,-297,119,75,-107
21820,5140,0,2023-03-10T14:08:22.760252,6380941,1952,383,645,-1006,-619,-297,119,75,-107
21821,5141,0,2023-03-10T14:08:22.764782,6380945,1952,383,645,-1006,-619,-297,119,75,-107
21822,5142,0,2023-03-10T14:08:22.769123,6380949,1949,376,652,-988,-628,-269,128,70,-110
21823,5143,0,2023-03-10T14:08:22.774795,6380955,1949,376,652,-988,-628,-269,128,70,-110
21824,5144,0,2023-03-10T14:08:22.779199,6380959,1949,376,652,-988,-628,-269,128,70,-110
21825,5145,0,2023-03-10T14:08:22.783504,6380963,1949,376,652,-988,-628,-269,128,70,-110
21826,5146,0,2023-03-10T14:08:22.788001,6380968,1929,375,658,-990,-643,-269,128,70,-110
21827,5147,0,2023-03-10T14:08:22.793303,6380974,1929,375,658,-990,-643,-269,128,70,-110
21828,5148,0,2023-03-10T14:08:22.797866,6380978,1929,375,658,-990,-643,-269,128,70,-110
21829,5149,0,2023-03-10T14:08:22.802229,6380983,1929,375,658,-990,-643,-269,128,70,-110
21830,5150,0,2023-03-10T14:08:22.806807,6380987,1949,375,657,-1021,-622,-304,128,70,-110
21831,5151,0,2023-03-10T14:08:22.811902,6380992,1949,375,657,-1021,-622,-304,128,70,-110
21832,5152,0,2023-03-10T14:08:22.816669,6380997,1949,375,657,-1021,-622,-304,128,70,-110
21833,5153,0,2023-03-10T14:08:22.821122,6381001,1949,375,657,-1021,-622,-304,128,70,-110
21834,5154,0,2023-03-10T14:08:22.825428,6381005,1936,375,644,-1009,-646,-281,128,70,-110
21835,5155,0,2023-03-10T14:08:22.829746,6381009,1936,375,644,-1009,-646,-281,128,70,-110
21836,5156,0,2023-03-10T14:08:22.834986,6381016,1936,375,644,-1009,-646,-281,128,70,-110
21837,5157,0,2023-03-10T14:08:22.839418,6381020,1936,375,644,-1009,-646,-281,128,70,-110
21838,5158,0,2023-03-10T14:08:22.844221,6381025,1936,375,644,-1009,-646,-281,128,70,-110
21839,5159,0,2023-03-10T14:08:22.849080,6381029,1959,377,650,-1004,-630,-286,128,70,-110
21840,5160,0,2023-03-10T14:08:22.854806,6381035,1959,377,650,-1004,-630,-286,128,70,-110
21841,5161,0,2023-03-10T14:08:22.859120,6381039,1959,377,650,-1004,-630,-286,128,70,-110
21842,5162,0,2023-03-10T14:08:22.863540,6381044,1959,377,650,-1004,-630,-286,128,70,-110
21843,5163,0,2023-03-10T14:08:22.867938,6381048,1927,381,637,-993,-642,-282,128,70,-110
21844,5164,0,2023-03-10T14:08:22.873124,6381053,1927,381,637,-993,-642,-282,128,70,-110
21845,5165,0,2023-03-10T14:08:22.877760,6381058,1927,381,637,-993,-642,-282,128,70,-110
21846,5166,0,2023-03-10T14:08:22.882108,6381063,1927,381,637,-993,-642,-282,128,70,-110
21847,5167,0,2023-03-10T14:08:22.886620,6381067,1948,372,652,-993,-611,-270,128,70,-110
21848,5168,0,2023-03-10T14:08:22.892154,6381072,1948,372,652,-993,-611,-270,128,70,-110
21849,5169,0,2023-03-10T14:08:22.897063,6381077,1948,372,652,-993,-611,-270,128,70,-110
21850,5170,0,2023-03-10T14:08:22.901460,6381082,1948,372,652,-993,-611,-270,128,70,-110
21851,5171,0,2023-03-10T14:08:22.905946,6381086,1934,375,655,-1007,-656,-290,116,76,-114
21852,5172,0,2023-03-10T14:08:22.910761,6381091,1934,375,655,-1007,-656,-290,116,76,-114
21853,5173,0,2023-03-10T14:08:22.915589,6381095,1934,375,655,-1007,-656,-290,116,76,-114
21854,5174,0,2023-03-10T14:08:22.920089,6381101,1934,375,655,-1007,-656,-290,116,76,-114
21855,5175,0,2023-03-10T14:08:22.924451,6381105,1934,375,655,-1007,-656,-290,116,76,-114
21856,5176,0,2023-03-10T14:08:22.928957,6381109,1959,375,644,-1025,-624,-285,116,76,-114
21857,5177,0,2023-03-10T14:08:22.934893,6381115,1959,375,644,-1025,-624,-285,116,76,-114
21858,5178,0,2023-03-10T14:08:22.939128,6381119,1959,375,644,-1025,-624,-285,116,76,-114
21859,5179,0,2023-03-10T14:08:22.943678,6381124,1959,375,644,-1025,-624,-285,116,76,-114
21860,5180,0,2023-03-10T14:08:22.947998,6381128,1926,374,640,-1002,-638,-286,116,76,-114
21861,5181,0,2023-03-10T14:08:22.953637,6381133,1926,374,640,-1002,-638,-286,116,76,-114
21862,5182,0,2023-03-10T14:08:22.958104,6381138,1926,374,640,-1002,-638,-286,116,76,-114
21863,5183,0,2023-03-10T14:08:22.962861,6381143,1926,374,640,-1002,-638,-286,116,76,-114
21864,5184,0,2023-03-10T14:08:22.967333,6381148,1942,371,639,-996,-639,-275,116,76,-114
21865,5185,0,2023-03-10T14:08:22.972036,6381152,1942,371,639,-996,-639,-275,116,76,-114
21866,5186,0,2023-03-10T14:08:22.976649,6381157,1942,371,639,-996,-639,-275,116,76,-114
21867,5187,0,2023-03-10T14:08:22.981251,6381161,1942,371,639,-996,-639,-275,116,76,-114
21868,5188,0,2023-03-10T14:08:22.985770,6381166,1949,375,655,-983,-611,-279,116,76,-114
21869,5189,0,2023-03-10T14:08:22.990787,6381171,1949,375,655,-983,-611,-279,116,76,-114
21870,5190,0,2023-03-10T14:08:22.995839,6381176,1949,375,655,-983,-611,-279,116,76,-114
21871,5191,0,2023-03-10T14:08:23.000497,6381180,1949,375,655,-983,-611,-279,116,76,-114
21872,5192,0,2023-03-10T14:08:23.005018,6381186,1949,375,655,-983,-611,-279,116,76,-114
21873,5193,0,2023-03-10T14:08:23.009586,6381190,1944,383,648,-1015,-643,-295,116,76,-114
21874,5194,0,2023-03-10T14:08:23.015431,6381196,1944,383,648,-1015,-643,-295,116,76,-114
21875,5195,0,2023-03-10T14:08:23.019961,6381200,1944,383,648,-1015,-643,-295,116,76,-114
21876,5196,0,2023-03-10T14:08:23.024360,6381205,1944,383,648,-1015,-643,-295,116,76,-114
21877,5197,0,2023-03-10T14:08:23.028701,6381209,1948,373,648,-1016,-626,-274,121,73,-115
21878,5198,0,2023-03-10T14:08:23.034517,6381214,1948,373,648,-1016,-626,-274,121,73,-115
21879,5199,0,2023-03-10T14:08:23.039085,6381219,1948,373,648,-1016,-626,-274,121,73,-115
21880,5200,0,2023-03-10T14:08:23.043778,6381223,1948,373,648,-1016,-626,-274,121,73,-115
21881,5201,0,2023-03-10T14:08:23.048198,6381229,1930,379,658,-995,-619,-293,121,73,-115
21882,5202,0,2023-03-10T14:08:23.053406,6381234,1930,379,658,-995,-619,-293,121,73,-115
21883,5203,0,2023-03-10T14:08:23.058037,6381238,1930,379,658,-995,-619,-293,121,73,-115
21884,5204,0,2023-03-10T14:08:23.062630,6381243,1930,379,658,-995,-619,-293,121,73,-115
21885,5205,0,2023-03-10T14:08:23.066779,6381247,1960,376,646,-997,-634,-278,121,73,-115
21886,5206,0,2023-03-10T14:08:23.072063,6381252,1960,376,646,-997,-634,-278,121,73,-115
21887,5207,0,2023-03-10T14:08:23.077212,6381257,1960,376,646,-997,-634,-278,121,73,-115
21888,5208,0,2023-03-10T14:08:23.081646,6381262,1960,376,646,-997,-634,-278,121,73,-115
21889,5209,0,2023-03-10T14:08:23.086188,6381266,1947,371,646,-990,-635,-289,121,73,-115
21890,5210,0,2023-03-10T14:08:23.091152,6381272,1947,371,646,-990,-635,-289,121,73,-115
21891,5211,0,2023-03-10T14:08:23.096254,6381277,1947,371,646,-990,-635,-289,121,73,-115
21892,5212,0,2023-03-10T14:08:23.100862,6381281,1947,371,646,-990,-635,-289,121,73,-115
21893,5213,0,2023-03-10T14:08:23.105212,6381286,1947,371,646,-990,-635,-289,121,73,-115
21894,5214,0,2023-03-10T14:08:23.110032,6381290,1931,370,637,-1014,-634,-273,121,73,-115
21895,5215,0,2023-03-10T14:08:23.115275,6381295,1931,370,637,-1014,-634,-273,121,73,-115
21896,5216,0,2023-03-10T14:08:23.119706,6381300,1931,370,637,-1014,-634,-273,121,73,-115
21897,5217,0,2023-03-10T14:08:23.124245,6381304,1931,370,637,-1014,-634,-273,121,73,-115
21898,5218,0,2023-03-10T14:08:23.128690,6381308,1953,380,653,-994,-626,-282,121,73,-115
21899,5219,0,2023-03-10T14:08:23.134271,6381315,1953,380,653,-994,-626,-282,121,73,-115
21900,5220,0,2023-03-10T14:08:23.138967,6381319,1953,380,653,-994,-626,-282,121,73,-115
21901,5221,0,2023-03-10T14:08:23.143517,6381324,1953,380,653,-994,-626,-282,121,73,-115
21902,5222,0,2023-03-10T14:08:23.148039,6381328,1958,387,646,-1002,-635,-291,121,73,-115
21903,5223,0,2023-03-10T14:08:23.152607,6381333,1958,387,646,-1002,-635,-291,121,73,-115
21904,5224,0,2023-03-10T14:08:23.157543,6381337,1958,387,646,-1002,-635,-291,121,73,-115
21905,5225,0,2023-03-10T14:08:23.162098,6381342,1958,387,646,-1002,-635,-291,121,73,-115
21906,5226,0,2023-03-10T14:08:23.166515,6381346,1935,371,648,-982,-621,-251,118,78,-106
21907,5227,0,2023-03-10T14:08:23.171460,6381351,1935,371,648,-982,-621,-251,118,78,-106
21908,5228,0,2023-03-10T14:08:23.176418,6381357,1935,371,648,-982,-621,-251,118,78,-106
21909,5229,0,2023-03-10T14:08:23.180741,6381361,1935,371,648,-982,-621,-251,118,78,-106
21910,5230,0,2023-03-10T14:08:23.185159,6381366,1935,371,648,-982,-621,-251,118,78,-106
21911,5231,0,2023-03-10T14:08:23.189688,6381370,1952,379,656,-996,-631,-291,118,78,-106
21912,5232,0,2023-03-10T14:08:23.194826,6381375,1952,379,656,-996,-631,-291,118,78,-106
21913,5233,0,2023-03-10T14:08:23.199657,6381379,1952,379,656,-996,-631,-291,118,78,-106
21914,5234,0,2023-03-10T14:08:23.204143,6381384,1952,379,656,-996,-631,-291,118,78,-106
21915,5235,0,2023-03-10T14:08:23.208715,6381389,1935,372,638,-1021,-643,-277,118,78,-106
21916,5236,0,2023-03-10T14:08:23.214545,6381394,1935,372,638,-1021,-643,-277,118,78,-106
21917,5237,0,2023-03-10T14:08:23.219132,6381400,1935,372,638,-1021,-643,-277,118,78,-106
21918,5238,0,2023-03-10T14:08:23.223616,6381404,1935,372,638,-1021,-643,-277,118,78,-106
21919,5239,0,2023-03-10T14:08:23.228152,6381409,1959,379,648,-1006,-639,-294,118,78,-106
21920,5240,0,2023-03-10T14:08:23.233585,6381414,1959,379,648,-1006,-639,-294,118,78,-106
21921,5241,0,2023-03-10T14:08:23.237731,6381418,1959,379,648,-1006,-639,-294,118,78,-106
21922,5242,0,2023-03-10T14:08:23.242068,6381422,1959,379,648,-1006,-639,-294,118,78,-106
21923,5243,0,2023-03-10T14:08:23.246781,6381427,1944,376,646,-1004,-624,-276,118,78,-106
21924,5244,0,2023-03-10T14:08:23.251754,6381432,1944,376,646,-1004,-624,-276,118,78,-106
21925,5245,0,2023-03-10T14:08:23.256368,6381436,1944,376,646,-1004,-624,-276,118,78,-106
21926,5246,0,2023-03-10T14:08:23.260859,6381442,1944,376,646,-1004,-624,-276,118,78,-106
21927,5247,0,2023-03-10T14:08:23.265412,6381446,1944,376,646,-1004,-624,-276,118,78,-106
21928,5248,0,2023-03-10T14:08:23.270043,6381451,1950,374,654,-999,-624,-289,118,78,-106
21929,5249,0,2023-03-10T14:08:23.275344,6381456,1950,374,654,-999,-624,-289,118,78,-106
21930,5250,0,2023-03-10T14:08:23.279812,6381460,1950,374,654,-999,-624,-289,118,78,-106
21931,5251,0,2023-03-10T14:08:23.284286,6381464,1950,374,654,-999,-624,-289,118,78,-106
21932,5252,0,2023-03-10T14:08:23.288691,6381469,1944,382,639,-993,-632,-284,114,74,-98
21933,5253,0,2023-03-10T14:08:23.294236,6381474,1944,382,639,-993,-632,-284,114,74,-98
21934,5254,0,2023-03-10T14:08:23.299082,6381479,1944,382,639,-993,-632,-284,114,74,-98
21935,5255,0,2023-03-10T14:08:23.303638,6381484,1944,382,639,-993,-632,-284,114,74,-98
21936,5256,0,2023-03-10T14:08:23.308141,6381489,1949,375,656,-970,-622,-261,114,74,-98
21937,5257,0,2023-03-10T14:08:23.312582,6381493,1949,375,656,-970,-622,-261,114,74,-98
21938,5258,0,2023-03-10T14:08:23.316965,6381497,1949,375,656,-970,-622,-261,114,74,-98
21939,5259,0,2023-03-10T14:08:23.321395,6381502,1949,375,656,-970,-622,-261,114,74,-98
21940,5260,0,2023-03-10T14:08:23.326051,6381506,1954,380,639,-999,-637,-292,114,74,-98
21941,5261,0,2023-03-10T14:08:23.330979,6381511,1954,380,639,-999,-637,-292,114,74,-98
21942,5262,0,2023-03-10T14:08:23.336415,6381516,1954,380,639,-999,-637,-292,114,74,-98
21943,5263,0,2023-03-10T14:08:23.341151,6381521,1954,380,639,-999,-637,-292,114,74,-98
21944,5264,0,2023-03-10T14:08:23.345767,6381526,1934,365,639,-1011,-626,-269,114,74,-98
21945,5265,0,2023-03-10T14:08:23.350684,6381531,1934,365,639,-1011,-626,-269,114,74,-98
21946,5266,0,2023-03-10T14:08:23.355314,6381536,1934,365,639,-1011,-626,-269,114,74,-98
21947,5267,0,2023-03-10T14:08:23.359816,6381540,1934,365,639,-1011,-626,-269,114,74,-98
21948,5268,0,2023-03-10T14:08:23.364280,6381545,1934,365,639,-1011,-626,-269,114,74,-98
21949,5269,0,2023-03-10T14:08:23.368636,6381549,1951,377,649,-973,-636,-283,114,74,-98
21950,5270,0,2023-03-10T14:08:23.373929,6381554,1951,377,649,-973,-636,-283,114,74,-98
21951,5271,0,2023-03-10T14:08:23.378590,6381558,1951,377,649,-973,-636,-283,114,74,-98
21952,5272,0,2023-03-10T14:08:23.382815,6381563,1951,377,649,-973,-636,-283,114,74,-98
21953,5273,0,2023-03-10T14:08:23.387310,6381568,1954,379,642,-1014,-623,-292,114,74,-98
21954,5274,0,2023-03-10T14:08:23.393238,6381574,1954,379,642,-1014,-623,-292,114,74,-98
21955,5275,0,2023-03-10T14:08:23.397774,6381578,1954,379,642,-1014,-623,-292,114,74,-98
21956,5276,0,2023-03-10T14:08:23.402184,6381583,1954,379,642,-1014,-623,-292,114,74,-98
21957,5277,0,2023-03-10T14:08:23.406543,6381587,1953,376,638,-1001,-624,-270,114,74,-98
21958,5278,0,2023-03-10T14:08:23.411227,6381591,1953,376,638,-1001,-624,-270,114,74,-98
21959,5279,0,2023-03-10T14:08:23.415552,6381596,1953,376,638,-1001,-624,-270,114,74,-98
21960,5280,0,2023-03-10T14:08:23.419980,6381600,1953,376,638,-1001,-624,-270,114,74,-98
21961,5281,0,2023-03-10T14:08:23.424585,6381604,1953,376,638,-1001,-624,-270,114,74,-98
21962,5282,0,2023-03-10T14:08:23.428951,6381609,1933,373,638,-980,-643,-269,114,72,-116
21963,5283,0,2023-03-10T14:08:23.433430,6381614,1933,373,638,-980,-643,-269,114,72,-116
21964,5284,0,2023-03-10T14:08:23.437772,6381618,1933,373,638,-980,-643,-269,114,72,-116
21965,5285,0,2023-03-10T14:08:23.442198,6381623,1933,373,638,-980,-643,-269,114,72,-116
21966,5286,0,2023-03-10T14:08:23.446687,6381627,1963,372,648,-1025,-620,-294,114,72,-116
21967,5287,0,2023-03-10T14:08:23.451413,6381632,1963,372,648,-1025,-620,-294,114,72,-116
21968,5288,0,2023-03-10T14:08:23.456124,6381636,1963,372,648,-1025,-620,-294,114,72,-116
21969,5289,0,2023-03-10T14:08:23.460453,6381641,1963,372,648,-1025,-620,-294,114,72,-116
21970,5290,0,2023-03-10T14:08:23.464869,6381645,1963,372,648,-1025,-620,-294,114,72,-116
21971,5291,0,2023-03-10T14:08:23.469226,6381649,1937,372,633,-993,-657,-277,114,72,-116
21972,5292,0,2023-03-10T14:08:23.474470,6381655,1937,372,633,-993,-657,-277,114,72,-116
21973,5293,0,2023-03-10T14:08:23.479063,6381660,1937,372,633,-993,-657,-277,114,72,-116
21974,5294,0,2023-03-10T14:08:23.483528,6381664,1937,372,633,-993,-657,-277,114,72,-116
21975,5295,0,2023-03-10T14:08:23.488055,6381668,1967,376,649,-996,-633,-289,114,72,-116
21976,5296,0,2023-03-10T14:08:23.493570,6381674,1967,376,649,-996,-633,-289,114,72,-116
21977,5297,0,2023-03-10T14:08:23.498048,6381678,1967,376,649,-996,-633,-289,114,72,-116
21978,5298,0,2023-03-10T14:08:23.502491,6381683,1967,376,649,-996,-633,-289,114,72,-116
21979,5299,0,2023-03-10T14:08:23.506969,6381687,1934,381,633,-1003,-631,-280,114,72,-116
21980,5300,0,2023-03-10T14:08:23.511412,6381691,1934,381,633,-1003,-631,-280,114,72,-116
21981,5301,0,2023-03-10T14:08:23.516280,6381697,1934,381,633,-1003,-631,-280,114,72,-116
21982,5302,0,2023-03-10T14:08:23.520747,6381701,1934,381,633,-1003,-631,-280,114,72,-116
21983,5303,0,2023-03-10T14:08:23.525176,6381706,1934,381,633,-1003,-631,-280,114,72,-116
21984,5304,0,2023-03-10T14:08:23.529959,6381710,1954,371,652,-989,-618,-258,114,72,-116
21985,5305,0,2023-03-10T14:08:23.535671,6381716,1954,371,652,-989,-618,-258,114,72,-116
21986,5306,0,2023-03-10T14:08:23.540019,6381720,1954,371,652,-989,-618,-258,114,72,-116
21987,5307,0,2023-03-10T14:08:23.544455,6381725,1954,371,652,-989,-618,-258,114,72,-116
21988,5308,0,2023-03-10T14:08:23.548974,6381729,1935,373,647,-992,-665,-280,128,80,-106
21989,5309,0,2023-03-10T14:08:23.554568,6381734,1935,373,647,-992,-665,-280,128,80,-106
21990,5310,0,2023-03-10T14:08:23.558988,6381740,1935,373,647,-992,-665,-280,128,80,-106
21991,5311,0,2023-03-10T14:08:23.563523,6381744,1935,373,647,-992,-665,-280,128,80,-106
21992,5312,0,2023-03-10T14:08:23.568080,6381749,1935,373,647,-992,-665,-280,128,80,-106
21993,5313,0,2023-03-10T14:08:23.573272,6381754,1935,373,647,-992,-665,-280,128,80,-106
21994,5314,0,2023-03-10T14:08:23.577686,6381758,1935,373,647,-992,-665,-280,128,80,-106
21995,5315,0,2023-03-10T14:08:23.582107,6381762,1935,373,647,-992,-665,-280,128,80,-106
21996,5316,0,2023-03-10T14:08:23.586638,6381767,1940,366,641,-1001,-623,-285,128,80,-106
21997,5317,0,2023-03-10T14:08:23.591707,6381772,1940,366,641,-1001,-623,-285,128,80,-106
21998,5318,0,2023-03-10T14:08:23.596977,6381777,1940,366,641,-1001,-623,-285,128,80,-106
21999,5319,0,2023-03-10T14:08:23.601858,6381782,1940,366,641,-1001,-623,-285,128,80,-106
22000,5320,0,2023-03-10T14:08:23.606480,6381787,1949,373,637,-1003,-658,-280,128,80,-106
22001,5321,0,2023-03-10T14:08:23.611301,6381792,1949,373,637,-1003,-658,-280,128,80,-106
22002,5322,0,2023-03-10T14:08:23.615938,6381796,1949,373,637,-1003,-658,-280,128,80,-106
22003,5323,0,2023-03-10T14:08:23.620387,6381801,1949,373,637,-1003,-658,-280,128,80,-106
22004,5324,0,2023-03-10T14:08:23.624940,6381805,1949,373,637,-1003,-658,-280,128,80,-106
22005,5325,0,2023-03-10T14:08:23.629222,6381809,1954,376,642,-1005,-618,-291,128,80,-106
22006,5326,0,2023-03-10T14:08:23.635001,6381815,1954,376,642,-1005,-618,-291,128,80,-106
22007,5327,0,2023-03-10T14:08:23.639433,6381819,1954,376,642,-1005,-618,-291,128,80,-106
22008,5328,0,2023-03-10T14:08:23.643881,6381824,1954,376,642,-1005,-618,-291,128,80,-106
22009,5329,0,2023-03-10T14:08:23.648294,6381829,1947,375,640,-999,-641,-290,128,80,-106
22010,5330,0,2023-03-10T14:08:23.653231,6381834,1947,375,640,-999,-641,-290,128,80,-106
22011,5331,0,2023-03-10T14:08:23.657773,6381838,1947,375,640,-999,-641,-290,128,80,-106
22012,5332,0,2023-03-10T14:08:23.662328,6381843,1947,375,640,-999,-641,-290,128,80,-106
22013,5333,0,2023-03-10T14:08:23.666975,6381847,1954,375,638,-997,-628,-279,116,78,-116
22014,5334,0,2023-03-10T14:08:23.672102,6381852,1954,375,638,-997,-628,-279,116,78,-116
22015,5335,0,2023-03-10T14:08:23.677150,6381857,1954,375,638,-997,-628,-279,116,78,-116
22016,5336,0,2023-03-10T14:08:23.681871,6381862,1954,375,638,-997,-628,-279,116,78,-116
22017,5337,0,2023-03-10T14:08:23.686297,6381867,1933,372,658,-971,-632,-261,116,78,-116
22018,5338,0,2023-03-10T14:08:23.690745,6381871,1933,372,658,-971,-632,-261,116,78,-116
22019,5339,0,2023-03-10T14:08:23.695948,6381877,1933,372,658,-971,-632,-261,116,78,-116
22020,5340,0,2023-03-10T14:08:23.700545,6381881,1933,372,658,-971,-632,-261,116,78,-116
22021,5341,0,2023-03-10T14:08:23.704959,6381885,1933,372,658,-971,-632,-261,116,78,-116
22022,5342,0,2023-03-10T14:08:23.709381,6381889,1965,386,638,-1018,-639,-295,116,78,-116
22023,5343,0,2023-03-10T14:08:23.715080,6381895,1965,386,638,-1018,-639,-295,116,78,-116
22024,5344,0,2023-03-10T14:08:23.719768,6381900,1965,386,638,-1018,-639,-295,116,78,-116
22025,5345,0,2023-03-10T14:08:23.725186,6381905,1965,386,638,-1018,-639,-295,116,78,-116
22026,5346,0,2023-03-10T14:08:23.729499,6381910,1950,370,633,-1012,-649,-277,116,78,-116
22027,5347,0,2023-03-10T14:08:23.734783,6381915,1950,370,633,-1012,-649,-277,116,78,-116
22028,5348,0,2023-03-10T14:08:23.739234,6381920,1950,370,633,-1012,-649,-277,116,78,-116
22029,5349,0,2023-03-10T14:08:23.743690,6381924,1950,370,633,-1012,-649,-277,116,78,-116
22030,5350,0,2023-03-10T14:08:23.747971,6381928,1940,373,634,-995,-620,-290,116,78,-116
22031,5351,0,2023-03-10T14:08:23.753660,6381934,1940,373,634,-995,-620,-290,116,78,-116
22032,5352,0,2023-03-10T14:08:23.758072,6381938,1940,373,634,-995,-620,-290,116,78,-116
22033,5353,0,2023-03-10T14:08:23.762719,6381943,1940,373,634,-995,-620,-290,116,78,-116
22034,5354,0,2023-03-10T14:08:23.767143,6381947,1948,375,643,-992,-625,-279,116,78,-116
22035,5355,0,2023-03-10T14:08:23.772120,6381953,1948,375,643,-992,-625,-279,116,78,-116
22036,5356,0,2023-03-10T14:08:23.776546,6381957,1948,375,643,-992,-625,-279,116,78,-116
22037,5357,0,2023-03-10T14:08:23.781011,6381962,1948,375,643,-992,-625,-279,116,78,-116
22038,5358,0,2023-03-10T14:08:23.785424,6381966,1948,375,643,-992,-625,-279,116,78,-116
22039,5359,0,2023-03-10T14:08:23.789945,6381970,1958,381,644,-993,-618,-297,116,78,-116
22040,5360,0,2023-03-10T14:08:23.795553,6381976,1958,381,644,-993,-618,-297,116,78,-116
22041,5361,0,2023-03-10T14:08:23.799969,6381980,1958,381,644,-993,-618,-297,116,78,-116
22042,5362,0,2023-03-10T14:08:23.804330,6381984,1958,381,644,-993,-618,-297,116,78,-116
22043,5363,0,2023-03-10T14:08:23.808763,6381989,1952,373,640,-1013,-626,-275,119,75,-109
22044,5364,0,2023-03-10T14:08:23.814434,6381995,1952,373,640,-1013,-626,-275,119,75,-109
22045,5365,0,2023-03-10T14:08:23.819009,6382000,1952,373,640,-1013,-626,-275,119,75,-109
22046,5366,0,2023-03-10T14:08:23.823412,6382004,1952,373,640,-1013,-626,-275,119,75,-109
22047,5367,0,2023-03-10T14:08:23.828079,6382008,1937,370,639,-991,-642,-266,119,75,-109
22048,5368,0,2023-03-10T14:08:23.833120,6382013,1937,370,639,-991,-642,-266,119,75,-109
22049,5369,0,2023-03-10T14:08:23.837774,6382018,1937,370,639,-991,-642,-266,119,75,-109
22050,5370,0,2023-03-10T14:08:23.842220,6382022,1937,370,639,-991,-642,-266,119,75,-109
22051,5371,0,2023-03-10T14:08:23.846666,6382027,1965,375,642,-1018,-617,-288,119,75,-109
22052,5372,0,2023-03-10T14:08:23.851591,6382032,1965,375,642,-1018,-617,-288,119,75,-109
22053,5373,0,2023-03-10T14:08:23.856167,6382036,1965,375,642,-1018,-617,-288,119,75,-109
22054,5374,0,2023-03-10T14:08:23.860824,6382041,1965,375,642,-1018,-617,-288,119,75,-109
22055,5375,0,2023-03-10T14:08:23.865542,6382046,1965,375,642,-1018,-617,-288,119,75,-109
22056,5376,0,2023-03-10T14:08:23.869990,6382050,1933,369,636,-954,-655,-237,119,75,-109
22057,5377,0,2023-03-10T14:08:23.874950,6382055,1933,369,636,-954,-655,-237,119,75,-109
22058,5378,0,2023-03-10T14:08:23.879665,6382060,1933,369,636,-954,-655,-237,119,75,-109
22059,5379,0,2023-03-10T14:08:23.884027,6382064,1933,369,636,-954,-655,-237,119,75,-109
22060,5380,0,2023-03-10T14:08:23.888575,6382069,1967,379,638,-982,-619,-287,119,75,-109
22061,5381,0,2023-03-10T14:08:23.894099,6382074,1967,379,638,-982,-619,-287,119,75,-109
22062,5382,0,2023-03-10T14:08:23.898674,6382078,1967,379,638,-982,-619,-287,119,75,-109
22063,5383,0,2023-03-10T14:08:23.903056,6382084,1967,379,638,-982,-619,-287,119,75,-109
22064,5384,0,2023-03-10T14:08:23.907350,6382088,1937,367,632,-1018,-629,-281,119,75,-109
22065,5385,0,2023-03-10T14:08:23.912214,6382093,1937,367,632,-1018,-629,-281,119,75,-109
22066,5386,0,2023-03-10T14:08:23.917093,6382098,1937,367,632,-1018,-629,-281,119,75,-109
22067,5387,0,2023-03-10T14:08:23.921613,6382102,1937,367,632,-1018,-629,-281,119,75,-109
22068,5388,0,2023-03-10T14:08:23.926187,6382106,1937,367,632,-1018,-629,-281,119,75,-109
22069,5389,0,2023-03-10T14:08:23.930456,6382111,1955,374,630,-1003,-662,-278,118,70,-120
22070,5390,0,2023-03-10T14:08:23.935280,6382115,1955,374,630,-1003,-662,-278,118,70,-120
22071,5391,0,2023-03-10T14:08:23.939929,6382120,1955,374,630,-1003,-662,-278,118,70,-120
22072,5392,0,2023-03-10T14:08:23.944527,6382125,1955,374,630,-1003,-662,-278,118,70,-120
22073,5393,0,2023-03-10T14:08:23.948964,6382129,1957,374,646,-1011,-614,-290,118,70,-120
22074,5394,0,2023-03-10T14:08:23.954285,6382135,1957,374,646,-1011,-614,-290,118,70,-120
22075,5395,0,2023-03-10T14:08:23.959078,6382139,1957,374,646,-1011,-614,-290,118,70,-120
22076,5396,0,2023-03-10T14:08:23.963552,6382144,1957,374,646,-1011,-614,-290,118,70,-120
22077,5397,0,2023-03-10T14:08:23.967966,6382148,1956,382,633,-1000,-673,-284,118,70,-120
22078,5398,0,2023-03-10T14:08:23.973020,6382153,1956,382,633,-1000,-673,-284,118,70,-120
22079,5399,0,2023-03-10T14:08:23.977312,6382157,1956,382,633,-1000,-673,-284,118,70,-120
22080,5400,0,2023-03-10T14:08:23.981842,6382161,1956,382,633,-1000,-673,-284,118,70,-120
22081,5401,0,2023-03-10T14:08:23.986232,6382167,1956,382,633,-1000,-673,-284,118,70,-120
22082,5402,0,2023-03-10T14:08:23.990964,6382171,1948,371,639,-963,-638,-253,118,70,-120
22083,5403,0,2023-03-10T14:08:23.996292,6382177,1948,371,639,-963,-638,-253,118,70,-120
22084,5404,0,2023-03-10T14:08:24.000893,6382181,1948,371,639,-963,-638,-253,118,70,-120
22085,5405,0,2023-03-10T14:08:24.005585,6382186,1948,371,639,-963,-638,-253,118,70,-120
22086,5406,0,2023-03-10T14:08:24.009990,6382190,1939,366,641,-999,-585,-274,118,70,-120
22087,5407,0,2023-03-10T14:08:24.014518,6382194,1939,366,641,-999,-585,-274,118,70,-120
22088,5408,0,2023-03-10T14:08:24.019001,6382199,1939,366,641,-999,-585,-274,118,70,-120
22089,5409,0,2023-03-10T14:08:24.023630,6382203,1939,366,641,-999,-585,-274,118,70,-120
22090,5410,0,2023-03-10T14:08:24.028264,6382209,1972,380,634,-1017,-649,-304,118,70,-120
22091,5411,0,2023-03-10T14:08:24.033515,6382214,1972,380,634,-1017,-649,-304,118,70,-120
22092,5412,0,2023-03-10T14:08:24.038327,6382219,1972,380,634,-1017,-649,-304,118,70,-120
22093,5413,0,2023-03-10T14:08:24.042764,6382223,1972,380,634,-1017,-649,-304,118,70,-120
22094,5414,0,2023-03-10T14:08:24.047182,6382227,1938,365,623,-1001,-629,-262,118,70,-120
22095,5415,0,2023-03-10T14:08:24.052114,6382232,1938,365,623,-1001,-629,-262,118,70,-120
22096,5416,0,2023-03-10T14:08:24.057500,6382238,1938,365,623,-1001,-629,-262,118,70,-120
22097,5417,0,2023-03-10T14:08:24.061962,6382242,1938,365,623,-1001,-629,-262,118,70,-120
22098,5418,0,2023-03-10T14:08:24.066390,6382246,1938,365,623,-1001,-629,-262,118,70,-120
22099,5419,0,2023-03-10T14:08:24.070875,6382252,1963,374,633,-1003,-621,-299,115,73,-113
22100,5420,0,2023-03-10T14:08:24.076346,6382257,1963,374,633,-1003,-621,-299,115,73,-113
22101,5421,0,2023-03-10T14:08:24.080977,6382261,1963,374,633,-1003,-621,-299,115,73,-113
22102,5422,0,2023-03-10T14:08:24.085572,6382266,1963,374,633,-1003,-621,-299,115,73,-113
22103,5423,0,2023-03-10T14:08:24.090112,6382270,1963,374,633,-1003,-621,-299,115,73,-113
22104,5424,0,2023-03-10T14:08:24.094478,6382275,1963,374,633,-1003,-621,-299,115,73,-113
22105,5425,0,2023-03-10T14:08:24.098979,6382279,1963,374,633,-1003,-621,-299,115,73,-113
22106,5426,0,2023-03-10T14:08:24.103307,6382283,1963,374,633,-1003,-621,-299,115,73,-113
22107,5427,0,2023-03-10T14:08:24.107727,6382288,1963,376,640,-1009,-613,-299,115,73,-113
22108,5428,0,2023-03-10T14:08:24.112743,6382294,1963,376,640,-1009,-613,-299,115,73,-113
22109,5429,0,2023-03-10T14:08:24.117766,6382298,1963,376,640,-1009,-613,-299,115,73,-113
22110,5430,0,2023-03-10T14:08:24.122219,6382303,1963,376,640,-1009,-613,-299,115,73,-113
22111,5431,0,2023-03-10T14:08:24.126882,6382307,1963,376,640,-1009,-613,-299,115,73,-113
22112,5432,0,2023-03-10T14:08:24.131395,6382312,1958,372,634,-1015,-635,-288,115,73,-113
22113,5433,0,2023-03-10T14:08:24.136670,6382317,1958,372,634,-1015,-635,-288,115,73,-113
22114,5434,0,2023-03-10T14:08:24.141058,6382321,1958,372,634,-1015,-635,-288,115,73,-113
22115,5435,0,2023-03-10T14:08:24.145398,6382326,1958,372,634,-1015,-635,-288,115,73,-113
22116,5436,0,2023-03-10T14:08:24.149575,6382330,1937,372,626,-1007,-633,-276,115,73,-113
22117,5437,0,2023-03-10T14:08:24.153924,6382334,1937,372,626,-1007,-633,-276,115,73,-113
22118,5438,0,2023-03-10T14:08:24.158374,6382339,1937,372,626,-1007,-633,-276,115,73,-113
22119,5439,0,2023-03-10T14:08:24.163035,6382344,1937,372,626,-1007,-633,-276,115,73,-113
22120,5440,0,2023-03-10T14:08:24.167651,6382348,1967,375,636,-975,-610,-262,115,73,-113
22121,5441,0,2023-03-10T14:08:24.172723,6382353,1967,375,636,-975,-610,-262,115,73,-113
22122,5442,0,2023-03-10T14:08:24.177042,6382357,1967,375,636,-975,-610,-262,115,73,-113
22123,5443,0,2023-03-10T14:08:24.181525,6382362,1967,375,636,-975,-610,-262,115,73,-113
22124,5444,0,2023-03-10T14:08:24.185945,6382366,1967,375,636,-975,-610,-262,115,73,-113
22125,5445,0,2023-03-10T14:08:24.190565,6382370,1949,372,634,-973,-649,-274,126,82,-116
22126,5446,0,2023-03-10T14:08:24.196065,6382376,1949,372,634,-973,-649,-274,126,82,-116
22127,5447,0,2023-03-10T14:08:24.200500,6382381,1949,372,634,-973,-649,-274,126,82,-116
22128,5448,0,2023-03-10T14:08:24.205398,6382386,1949,372,634,-973,-649,-274,126,82,-116
22129,5449,0,2023-03-10T14:08:24.210152,6382391,1965,373,628,-1026,-632,-291,126,82,-116
22130,5450,0,2023-03-10T14:08:24.214356,6382395,1965,373,628,-1026,-632,-291,126,82,-116
22131,5451,0,2023-03-10T14:08:24.219080,6382399,1965,373,628,-1026,-632,-291,126,82,-116
22132,5452,0,2023-03-10T14:08:24.223577,6382404,1965,373,628,-1026,-632,-291,126,82,-116
22133,5453,0,2023-03-10T14:08:24.228117,6382408,1939,363,633,-1002,-621,-269,126,82,-116
22134,5454,0,2023-03-10T14:08:24.233962,6382414,1939,363,633,-1002,-621,-269,126,82,-116
22135,5455,0,2023-03-10T14:08:24.238439,6382418,1939,363,633,-1002,-621,-269,126,82,-116
22136,5456,0,2023-03-10T14:08:24.242956,6382424,1939,363,633,-1002,-621,-269,126,82,-116
22137,5457,0,2023-03-10T14:08:24.247468,6382428,1954,368,635,-1001,-633,-294,126,82,-116
22138,5458,0,2023-03-10T14:08:24.252477,6382433,1954,368,635,-1001,-633,-294,126,82,-116
22139,5459,0,2023-03-10T14:08:24.257009,6382437,1954,368,635,-1001,-633,-294,126,82,-116
22140,5460,0,2023-03-10T14:08:24.261549,6382442,1954,368,635,-1001,-633,-294,126,82,-116
22141,5461,0,2023-03-10T14:08:24.266037,6382446,1954,368,635,-1001,-633,-294,126,82,-116
22142,5462,0,2023-03-10T14:08:24.270552,6382451,1956,376,640,-1018,-604,-289,126,82,-116
22143,5463,0,2023-03-10T14:08:24.275993,6382456,1956,376,640,-1018,-604,-289,126,82,-116
22144,5464,0,2023-03-10T14:08:24.280495,6382460,1956,376,640,-1018,-604,-289,126,82,-116
22145,5465,0,2023-03-10T14:08:24.284928,6382466,1956,376,640,-1018,-604,-289,126,82,-116
22146,5466,0,2023-03-10T14:08:24.289326,6382470,1952,374,635,-972,-639,-265,126,82,-116
22147,5467,0,2023-03-10T14:08:24.294752,6382475,1952,374,635,-972,-639,-265,126,82,-116
22148,5468,0,2023-03-10T14:08:24.299025,6382480,1952,374,635,-972,-639,-265,126,82,-116
22149,5469,0,2023-03-10T14:08:24.303683,6382484,1952,374,635,-972,-639,-265,126,82,-116
22150,5470,0,2023-03-10T14:08:24.308276,6382488,1947,367,631,-1007,-631,-282,126,82,-116
22151,5471,0,2023-03-10T14:08:24.312908,6382493,1947,367,631,-1007,-631,-282,126,82,-116
22152,5472,0,2023-03-10T14:08:24.317450,6382497,1947,367,631,-1007,-631,-282,126,82,-116
22153,5473,0,2023-03-10T14:08:24.322111,6382502,1947,367,631,-1007,-631,-282,126,82,-116
22154,5474,0,2023-03-10T14:08:24.326576,6382507,1947,367,631,-1007,-631,-282,126,82,-116
22155,5475,0,2023-03-10T14:08:24.330986,6382512,1952,373,634,-1013,-644,-281,123,71,-113
22156,5476,0,2023-03-10T14:08:24.336338,6382517,1952,373,634,-1013,-644,-281,123,71,-113
22157,5477,0,2023-03-10T14:08:24.341024,6382521,1952,373,634,-1013,-644,-281,123,71,-113
22158,5478,0,2023-03-10T14:08:24.345468,6382526,1952,373,634,-1013,-644,-281,123,71,-113
22159,5479,0,2023-03-10T14:08:24.350086,6382530,1973,380,635,-987,-642,-289,123,71,-113
22160,5480,0,2023-03-10T14:08:24.355522,6382536,1973,380,635,-987,-642,-289,123,71,-113
22161,5481,0,2023-03-10T14:08:24.360150,6382540,1973,380,635,-987,-642,-289,123,71,-113
22162,5482,0,2023-03-10T14:08:24.364607,6382545,1973,380,635,-987,-642,-289,123,71,-113
22163,5483,0,2023-03-10T14:08:24.368998,6382550,1955,370,628,-999,-629,-280,123,71,-113
22164,5484,0,2023-03-10T14:08:24.374308,6382555,1955,370,628,-999,-629,-280,123,71,-113
22165,5485,0,2023-03-10T14:08:24.378825,6382559,1955,370,628,-999,-629,-280,123,71,-113
22166,5486,0,2023-03-10T14:08:24.383311,6382564,1955,370,628,-999,-629,-280,123,71,-113
22167,5487,0,2023-03-10T14:08:24.387954,6382568,1941,367,631,-1000,-621,-279,123,71,-113
22168,5488,0,2023-03-10T14:08:24.392970,6382573,1941,367,631,-1000,-621,-279,123,71,-113
22169,5489,0,2023-03-10T14:08:24.397373,6382578,1941,367,631,-1000,-621,-279,123,71,-113
22170,5490,0,2023-03-10T14:08:24.401699,6382582,1941,367,631,-1000,-621,-279,123,71,-113
22171,5491,0,2023-03-10T14:08:24.406101,6382586,1941,367,631,-1000,-621,-279,123,71,-113
22172,5492,0,2023-03-10T14:08:24.410668,6382592,1959,381,640,-1009,-622,-289,123,71,-113
22173,5493,0,2023-03-10T14:08:24.415597,6382596,1959,381,640,-1009,-622,-289,123,71,-113
22174,5494,0,2023-03-10T14:08:24.420225,6382601,1959,381,640,-1009,-622,-289,123,71,-113
22175,5495,0,2023-03-10T14:08:24.424653,6382605,1959,381,640,-1009,-622,-289,123,71,-113
22176,5496,0,2023-03-10T14:08:24.429187,6382609,1968,373,635,-1024,-642,-279,123,71,-113
22177,5497,0,2023-03-10T14:08:24.434385,6382615,1968,373,635,-1024,-642,-279,123,71,-113
22178,5498,0,2023-03-10T14:08:24.438820,6382619,1968,373,635,-1024,-642,-279,123,71,-113
22179,5499,0,2023-03-10T14:08:24.443266,6382623,1968,373,635,-1024,-642,-279,123,71,-113
22180,5500,0,2023-03-10T14:08:24.447667,6382628,1957,376,628,-1011,-624,-273,118,80,-114
22181,5501,0,2023-03-10T14:08:24.452755,6382633,1957,376,628,-1011,-624,-273,118,80,-114
22182,5502,0,2023-03-10T14:08:24.457701,6382638,1957,376,628,-1011,-624,-273,118,80,-114
22183,5503,0,2023-03-10T14:08:24.462320,6382643,1957,376,628,-1011,-624,-273,118,80,-114
22184,5504,0,2023-03-10T14:08:24.466835,6382647,1957,376,628,-1011,-624,-273,118,80,-114
22185,5505,0,2023-03-10T14:08:24.471505,6382652,1962,372,635,-973,-628,-261,118,80,-114
22186,5506,0,2023-03-10T14:08:24.477039,6382657,1962,372,635,-973,-628,-261,118,80,-114
22187,5507,0,2023-03-10T14:08:24.481356,6382662,1962,372,635,-973,-628,-261,118,80,-114
22188,5508,0,2023-03-10T14:08:24.486125,6382666,1962,372,635,-973,-628,-261,118,80,-114
22189,5509,0,2023-03-10T14:08:24.490567,6382670,1945,373,627,-973,-636,-263,118,80,-114
22190,5510,0,2023-03-10T14:08:24.495236,6382675,1945,373,627,-973,-636,-263,118,80,-114
22191,5511,0,2023-03-10T14:08:24.499556,6382680,1945,373,627,-973,-636,-263,118,80,-114
22192,5512,0,2023-03-10T14:08:24.504204,6382685,1945,373,627,-973,-636,-263,118,80,-114
22193,5513,0,2023-03-10T14:08:24.508394,6382689,1971,375,631,-1006,-641,-297,118,80,-114
22194,5514,0,2023-03-10T14:08:24.513563,6382694,1971,375,631,-1006,-641,-297,118,80,-114
22195,5515,0,2023-03-10T14:08:24.518117,6382698,1971,375,631,-1006,-641,-297,118,80,-114
22196,5516,0,2023-03-10T14:08:24.522544,6382703,1971,375,631,-1006,-641,-297,118,80,-114
22197,5517,0,2023-03-10T14:08:24.527476,6382708,1951,374,618,-1000,-632,-281,118,80,-114
22198,5518,0,2023-03-10T14:08:24.532736,6382713,1951,374,618,-1000,-632,-281,118,80,-114
22199,5519,0,2023-03-10T14:08:24.537584,6382717,1951,374,618,-1000,-632,-281,118,80,-114
22200,5520,0,2023-03-10T14:08:24.541986,6382723,1951,374,618,-1000,-632,-281,118,80,-114
22201,5521,0,2023-03-10T14:08:24.546298,6382727,1951,374,618,-1000,-632,-281,118,80,-114
22202,5522,0,2023-03-10T14:08:24.550886,6382731,1963,369,633,-1012,-628,-291,118,80,-114
22203,5523,0,2023-03-10T14:08:24.556534,6382737,1963,369,633,-1012,-628,-291,118,80,-114
22204,5524,0,2023-03-10T14:08:24.561037,6382741,1963,369,633,-1012,-628,-291,118,80,-114
22205,5525,0,2023-03-10T14:08:24.565443,6382746,1963,369,633,-1012,-628,-291,118,80,-114
22206,5526,0,2023-03-10T14:08:24.570466,6382750,1944,372,617,-996,-650,-284,117,75,-109
22207,5527,0,2023-03-10T14:08:24.576250,6382756,1944,372,617,-996,-650,-284,117,75,-109
22208,5528,0,2023-03-10T14:08:24.580863,6382760,1944,372,617,-996,-650,-284,117,75,-109
22209,5529,0,2023-03-10T14:08:24.585265,6382766,1944,372,617,-996,-650,-284,117,75,-109
22210,5530,0,2023-03-10T14:08:24.589606,6382770,1953,367,649,-976,-591,-261,117,75,-109
22211,5531,0,2023-03-10T14:08:24.595065,6382776,1953,367,649,-976,-591,-261,117,75,-109
22212,5532,0,2023-03-10T14:08:24.599372,6382780,1953,367,649,-976,-591,-261,117,75,-109
22213,5533,0,2023-03-10T14:08:24.603954,6382784,1953,367,649,-976,-591,-261,117,75,-109
22214,5534,0,2023-03-10T14:08:24.608303,6382789,1975,377,634,-991,-686,-298,117,75,-109
22215,5535,0,2023-03-10T14:08:24.613950,6382794,1975,377,634,-991,-686,-298,117,75,-109
22216,5536,0,2023-03-10T14:08:24.618560,6382798,1975,377,634,-991,-686,-298,117,75,-109
22217,5537,0,2023-03-10T14:08:24.623220,6382803,1975,377,634,-991,-686,-298,117,75,-109
22218,5538,0,2023-03-10T14:08:24.627656,6382808,1948,364,617,-1014,-653,-274,117,75,-109
22219,5539,0,2023-03-10T14:08:24.632452,6382813,1948,364,617,-1014,-653,-274,117,75,-109
22220,5540,0,2023-03-10T14:08:24.637305,6382818,1948,364,617,-1014,-653,-274,117,75,-109
22221,5541,0,2023-03-10T14:08:24.641802,6382822,1948,364,617,-1014,-653,-274,117,75,-109
22222,5542,0,2023-03-10T14:08:24.646374,6382827,1948,364,617,-1014,-653,-274,117,75,-109
22223,5543,0,2023-03-10T14:08:24.650853,6382831,1956,370,624,-996,-588,-276,117,75,-109
22224,5544,0,2023-03-10T14:08:24.656206,6382836,1956,370,624,-996,-588,-276,117,75,-109
22225,5545,0,2023-03-10T14:08:24.660788,6382841,1956,370,624,-996,-588,-276,117,75,-109
22226,5546,0,2023-03-10T14:08:24.665245,6382845,1956,370,624,-996,-588,-276,117,75,-109
22227,5547,0,2023-03-10T14:08:24.669687,6382851,1978,375,626,-1004,-626,-301,117,75,-109
22228,5548,0,2023-03-10T14:08:24.675422,6382856,1978,375,626,-1004,-626,-301,117,75,-109
22229,5549,0,2023-03-10T14:08:24.680766,6382861,1978,375,626,-1004,-626,-301,117,75,-109
22230,5550,0,2023-03-10T14:08:24.685203,6382866,1978,375,626,-1004,-626,-301,117,75,-109
22231,5551,0,2023-03-10T14:08:24.689483,6382870,1944,372,617,-995,-616,-264,117,75,-109
22232,5552,0,2023-03-10T14:08:24.694818,6382875,1944,372,617,-995,-616,-264,117,75,-109
22233,5553,0,2023-03-10T14:08:24.699352,6382879,1944,372,617,-995,-616,-264,117,75,-109
22234,5554,0,2023-03-10T14:08:24.703850,6382884,1944,372,617,-995,-616,-264,117,75,-109
22235,5555,0,2023-03-10T14:08:24.708411,6382888,1965,372,645,-957,-627,-272,128,74,-108
22236,5556,0,2023-03-10T14:08:24.714114,6382895,1965,372,645,-957,-627,-272,128,74,-108
22237,5557,0,2023-03-10T14:08:24.718827,6382899,1965,372,645,-957,-627,-272,128,74,-108
22238,5558,0,2023-03-10T14:08:24.723406,6382904,1965,372,645,-957,-627,-272,128,74,-108
22239,5559,0,2023-03-10T14:08:24.727720,6382908,1947,367,629,-1010,-653,-271,128,74,-108
22240,5560,0,2023-03-10T14:08:24.732693,6382913,1947,367,629,-1010,-653,-271,128,74,-108
22241,5561,0,2023-03-10T14:08:24.737683,6382918,1947,367,629,-1010,-653,-271,128,74,-108
22242,5562,0,2023-03-10T14:08:24.742221,6382922,1947,367,629,-1010,-653,-271,128,74,-108
22243,5563,0,2023-03-10T14:08:24.746515,6382927,1947,367,629,-1010,-653,-271,128,74,-108
22244,5564,0,2023-03-10T14:08:24.751117,6382931,1973,375,623,-1021,-641,-295,128,74,-108
22245,5565,0,2023-03-10T14:08:24.756241,6382937,1973,375,623,-1021,-641,-295,128,74,-108
22246,5566,0,2023-03-10T14:08:24.761012,6382941,1973,375,623,-1021,-641,-295,128,74,-108
22247,5567,0,2023-03-10T14:08:24.765409,6382946,1973,375,623,-1021,-641,-295,128,74,-108
22248,5568,0,2023-03-10T14:08:24.769866,6382950,1967,373,614,-983,-636,-280,128,74,-108
22249,5569,0,2023-03-10T14:08:24.774147,6382954,1967,373,614,-983,-636,-280,128,74,-108
22250,5570,0,2023-03-10T14:08:24.778797,6382959,1967,373,614,-983,-636,-280,128,74,-108
22251,5571,0,2023-03-10T14:08:24.783309,6382963,1967,373,614,-983,-636,-280,128,74,-108
22252,5572,0,2023-03-10T14:08:24.787849,6382968,1940,364,618,-998,-620,-283,128,74,-108
22253,5573,0,2023-03-10T14:08:24.792543,6382973,1940,364,618,-998,-620,-283,128,74,-108
22254,5574,0,2023-03-10T14:08:24.797445,6382978,1940,364,618,-998,-620,-283,128,74,-108
22255,5575,0,2023-03-10T14:08:24.802039,6382983,1940,364,618,-998,-620,-283,128,74,-108
22256,5576,0,2023-03-10T14:08:24.806498,6382987,1940,364,618,-998,-620,-283,128,74,-108
22257,5577,0,2023-03-10T14:08:24.811447,6382992,1963,372,633,-971,-630,-279,128,74,-108
22258,5578,0,2023-03-10T14:08:24.816247,6382997,1963,372,633,-971,-630,-279,128,74,-108
22259,5579,0,2023-03-10T14:08:24.820517,6383001,1963,372,633,-971,-630,-279,128,74,-108
22260,5580,0,2023-03-10T14:08:24.824948,6383005,1963,372,633,-971,-630,-279,128,74,-108
22261,5581,0,2023-03-10T14:08:24.829417,6383009,1967,373,640,-996,-642,-282,126,76,-114
22262,5582,0,2023-03-10T14:08:24.835014,6383015,1967,373,640,-996,-642,-282,126,76,-114
22263,5583,0,2023-03-10T14:08:24.839699,6383020,1967,373,640,-996,-642,-282,126,76,-114
22264,5584,0,2023-03-10T14:08:24.843992,6383025,1967,373,640,-996,-642,-282,126,76,-114
22265,5585,0,2023-03-10T14:08:24.848334,6383029,1964,370,621,-1016,-639,-284,126,76,-114
22266,5586,0,2023-03-10T14:08:24.853260,6383034,1964,370,621,-1016,-639,-284,126,76,-114
22267,5587,0,2023-03-10T14:08:24.857566,6383038,1964,370,621,-1016,-639,-284,126,76,-114
22268,5588,0,2023-03-10T14:08:24.862123,6383042,1964,370,621,-1016,-639,-284,126,76,-114
22269,5589,0,2023-03-10T14:08:24.866422,6383047,1964,370,621,-1016,-639,-284,126,76,-114
22270,5590,0,2023-03-10T14:08:24.870956,6383051,1945,358,621,-989,-633,-265,126,76,-114
22271,5591,0,2023-03-10T14:08:24.876025,6383056,1945,358,621,-989,-633,-265,126,76,-114
22272,5592,0,2023-03-10T14:08:24.880649,6383060,1945,358,621,-989,-633,-265,126,76,-114
22273,5593,0,2023-03-10T14:08:24.885019,6383066,1945,358,621,-989,-633,-265,126,76,-114
22274,5594,0,2023-03-10T14:08:24.889455,6383070,1963,370,619,-996,-645,-295,126,76,-114
22275,5595,0,2023-03-10T14:08:24.895239,6383076,1963,370,619,-996,-645,-295,126,76,-114
22276,5596,0,2023-03-10T14:08:24.899810,6383080,1963,370,619,-996,-645,-295,126,76,-114
22277,5597,0,2023-03-10T14:08:24.904097,6383085,1963,370,619,-996,-645,-295,126,76,-114
22278,5598,0,2023-03-10T14:08:24.908320,6383089,1967,374,624,-995,-627,-285,126,76,-114
22279,5599,0,2023-03-10T14:08:24.913542,6383093,1967,374,624,-995,-627,-285,126,76,-114
22280,5600,0,2023-03-10T14:08:24.918006,6383098,1967,374,624,-995,-627,-285,126,76,-114
22281,5601,0,2023-03-10T14:08:24.922690,6383102,1967,374,624,-995,-627,-285,126,76,-114
22282,5602,0,2023-03-10T14:08:24.927025,6383108,1967,374,624,-995,-627,-285,126,76,-114
22283,5603,0,2023-03-10T14:08:24.931610,6383112,1959,371,622,-998,-623,-291,126,76,-114
22284,5604,0,2023-03-10T14:08:24.937383,6383118,1959,371,622,-998,-623,-291,126,76,-114
22285,5605,0,2023-03-10T14:08:24.942147,6383122,1959,371,622,-998,-623,-291,126,76,-114
22286,5606,0,2023-03-10T14:08:24.947036,6383127,1959,371,622,-998,-623,-291,126,76,-114
22287,5607,0,2023-03-10T14:08:24.951609,6383132,1948,369,616,-1003,-638,-272,126,76,-114
22288,5608,0,2023-03-10T14:08:24.957388,6383137,1948,369,616,-1003,-638,-272,126,76,-114
22289,5609,0,2023-03-10T14:08:24.962076,6383142,1948,369,616,-1003,-638,-272,126,76,-114
22290,5610,0,2023-03-10T14:08:24.966627,6383147,1948,369,616,-1003,-638,-272,126,76,-114
22291,5611,0,2023-03-10T14:08:24.970984,6383152,1966,374,634,-994,-598,-289,121,73,-113
22292,5612,0,2023-03-10T14:08:24.976198,6383157,1966,374,634,-994,-598,-289,121,73,-113
22293,5613,0,2023-03-10T14:08:24.980897,6383161,1966,374,634,-994,-598,-289,121,73,-113
22294,5614,0,2023-03-10T14:08:24.985270,6383166,1966,374,634,-994,-598,-289,121,73,-113
22295,5615,0,2023-03-10T14:08:24.989668,6383170,1949,369,624,-984,-653,-263,121,73,-113
22296,5616,0,2023-03-10T14:08:24.995214,6383175,1949,369,624,-984,-653,-263,121,73,-113
22297,5617,0,2023-03-10T14:08:24.999744,6383180,1949,369,624,-984,-653,-263,121,73,-113
22298,5618,0,2023-03-10T14:08:25.004065,6383184,1949,369,624,-984,-653,-263,121,73,-113
22299,5619,0,2023-03-10T14:08:25.008398,6383188,1975,372,622,-987,-629,-283,121,73,-113
22300,5620,0,2023-03-10T14:08:25.013621,6383194,1975,372,622,-987,-629,-283,121,73,-113
22301,5621,0,2023-03-10T14:08:25.018357,6383199,1975,372,622,-987,-629,-283,121,73,-113
22302,5622,0,2023-03-10T14:08:25.023084,6383204,1975,372,622,-987,-629,-283,121,73,-113
22303,5623,0,2023-03-10T14:08:25.027341,6383208,1975,372,622,-987,-629,-283,121,73,-113
22304,5624,0,2023-03-10T14:08:25.032110,6383212,1942,364,622,-998,-627,-276,121,73,-113
22305,5625,0,2023-03-10T14:08:25.038020,6383218,1942,364,622,-998,-627,-276,121,73,-113
22306,5626,0,2023-03-10T14:08:25.042687,6383223,1942,364,622,-998,-627,-276,121,73,-113
22307,5627,0,2023-03-10T14:08:25.047198,6383227,1942,364,622,-998,-627,-276,121,73,-113
22308,5628,0,2023-03-10T14:08:25.051794,6383233,1961,372,612,-996,-656,-280,121,73,-113
22309,5629,0,2023-03-10T14:08:25.057219,6383238,1961,372,612,-996,-656,-280,121,73,-113
22310,5630,0,2023-03-10T14:08:25.061735,6383242,1961,372,612,-996,-656,-280,121,73,-113
22311,5631,0,2023-03-10T14:08:25.066142,6383247,1961,372,612,-996,-656,-280,121,73,-113
22312,5632,0,2023-03-10T14:08:25.070503,6383251,1963,372,626,-981,-604,-264,121,73,-113
22313,5633,0,2023-03-10T14:08:25.075249,6383256,1963,372,626,-981,-604,-264,121,73,-113
22314,5634,0,2023-03-10T14:08:25.079755,6383260,1963,372,626,-981,-604,-264,121,73,-113
22315,5635,0,2023-03-10T14:08:25.084053,6383264,1963,372,626,-981,-604,-264,121,73,-113
22316,5636,0,2023-03-10T14:08:25.088451,6383269,1957,366,633,-975,-655,-258,123,73,-115
22317,5637,0,2023-03-10T14:08:25.093240,6383273,1957,366,633,-975,-655,-258,123,73,-115
22318,5638,0,2023-03-10T14:08:25.097697,6383278,1957,366,633,-975,-655,-258,123,73,-115
22319,5639,0,2023-03-10T14:08:25.102111,6383283,1957,366,633,-975,-655,-258,123,73,-115
22320,5640,0,2023-03-10T14:08:25.106581,6383287,1957,366,633,-975,-655,-258,123,73,-115
22321,5641,0,2023-03-10T14:08:25.111061,6383291,1963,370,620,-1018,-623,-293,123,73,-115
22322,5642,0,2023-03-10T14:08:25.116720,6383297,1963,370,620,-1018,-623,-293,123,73,-115
22323,5643,0,2023-03-10T14:08:25.121115,6383301,1963,370,620,-1018,-623,-293,123,73,-115
22324,5644,0,2023-03-10T14:08:25.125467,6383306,1963,370,620,-1018,-623,-293,123,73,-115
22325,5645,0,2023-03-10T14:08:25.130042,6383310,1949,361,619,-1003,-632,-265,123,73,-115
22326,5646,0,2023-03-10T14:08:25.135806,6383316,1949,361,619,-1003,-632,-265,123,73,-115
22327,5647,0,2023-03-10T14:08:25.140221,6383321,1949,361,619,-1003,-632,-265,123,73,-115
22328,5648,0,2023-03-10T14:08:25.144593,6383325,1949,361,619,-1003,-632,-265,123,73,-115
22329,5649,0,2023-03-10T14:08:25.149075,6383330,1984,385,625,-988,-639,-309,123,73,-115
22330,5650,0,2023-03-10T14:08:25.154555,6383335,1984,385,625,-988,-639,-309,123,73,-115
22331,5651,0,2023-03-10T14:08:25.159119,6383339,1984,385,625,-988,-639,-309,123,73,-115
22332,5652,0,2023-03-10T14:08:25.163839,6383344,1984,385,625,-988,-639,-309,123,73,-115
22333,5653,0,2023-03-10T14:08:25.168282,6383348,1957,368,617,-980,-640,-251,123,73,-115
22334,5654,0,2023-03-10T14:08:25.173214,6383353,1957,368,617,-980,-640,-251,123,73,-115
22335,5655,0,2023-03-10T14:08:25.177495,6383357,1957,368,617,-980,-640,-251,123,73,-115
22336,5656,0,2023-03-10T14:08:25.181936,6383363,1957,368,617,-980,-640,-251,123,73,-115
22337,5657,0,2023-03-10T14:08:25.186296,6383367,1957,368,617,-980,-640,-251,123,73,-115
22338,5658,0,2023-03-10T14:08:25.190634,6383371,1950,366,626,-990,-620,-286,123,73,-115
22339,5659,0,2023-03-10T14:08:25.196075,6383377,1950,366,626,-990,-620,-286,123,73,-115
22340,5660,0,2023-03-10T14:08:25.200596,6383381,1950,366,626,-990,-620,-286,123,73,-115
22341,5661,0,2023-03-10T14:08:25.204992,6383385,1950,366,626,-990,-620,-286,123,73,-115
22342,5662,0,2023-03-10T14:08:25.210169,6383390,1964,369,618,-1017,-657,-291,119,67,-113
22343,5663,0,2023-03-10T14:08:25.216560,6383396,1964,369,618,-1017,-657,-291,119,67,-113
22344,5664,0,2023-03-10T14:08:25.221428,6383401,1964,369,618,-1017,-657,-291,119,67,-113
22345,5665,0,2023-03-10T14:08:25.226078,6383407,1964,369,618,-1017,-657,-291,119,67,-113
22346,5666,0,2023-03-10T14:08:25.230555,6383411,1965,373,628,-996,-615,-284,119,67,-113
22347,5667,0,2023-03-10T14:08:25.236497,6383417,1965,373,628,-996,-615,-284,119,67,-113
22348,5668,0,2023-03-10T14:08:25.240950,6383421,1965,373,628,-996,-615,-284,119,67,-113
22349,5669,0,2023-03-10T14:08:25.245378,6383426,1965,373,628,-996,-615,-284,119,67,-113
22350,5670,0,2023-03-10T14:08:25.249707,6383430,1974,375,626,-998,-687,-280,119,67,-113
22351,5671,0,2023-03-10T14:08:25.255375,6383435,1974,375,626,-998,-687,-280,119,67,-113
22352,5672,0,2023-03-10T14:08:25.259896,6383440,1974,375,626,-998,-687,-280,119,67,-113
22353,5673,0,2023-03-10T14:08:25.264443,6383444,1974,375,626,-998,-687,-280,119,67,-113
22354,5674,0,2023-03-10T14:08:25.269033,6383450,1957,365,620,-964,-642,-254,119,67,-113
22355,5675,0,2023-03-10T14:08:25.273990,6383455,1957,365,620,-964,-642,-254,119,67,-113
22356,5676,0,2023-03-10T14:08:25.278486,6383459,1957,365,620,-964,-642,-254,119,67,-113
22357,5677,0,2023-03-10T14:08:25.282873,6383463,1957,365,620,-964,-642,-254,119,67,-113
22358,5678,0,2023-03-10T14:08:25.287428,6383468,1957,365,620,-964,-642,-254,119,67,-113
22359,5679,0,2023-03-10T14:08:25.292121,6383472,1951,368,627,-994,-581,-279,119,67,-113
22360,5680,0,2023-03-10T14:08:25.298006,6383478,1951,368,627,-994,-581,-279,119,67,-113
22361,5681,0,2023-03-10T14:08:25.302428,6383482,1951,368,627,-994,-581,-279,119,67,-113
22362,5682,0,2023-03-10T14:08:25.306942,6383488,1951,368,627,-994,-581,-279,119,67,-113
22363,5683,0,2023-03-10T14:08:25.311214,6383492,1990,379,617,-1011,-645,-308,119,67,-113
22364,5684,0,2023-03-10T14:08:25.316869,6383498,1990,379,617,-1011,-645,-308,119,67,-113
22365,5685,0,2023-03-10T14:08:25.321598,6383502,1990,379,617,-1011,-645,-308,119,67,-113
22366,5686,0,2023-03-10T14:08:25.326464,6383507,1990,379,617,-1011,-645,-308,119,67,-113
22367,5687,0,2023-03-10T14:08:25.331239,6383511,1946,365,610,-980,-626,-251,119,67,-113
22368,5688,0,2023-03-10T14:08:25.337426,6383517,1946,365,610,-980,-626,-251,119,67,-113
22369,5689,0,2023-03-10T14:08:25.341980,6383522,1946,365,610,-980,-626,-251,119,67,-113
22370,5690,0,2023-03-10T14:08:25.346301,6383526,1946,365,610,-980,-626,-251,119,67,-113
22371,5691,0,2023-03-10T14:08:25.350655,6383531,1974,372,620,-988,-625,-286,125,67,-115
22372,5692,0,2023-03-10T14:08:25.356131,6383537,1974,372,620,-988,-625,-286,125,67,-115
22373,5693,0,2023-03-10T14:08:25.360421,6383541,1974,372,620,-988,-625,-286,125,67,-115
22374,5694,0,2023-03-10T14:08:25.364897,6383545,1974,372,620,-988,-625,-286,125,67,-115
22375,5695,0,2023-03-10T14:08:25.369280,6383550,1953,370,618,-1020,-646,-277,125,67,-115
22376,5696,0,2023-03-10T14:08:25.374267,6383554,1953,370,618,-1020,-646,-277,125,67,-115
22377,5697,0,2023-03-10T14:08:25.378666,6383559,1953,370,618,-1020,-646,-277,125,67,-115
22378,5698,0,2023-03-10T14:08:25.383003,6383563,1953,370,618,-1020,-646,-277,125,67,-115
22379,5699,0,2023-03-10T14:08:25.387521,6383567,1953,370,618,-1020,-646,-277,125,67,-115
22380,5700,0,2023-03-10T14:08:25.391925,6383572,1972,371,621,-1008,-627,-288,125,67,-115
22381,5701,0,2023-03-10T14:08:25.396403,6383577,1972,371,621,-1008,-627,-288,125,67,-115
22382,5702,0,2023-03-10T14:08:25.401050,6383581,1972,371,621,-1008,-627,-288,125,67,-115
22383,5703,0,2023-03-10T14:08:25.405417,6383586,1972,371,621,-1008,-627,-288,125,67,-115
22384,5704,0,2023-03-10T14:08:25.409803,6383590,1970,381,615,-998,-626,-296,125,67,-115
22385,5705,0,2023-03-10T14:08:25.414621,6383595,1970,381,615,-998,-626,-296,125,67,-115
22386,5706,0,2023-03-10T14:08:25.419144,6383599,1970,381,615,-998,-626,-296,125,67,-115
22387,5707,0,2023-03-10T14:08:25.423535,6383604,1970,381,615,-998,-626,-296,125,67,-115
22388,5708,0,2023-03-10T14:08:25.427920,6383608,1970,381,615,-998,-626,-296,125,67,-115
22389,5709,0,2023-03-10T14:08:25.432431,6383612,1939,362,617,-1000,-617,-269,125,67,-115
22390,5710,0,2023-03-10T14:08:25.438276,6383619,1939,362,617,-1000,-617,-269,125,67,-115
22391,5711,0,2023-03-10T14:08:25.442639,6383623,1939,362,617,-1000,-617,-269,125,67,-115
22392,5712,0,2023-03-10T14:08:25.446960,6383628,1939,362,617,-1000,-617,-269,125,67,-115
22393,5713,0,2023-03-10T14:08:25.451473,6383632,1968,378,624,-982,-629,-290,125,67,-115
22394,5714,0,2023-03-10T14:08:25.457093,6383638,1968,378,624,-982,-629,-290,125,67,-115
22395,5715,0,2023-03-10T14:08:25.461712,6383642,1968,378,624,-982,-629,-290,125,67,-115
22396,5716,0,2023-03-10T14:08:25.465984,6383646,1968,378,624,-982,-629,-290,125,67,-115
22397,5717,0,2023-03-10T14:08:25.470406,6383651,1970,373,618,-1011,-643,-286,125,73,-119
22398,5718,0,2023-03-10T14:08:25.475078,6383655,1970,373,618,-1011,-643,-286,125,73,-119
22399,5719,0,2023-03-10T14:08:25.479645,6383660,1970,373,618,-1011,-643,-286,125,73,-119
22400,5720,0,2023-03-10T14:08:25.484053,6383665,1970,373,618,-1011,-643,-286,125,73,-119
22401,5721,0,2023-03-10T14:08:25.488508,6383669,1972,369,609,-993,-640,-278,125,73,-119
22402,5722,0,2023-03-10T14:08:25.494147,6383675,1972,369,609,-993,-640,-278,125,73,-119
22403,5723,0,2023-03-10T14:08:25.498585,6383679,1972,369,609,-993,-640,-278,125,73,-119
22404,5724,0,2023-03-10T14:08:25.503058,6383683,1972,369,609,-993,-640,-278,125,73,-119
22405,5725,0,2023-03-10T14:08:25.507454,6383688,1972,369,609,-993,-640,-278,125,73,-119
22406,5726,0,2023-03-10T14:08:25.512051,6383692,1952,372,615,-1002,-626,-291,125,73,-119
22407,5727,0,2023-03-10T14:08:25.517764,6383698,1952,372,615,-1002,-626,-291,125,73,-119
22408,5728,0,2023-03-10T14:08:25.522513,6383703,1952,372,615,-1002,-626,-291,125,73,-119
22409,5729,0,2023-03-10T14:08:25.527320,6383708,1952,372,615,-1002,-626,-291,125,73,-119
22410,5730,0,2023-03-10T14:08:25.531984,6383712,1964,365,620,-1003,-628,-284,125,73,-119
22411,5731,0,2023-03-10T14:08:25.536945,6383717,1964,365,620,-1003,-628,-284,125,73,-119
22412,5732,0,2023-03-10T14:08:25.541514,6383722,1964,365,620,-1003,-628,-284,125,73,-119
22413,5733,0,2023-03-10T14:08:25.546034,6383726,1964,365,620,-1003,-628,-284,125,73,-119
22414,5734,0,2023-03-10T14:08:25.550402,6383731,1981,384,617,-994,-627,-299,125,73,-119
22415,5735,0,2023-03-10T14:08:25.555794,6383736,1981,384,617,-994,-627,-299,125,73,-119
22416,5736,0,2023-03-10T14:08:25.560142,6383740,1981,384,617,-994,-627,-299,125,73,-119
22417,5737,0,2023-03-10T14:08:25.564364,6383745,1981,384,617,-994,-627,-299,125,73,-119
22418,5738,0,2023-03-10T14:08:25.568902,6383750,1958,365,617,-972,-622,-247,125,73,-119
22419,5739,0,2023-03-10T14:08:25.574195,6383755,1958,365,617,-972,-622,-247,125,73,-119
22420,5740,0,2023-03-10T14:08:25.578956,6383759,1958,365,617,-972,-622,-247,125,73,-119
22421,5741,0,2023-03-10T14:08:25.583285,6383764,1958,365,617,-972,-622,-247,125,73,-119
22422,5742,0,2023-03-10T14:08:25.587758,6383768,1958,365,617,-972,-622,-247,125,73,-119
22423,5743,0,2023-03-10T14:08:25.592136,6383772,1952,364,626,-984,-612,-282,125,73,-119
22424,5744,0,2023-03-10T14:08:25.596512,6383777,1952,364,626,-984,-612,-282,125,73,-119
22425,5745,0,2023-03-10T14:08:25.601171,6383781,1952,364,626,-984,-612,-282,125,73,-119
22426,5746,0,2023-03-10T14:08:25.605646,6383787,1952,364,626,-984,-612,-282,125,73,-119
22427,5747,0,2023-03-10T14:08:25.609977,6383791,1961,370,608,-1011,-676,-280,124,62,-116
22428,5748,0,2023-03-10T14:08:25.615678,6383796,1961,370,608,-1011,-676,-280,124,62,-116
22429,5749,0,2023-03-10T14:08:25.620226,6383801,1961,370,608,-1011,-676,-280,124,62,-116
22430,5750,0,2023-03-10T14:08:25.624598,6383805,1961,370,608,-1011,-676,-280,124,62,-116
22431,5751,0,2023-03-10T14:08:25.629149,6383809,1971,369,618,-990,-611,-283,124,62,-116
22432,5752,0,2023-03-10T14:08:25.634550,6383815,1971,369,618,-990,-611,-283,124,62,-116
22433,5753,0,2023-03-10T14:08:25.639263,6383819,1971,369,618,-990,-611,-283,124,62,-116
22434,5754,0,2023-03-10T14:08:25.643470,6383824,1971,369,618,-990,-611,-283,124,62,-116
22435,5755,0,2023-03-10T14:08:25.647898,6383828,1971,369,618,-990,-611,-283,124,62,-116
22436,5756,0,2023-03-10T14:08:25.652495,6383833,1960,371,611,-995,-649,-288,124,62,-116
22437,5757,0,2023-03-10T14:08:25.657980,6383839,1960,371,611,-995,-649,-288,124,62,-116
22438,5758,0,2023-03-10T14:08:25.662374,6383843,1960,371,611,-995,-649,-288,124,62,-116
22439,5759,0,2023-03-10T14:08:25.666961,6383847,1960,371,611,-995,-649,-288,124,62,-116
22440,5760,0,2023-03-10T14:08:25.671655,6383852,1966,366,621,-991,-611,-286,124,62,-116
22441,5761,0,2023-03-10T14:08:25.676104,6383856,1966,366,621,-991,-611,-286,124,62,-116
22442,5762,0,2023-03-10T14:08:25.680509,6383861,1966,366,621,-991,-611,-286,124,62,-116
22443,5763,0,2023-03-10T14:08:25.685068,6383865,1966,366,621,-991,-611,-286,124,62,-116
22444,5764,0,2023-03-10T14:08:25.689748,6383870,1951,366,616,-988,-660,-286,124,62,-116
22445,5765,0,2023-03-10T14:08:25.695074,6383876,1951,366,616,-988,-660,-286,124,62,-116
22446,5766,0,2023-03-10T14:08:25.699498,6383880,1951,366,616,-988,-660,-286,124,62,-116
22447,5767,0,2023-03-10T14:08:25.704004,6383885,1951,366,616,-988,-660,-286,124,62,-116
22448,5768,0,2023-03-10T14:08:25.708457,6383889,1951,366,616,-988,-660,-286,124,62,-116
22449,5769,0,2023-03-10T14:08:25.713442,6383893,1977,370,615,-1006,-618,-289,124,62,-116
22450,5770,0,2023-03-10T14:08:25.718942,6383899,1977,370,615,-1006,-618,-289,124,62,-116
22451,5771,0,2023-03-10T14:08:25.723311,6383903,1977,370,615,-1006,-618,-289,124,62,-116
22452,5772,0,2023-03-10T14:08:25.727822,6383908,1977,370,615,-1006,-618,-289,124,62,-116
22453,5773,0,2023-03-10T14:08:25.732369,6383912,1960,373,611,-990,-638,-283,117,73,-119
22454,5774,0,2023-03-10T14:08:25.738023,6383919,1960,373,611,-990,-638,-283,117,73,-119
22455,5775,0,2023-03-10T14:08:25.742380,6383923,1960,373,611,-990,-638,-283,117,73,-119
22456,5776,0,2023-03-10T14:08:25.746715,6383927,1960,373,611,-990,-638,-283,117,73,-119
22457,5777,0,2023-03-10T14:08:25.751039,6383932,1964,370,612,-977,-625,-265,117,73,-119
22458,5778,0,2023-03-10T14:08:25.755452,6383936,1964,370,612,-977,-625,-265,117,73,-119
22459,5779,0,2023-03-10T14:08:25.759868,6383940,1964,370,612,-977,-625,-265,117,73,-119
22460,5780,0,2023-03-10T14:08:25.764218,6383945,1964,370,612,-977,-625,-265,117,73,-119
22461,5781,0,2023-03-10T14:08:25.768937,6383949,1964,370,612,-977,-625,-265,117,73,-119
22462,5782,0,2023-03-10T14:08:25.773510,6383953,1947,362,617,-970,-634,-265,117,73,-119
22463,5783,0,2023-03-10T14:08:25.778078,6383959,1947,362,617,-970,-634,-265,117,73,-119
22464,5784,0,2023-03-10T14:08:25.782382,6383963,1947,362,617,-970,-634,-265,117,73,-119
22465,5785,0,2023-03-10T14:08:25.787177,6383968,1947,362,617,-970,-634,-265,117,73,-119
22466,5786,0,2023-03-10T14:08:25.791673,6383972,1986,376,607,-995,-629,-306,117,73,-119
22467,5787,0,2023-03-10T14:08:25.797013,6383978,1986,376,607,-995,-629,-306,117,73,-119
22468,5788,0,2023-03-10T14:08:25.801243,6383982,1986,376,607,-995,-629,-306,117,73,-119
22469,5789,0,2023-03-10T14:08:25.805741,6383986,1986,376,607,-995,-629,-306,117,73,-119
22470,5790,0,2023-03-10T14:08:25.810263,6383990,1976,367,604,-997,-641,-275,117,73,-119
22471,5791,0,2023-03-10T14:08:25.816012,6383996,1976,367,604,-997,-641,-275,117,73,-119
22472,5792,0,2023-03-10T14:08:25.820441,6384001,1976,367,604,-997,-641,-275,117,73,-119
22473,5793,0,2023-03-10T14:08:25.825054,6384006,1976,367,604,-997,-641,-275,117,73,-119
22474,5794,0,2023-03-10T14:08:25.829603,6384010,1952,366,608,-985,-640,-276,117,73,-119
22475,5795,0,2023-03-10T14:08:25.834171,6384015,1952,366,608,-985,-640,-276,117,73,-119
22476,5796,0,2023-03-10T14:08:25.838474,6384019,1952,366,608,-985,-640,-276,117,73,-119
22477,5797,0,2023-03-10T14:08:25.842943,6384023,1952,366,608,-985,-640,-276,117,73,-119
22478,5798,0,2023-03-10T14:08:25.847404,6384028,1952,366,608,-985,-640,-276,117,73,-119
22479,5799,0,2023-03-10T14:08:25.851978,6384032,1978,369,610,-1015,-612,-294,117,73,-119
22480,5800,0,2023-03-10T14:08:25.856498,6384037,1978,369,610,-1015,-612,-294,117,73,-119
22481,5801,0,2023-03-10T14:08:25.860924,6384041,1978,369,610,-1015,-612,-294,117,73,-119
22482,5802,0,2023-03-10T14:08:25.865218,6384046,1978,369,610,-1015,-612,-294,117,73,-119
22483,5803,0,2023-03-10T14:08:25.869498,6384050,1948,364,611,-993,-644,-263,118,72,-110
22484,5804,0,2023-03-10T14:08:25.873823,6384055,1948,364,611,-993,-644,-263,118,72,-110
22485,5805,0,2023-03-10T14:08:25.878383,6384059,1948,364,611,-993,-644,-263,118,72,-110
22486,5806,0,2023-03-10T14:08:25.882851,6384063,1948,364,611,-993,-644,-263,118,72,-110
22487,5807,0,2023-03-10T14:08:25.887215,6384068,1948,364,611,-993,-644,-263,118,72,-110
22488,5808,0,2023-03-10T14:08:25.891646,6384072,1987,371,613,-1014,-625,-284,118,72,-110
22489,5809,0,2023-03-10T14:08:25.896963,6384077,1987,371,613,-1014,-625,-284,118,72,-110
22490,5810,0,2023-03-10T14:08:25.901399,6384081,1987,371,613,-1014,-625,-284,118,72,-110
22491,5811,0,2023-03-10T14:08:25.905684,6384087,1987,371,613,-1014,-625,-284,118,72,-110
22492,5812,0,2023-03-10T14:08:25.910121,6384091,1950,367,601,-993,-642,-271,118,72,-110
22493,5813,0,2023-03-10T14:08:25.916547,6384097,1950,367,601,-993,-642,-271,118,72,-110
22494,5814,0,2023-03-10T14:08:25.921561,6384102,1950,367,601,-993,-642,-271,118,72,-110
22495,5815,0,2023-03-10T14:08:25.926026,6384106,1950,367,601,-993,-642,-271,118,72,-110
22496,5816,0,2023-03-10T14:08:25.930298,6384111,1974,359,612,-1001,-622,-288,118,72,-110
22497,5817,0,2023-03-10T14:08:25.935397,6384116,1974,359,612,-1001,-622,-288,118,72,-110
22498,5818,0,2023-03-10T14:08:25.939660,6384120,1974,359,612,-1001,-622,-288,118,72,-110
22499,5819,0,2023-03-10T14:08:25.944198,6384124,1974,359,612,-1001,-622,-288,118,72,-110
22500,5820,0,2023-03-10T14:08:25.948668,6384130,1974,359,612,-1001,-622,-288,118,72,-110
22501,5821,0,2023-03-10T14:08:25.953757,6384134,1947,361,598,-980,-714,-277,118,72,-110
22502,5822,0,2023-03-10T14:08:25.958461,6384139,1947,361,598,-980,-714,-277,118,72,-110
22503,5823,0,2023-03-10T14:08:25.962837,6384143,1947,361,598,-980,-714,-277,118,72,-110
22504,5824,0,2023-03-10T14:08:25.967202,6384148,1947,361,598,-980,-714,-277,118,72,-110
22505,5825,0,2023-03-10T14:08:25.971707,6384152,1982,368,613,-999,-607,-285,118,72,-110
22506,5826,0,2023-03-10T14:08:25.976944,6384157,1982,368,613,-999,-607,-285,118,72,-110
22507,5827,0,2023-03-10T14:08:25.981455,6384162,1982,368,613,-999,-607,-285,118,72,-110
22508,5828,0,2023-03-10T14:08:25.985723,6384166,1982,368,613,-999,-607,-285,118,72,-110
22509,5829,0,2023-03-10T14:08:25.990228,6384171,1959,369,614,-992,-595,-275,121,71,-115
22510,5830,0,2023-03-10T14:08:25.995554,6384176,1959,369,614,-992,-595,-275,121,71,-115
22511,5831,0,2023-03-10T14:08:25.999930,6384181,1959,369,614,-992,-595,-275,121,71,-115
22512,5832,0,2023-03-10T14:08:26.004331,6384185,1959,369,614,-992,-595,-275,121,71,-115
22513,5833,0,2023-03-10T14:08:26.008809,6384189,1959,369,614,-992,-595,-275,121,71,-115
22514,5834,0,2023-03-10T14:08:26.013755,6384194,1954,368,618,-964,-640,-256,121,71,-115
22515,5835,0,2023-03-10T14:08:26.019248,6384199,1954,368,618,-964,-640,-256,121,71,-115
22516,5836,0,2023-03-10T14:08:26.023930,6384204,1954,368,618,-964,-640,-256,121,71,-115
22517,5837,0,2023-03-10T14:08:26.028624,6384208,1954,368,618,-964,-640,-256,121,71,-115
22518,5838,0,2023-03-10T14:08:26.033154,6384214,1980,369,616,-1006,-616,-295,121,71,-115
22519,5839,0,2023-03-10T14:08:26.038357,6384219,1980,369,616,-1006,-616,-295,121,71,-115
22520,5840,0,2023-03-10T14:08:26.043210,6384224,1980,369,616,-1006,-616,-295,121,71,-115
22521,5841,0,2023-03-10T14:08:26.047744,6384228,1980,369,616,-1006,-616,-295,121,71,-115
22522,5842,0,2023-03-10T14:08:26.052379,6384233,1965,366,601,-995,-693,-285,121,71,-115
22523,5843,0,2023-03-10T14:08:26.057766,6384238,1965,366,601,-995,-693,-285,121,71,-115
22524,5844,0,2023-03-10T14:08:26.062368,6384243,1965,366,601,-995,-693,-285,121,71,-115
22525,5845,0,2023-03-10T14:08:26.066872,6384247,1965,366,601,-995,-693,-285,121,71,-115
22526,5846,0,2023-03-10T14:08:26.071427,6384251,1965,366,601,-995,-693,-285,121,71,-115
22527,5847,0,2023-03-10T14:08:26.076540,6384257,1965,366,601,-995,-693,-285,121,71,-115
22528,5848,0,2023-03-10T14:08:26.081035,6384262,1965,366,601,-995,-693,-285,121,71,-115
22529,5849,0,2023-03-10T14:08:26.085421,6384266,1965,366,601,-995,-693,-285,121,71,-115
22530,5850,0,2023-03-10T14:08:26.089909,6384270,1951,368,612,-1000,-572,-278,121,71,-115
22531,5851,0,2023-03-10T14:08:26.094340,6384275,1951,368,612,-1000,-572,-278,121,71,-115
22532,5852,0,2023-03-10T14:08:26.098664,6384279,1951,368,612,-1000,-572,-278,121,71,-115
22533,5853,0,2023-03-10T14:08:26.103085,6384283,1951,368,612,-1000,-572,-278,121,71,-115
22534,5854,0,2023-03-10T14:08:26.107478,6384288,1951,368,612,-1000,-572,-278,121,71,-115
22535,5855,0,2023-03-10T14:08:26.112381,6384292,1987,375,616,-991,-641,-290,114,62,-114
22536,5856,0,2023-03-10T14:08:26.118012,6384299,1987,375,616,-991,-641,-290,114,62,-114
22537,5857,0,2023-03-10T14:08:26.122389,6384303,1987,375,616,-991,-641,-290,114,62,-114
22538,5858,0,2023-03-10T14:08:26.126865,6384307,1987,375,616,-991,-641,-290,114,62,-114
22539,5859,0,2023-03-10T14:08:26.131135,6384312,1954,366,613,-1003,-625,-270,114,62,-114
22540,5860,0,2023-03-10T14:08:26.136088,6384316,1954,366,613,-1003,-625,-270,114,62,-114
22541,5861,0,2023-03-10T14:08:26.140504,6384321,1954,366,613,-1003,-625,-270,114,62,-114
22542,5862,0,2023-03-10T14:08:26.145035,6384325,1954,366,613,-1003,-625,-270,114,62,-114
22543,5863,0,2023-03-10T14:08:26.149436,6384330,1973,361,608,-997,-630,-272,114,62,-114
22544,5864,0,2023-03-10T14:08:26.155053,6384335,1973,361,608,-997,-630,-272,114,62,-114
22545,5865,0,2023-03-10T14:08:26.159725,6384339,1973,361,608,-997,-630,-272,114,62,-114
22546,5866,0,2023-03-10T14:08:26.164282,6384345,1973,361,608,-997,-630,-272,114,62,-114
22547,5867,0,2023-03-10T14:08:26.168836,6384349,1973,361,608,-997,-630,-272,114,62,-114
22548,5868,0,2023-03-10T14:08:26.173731,6384354,1963,368,606,-993,-653,-275,114,62,-114
22549,5869,0,2023-03-10T14:08:26.178946,6384360,1963,368,606,-993,-653,-275,114,62,-114
22550,5870,0,2023-03-10T14:08:26.183392,6384364,1963,368,606,-993,-653,-275,114,62,-114
22551,5871,0,2023-03-10T14:08:26.187820,6384368,1963,368,606,-993,-653,-275,114,62,-114
22552,5872,0,2023-03-10T14:08:26.192491,6384373,1976,372,611,-999,-643,-283,114,62,-114
22553,5873,0,2023-03-10T14:08:26.198011,6384378,1976,372,611,-999,-643,-283,114,62,-114
22554,5874,0,2023-03-10T14:08:26.202405,6384382,1976,372,611,-999,-643,-283,114,62,-114
22555,5875,0,2023-03-10T14:08:26.206970,6384388,1976,372,611,-999,-643,-283,114,62,-114
22556,5876,0,2023-03-10T14:08:26.211502,6384392,1979,373,607,-984,-635,-292,114,62,-114
22557,5877,0,2023-03-10T14:08:26.216827,6384397,1979,373,607,-984,-635,-292,114,62,-114
22558,5878,0,2023-03-10T14:08:26.221207,6384402,1979,373,607,-984,-635,-292,114,62,-114
22559,5879,0,2023-03-10T14:08:26.225657,6384406,1979,373,607,-984,-635,-292,114,62,-114
22560,5880,0,2023-03-10T14:08:26.230112,6384410,1954,359,604,-997,-611,-270,114,62,-114
22561,5881,0,2023-03-10T14:08:26.235769,6384416,1954,359,604,-997,-611,-270,114,62,-114
22562,5882,0,2023-03-10T14:08:26.240222,6384420,1954,359,604,-997,-611,-270,114,62,-114
22563,5883,0,2023-03-10T14:08:26.244794,6384425,1954,359,604,-997,-611,-270,114,62,-114
22564,5884,0,2023-03-10T14:08:26.249432,6384430,1954,359,604,-997,-611,-270,114,62,-114
22565,5885,0,2023-03-10T14:08:26.254425,6384435,1965,360,607,-984,-650,-283,113,69,-109
22566,5886,0,2023-03-10T14:08:26.260998,6384440,1965,360,607,-984,-650,-283,113,69,-109
22567,5887,0,2023-03-10T14:08:26.265622,6384446,1965,360,607,-984,-650,-283,113,69,-109
22568,5888,0,2023-03-10T14:08:26.270177,6384450,1981,374,611,-1006,-608,-283,113,69,-109
22569,5889,0,2023-03-10T14:08:26.275581,6384456,1981,374,611,-1006,-608,-283,113,69,-109
22570,5890,0,2023-03-10T14:08:26.280540,6384460,1981,374,611,-1006,-608,-283,113,69,-109
22571,5891,0,2023-03-10T14:08:26.285178,6384465,1981,374,611,-1006,-608,-283,113,69,-109
22572,5892,0,2023-03-10T14:08:26.289531,6384470,1981,374,611,-1006,-608,-283,113,69,-109
22573,5893,0,2023-03-10T14:08:26.294049,6384475,1960,362,606,-982,-652,-271,113,69,-109
22574,5894,0,2023-03-10T14:08:26.298934,6384480,1960,362,606,-982,-652,-271,113,69,-109
22575,5895,0,2023-03-10T14:08:26.303493,6384484,1960,362,606,-982,-652,-271,113,69,-109
22576,5896,0,2023-03-10T14:08:26.307822,6384488,1960,362,606,-982,-652,-271,113,69,-109
22577,5897,0,2023-03-10T14:08:26.312218,6384493,1976,369,608,-998,-615,-297,113,69,-109
22578,5898,0,2023-03-10T14:08:26.317971,6384498,1976,369,608,-998,-615,-297,113,69,-109
22579,5899,0,2023-03-10T14:08:26.322389,6384502,1976,369,608,-998,-615,-297,113,69,-109
22580,5900,0,2023-03-10T14:08:26.327214,6384507,1976,369,608,-998,-615,-297,113,69,-109
22581,5901,0,2023-03-10T14:08:26.331733,6384513,1976,369,608,-998,-615,-297,113,69,-109
22582,5902,0,2023-03-10T14:08:26.337015,6384518,1976,369,608,-998,-615,-297,113,69,-109
22583,5903,0,2023-03-10T14:08:26.341505,6384522,1976,369,608,-998,-615,-297,113,69,-109
22584,5904,0,2023-03-10T14:08:26.345976,6384526,1976,369,608,-998,-615,-297,113,69,-109
22585,5905,0,2023-03-10T14:08:26.350511,6384531,1980,375,606,-987,-598,-298,113,69,-109
22586,5906,0,2023-03-10T14:08:26.355870,6384536,1980,375,606,-987,-598,-298,113,69,-109
22587,5907,0,2023-03-10T14:08:26.360036,6384540,1980,375,606,-987,-598,-298,113,69,-109
22588,5908,0,2023-03-10T14:08:26.364482,6384545,1980,375,606,-987,-598,-298,113,69,-109
22589,5909,0,2023-03-10T14:08:26.368982,6384549,1980,375,606,-987,-598,-298,113,69,-109
22590,5910,0,2023-03-10T14:08:26.374637,6384555,1970,366,606,-983,-636,-274,120,70,-124
22591,5911,0,2023-03-10T14:08:26.379823,6384560,1970,366,606,-983,-636,-274,120,70,-124
22592,5912,0,2023-03-10T14:08:26.384237,6384565,1970,366,606,-983,-636,-274,120,70,-124
22593,5913,0,2023-03-10T14:08:26.388624,6384569,1970,366,606,-983,-636,-274,120,70,-124
22594,5914,0,2023-03-10T14:08:26.393093,6384573,1964,372,606,-989,-607,-279,120,70,-124
22595,5915,0,2023-03-10T14:08:26.398591,6384579,1964,372,606,-989,-607,-279,120,70,-124
22596,5916,0,2023-03-10T14:08:26.403038,6384583,1964,372,606,-989,-607,-279,120,70,-124
22597,5917,0,2023-03-10T14:08:26.407620,6384588,1964,372,606,-989,-607,-279,120,70,-124
22598,5918,0,2023-03-10T14:08:26.412023,6384592,1953,360,598,-999,-642,-266,120,70,-124
22599,5919,0,2023-03-10T14:08:26.417704,6384599,1953,360,598,-999,-642,-266,120,70,-124
22600,5920,0,2023-03-10T14:08:26.422150,6384603,1953,360,598,-999,-642,-266,120,70,-124
22601,5921,0,2023-03-10T14:08:26.426593,6384607,1953,360,598,-999,-642,-266,120,70,-124
22602,5922,0,2023-03-10T14:08:26.431043,6384612,1984,368,607,-985,-629,-287,120,70,-124
22603,5923,0,2023-03-10T14:08:26.436747,6384617,1984,368,607,-985,-629,-287,120,70,-124
22604,5924,0,2023-03-10T14:08:26.441076,6384621,1984,368,607,-985,-629,-287,120,70,-124
22605,5925,0,2023-03-10T14:08:26.445572,6384626,1984,368,607,-985,-629,-287,120,70,-124
22606,5926,0,2023-03-10T14:08:26.450280,6384630,1979,373,597,-997,-646,-282,120,70,-124
22607,5927,0,2023-03-10T14:08:26.455684,6384636,1979,373,597,-997,-646,-282,120,70,-124
22608,5928,0,2023-03-10T14:08:26.460001,6384641,1979,373,597,-997,-646,-282,120,70,-124
22609,5929,0,2023-03-10T14:08:26.464372,6384645,1979,373,597,-997,-646,-282,120,70,-124
22610,5930,0,2023-03-10T14:08:26.468905,6384649,1979,373,597,-997,-646,-282,120,70,-124
22611,5931,0,2023-03-10T14:08:26.474269,6384655,1960,364,600,-975,-643,-269,120,70,-124
22612,5932,0,2023-03-10T14:08:26.479084,6384660,1960,364,600,-975,-643,-269,120,70,-124
22613,5933,0,2023-03-10T14:08:26.483897,6384664,1960,364,600,-975,-643,-269,120,70,-124
22614,5934,0,2023-03-10T14:08:26.488306,6384669,1960,364,600,-975,-643,-269,120,70,-124
22615,5935,0,2023-03-10T14:08:26.492832,6384673,1984,367,601,-991,-606,-289,120,70,-124
22616,5936,0,2023-03-10T14:08:26.497268,6384677,1984,367,601,-991,-606,-289,120,70,-124
22617,5937,0,2023-03-10T14:08:26.501608,6384683,1984,367,601,-991,-606,-289,120,70,-124
22618,5938,0,2023-03-10T14:08:26.506083,6384687,1984,367,601,-991,-606,-289,120,70,-124
22619,5939,0,2023-03-10T14:08:26.510326,6384691,1953,363,604,-983,-646,-272,118,70,-120
22620,5940,0,2023-03-10T14:08:26.516051,6384697,1953,363,604,-983,-646,-272,118,70,-120
22621,5941,0,2023-03-10T14:08:26.520499,6384701,1953,363,604,-983,-646,-272,118,70,-120
22622,5942,0,2023-03-10T14:08:26.525151,6384705,1953,363,604,-983,-646,-272,118,70,-120
22623,5943,0,2023-03-10T14:08:26.529577,6384710,1953,363,604,-983,-646,-272,118,70,-120
22624,5944,0,2023-03-10T14:08:26.534447,6384715,1993,381,605,-992,-614,-298,118,70,-120
22625,5945,0,2023-03-10T14:08:26.539346,6384719,1993,381,605,-992,-614,-298,118,70,-120
22626,5946,0,2023-03-10T14:08:26.543819,6384724,1993,381,605,-992,-614,-298,118,70,-120
22627,5947,0,2023-03-10T14:08:26.548452,6384729,1993,381,605,-992,-614,-298,118,70,-120
22628,5948,0,2023-03-10T14:08:26.553043,6384734,1951,361,599,-965,-631,-247,118,70,-120
22629,5949,0,2023-03-10T14:08:26.558386,6384739,1951,361,599,-965,-631,-247,118,70,-120
22630,5950,0,2023-03-10T14:08:26.562760,6384743,1951,361,599,-965,-631,-247,118,70,-120
22631,5951,0,2023-03-10T14:08:26.567232,6384748,1951,361,599,-965,-631,-247,118,70,-120
22632,5952,0,2023-03-10T14:08:26.571759,6384752,1980,364,613,-983,-608,-291,118,70,-120
22633,5953,0,2023-03-10T14:08:26.577066,6384757,1980,364,613,-983,-608,-291,118,70,-120
22634,5954,0,2023-03-10T14:08:26.581573,6384762,1980,364,613,-983,-608,-291,118,70,-120
22635,5955,0,2023-03-10T14:08:26.585959,6384766,1980,364,613,-983,-608,-291,118,70,-120
22636,5956,0,2023-03-10T14:08:26.590465,6384771,1957,363,592,-1002,-668,-284,118,70,-120
22637,5957,0,2023-03-10T14:08:26.595358,6384776,1957,363,592,-1002,-668,-284,118,70,-120
22638,5958,0,2023-03-10T14:08:26.599888,6384781,1957,363,592,-1002,-668,-284,118,70,-120
22639,5959,0,2023-03-10T14:08:26.604524,6384785,1957,363,592,-1002,-668,-284,118,70,-120
22640,5960,0,2023-03-10T14:08:26.608973,6384790,1957,363,592,-1002,-668,-284,118,70,-120
22641,5961,0,2023-03-10T14:08:26.613794,6384794,1987,368,606,-991,-613,-283,118,70,-120
22642,5962,0,2023-03-10T14:08:26.619002,6384799,1987,368,606,-991,-613,-283,118,70,-120
22643,5963,0,2023-03-10T14:08:26.623453,6384804,1987,368,606,-991,-613,-283,118,70,-120
22644,5964,0,2023-03-10T14:08:26.627910,6384808,1987,368,606,-991,-613,-283,118,70,-120
22645,5965,0,2023-03-10T14:08:26.632373,6384813,1960,367,599,-988,-627,-278,112,76,-112
22646,5966,0,2023-03-10T14:08:26.637845,6384818,1960,367,599,-988,-627,-278,112,76,-112
22647,5967,0,2023-03-10T14:08:26.642445,6384823,1960,367,599,-988,-627,-278,112,76,-112
22648,5968,0,2023-03-10T14:08:26.646906,6384827,1960,367,599,-988,-627,-278,112,76,-112
22649,5969,0,2023-03-10T14:08:26.651378,6384832,1957,361,601,-1002,-641,-274,112,76,-112
22650,5970,0,2023-03-10T14:08:26.657020,6384837,1957,361,601,-1002,-641,-274,112,76,-112
22651,5971,0,2023-03-10T14:08:26.661356,6384842,1957,361,601,-1002,-641,-274,112,76,-112
22652,5972,0,2023-03-10T14:08:26.665739,6384846,1957,361,601,-1002,-641,-274,112,76,-112
22653,5973,0,2023-03-10T14:08:26.670405,6384850,1979,367,609,-989,-620,-280,112,76,-112
22654,5974,0,2023-03-10T14:08:26.676143,6384857,1979,367,609,-989,-620,-280,112,76,-112
22655,5975,0,2023-03-10T14:08:26.680451,6384861,1979,367,609,-989,-620,-280,112,76,-112
22656,5976,0,2023-03-10T14:08:26.685187,6384866,1979,367,609,-989,-620,-280,112,76,-112
22657,5977,0,2023-03-10T14:08:26.689718,6384870,1979,367,609,-989,-620,-280,112,76,-112
22658,5978,0,2023-03-10T14:08:26.694698,6384875,1968,369,605,-1004,-653,-281,112,76,-112
22659,5979,0,2023-03-10T14:08:26.699740,6384880,1968,369,605,-1004,-653,-281,112,76,-112
22660,5980,0,2023-03-10T14:08:26.704225,6384884,1968,369,605,-1004,-653,-281,112,76,-112
22661,5981,0,2023-03-10T14:08:26.708621,6384889,1968,369,605,-1004,-653,-281,112,76,-112
22662,5982,0,2023-03-10T14:08:26.713145,6384893,1975,366,596,-999,-630,-274,112,76,-112
22663,5983,0,2023-03-10T14:08:26.718116,6384899,1975,366,596,-999,-630,-274,112,76,-112
22664,5984,0,2023-03-10T14:08:26.722487,6384903,1975,366,596,-999,-630,-274,112,76,-112
22665,5985,0,2023-03-10T14:08:26.727083,6384908,1975,366,596,-999,-630,-274,112,76,-112
22666,5986,0,2023-03-10T14:08:26.732007,6384912,1950,363,604,-982,-628,-276,112,76,-112
22667,5987,0,2023-03-10T14:08:26.737491,6384918,1950,363,604,-982,-628,-276,112,76,-112
22668,5988,0,2023-03-10T14:08:26.742019,6384922,1950,363,604,-982,-628,-276,112,76,-112
22669,5989,0,2023-03-10T14:08:26.746350,6384927,1950,363,604,-982,-628,-276,112,76,-112
22670,5990,0,2023-03-10T14:08:26.750823,6384931,1988,370,600,-983,-634,-277,112,76,-112
22671,5991,0,2023-03-10T14:08:26.756440,6384936,1988,370,600,-983,-634,-277,112,76,-112
22672,5992,0,2023-03-10T14:08:26.761220,6384942,1988,370,600,-983,-634,-277,112,76,-112
22673,5993,0,2023-03-10T14:08:26.765693,6384946,1988,370,600,-983,-634,-277,112,76,-112
22674,5994,0,2023-03-10T14:08:26.770022,6384951,1988,370,600,-983,-634,-277,112,76,-112
22675,5995,0,2023-03-10T14:08:26.774893,6384955,1982,375,602,-987,-627,-291,115,73,-109
22676,5996,0,2023-03-10T14:08:26.780300,6384961,1982,375,602,-987,-627,-291,115,73,-109
22677,5997,0,2023-03-10T14:08:26.784803,6384965,1982,375,602,-987,-627,-291,115,73,-109
22678,5998,0,2023-03-10T14:08:26.789232,6384969,1982,375,602,-987,-627,-291,115,73,-109
22679,5999,0,2023-03-10T14:08:26.795025,6384975,1958,363,592,-995,-621,-261,115,73,-109
22680,6000,0,2023-03-10T14:08:26.800426,6384980,1958,363,592,-995,-621,-261,115,73,-109
22681,6001,0,2023-03-10T14:08:26.805077,6384986,1958,363,592,-995,-621,-261,115,73,-109
22682,6002,0,2023-03-10T14:08:26.809670,6384990,1958,363,592,-995,-621,-261,115,73,-109
22683,6003,0,2023-03-10T14:08:26.814219,6384995,1972,369,610,-995,-613,-294,115,73,-109
22684,6004,0,2023-03-10T14:08:26.818505,6384999,1972,369,610,-995,-613,-294,115,73,-109
22685,6005,0,2023-03-10T14:08:26.823152,6385004,1972,369,610,-995,-613,-294,115,73,-109
22686,6006,0,2023-03-10T14:08:26.827777,6385008,1972,369,610,-995,-613,-294,115,73,-109
22687,6007,0,2023-03-10T14:08:26.832445,6385013,1984,372,604,-1001,-639,-281,115,73,-109
22688,6008,0,2023-03-10T14:08:26.837794,6385018,1984,372,604,-1001,-639,-281,115,73,-109
22689,6009,0,2023-03-10T14:08:26.842259,6385022,1984,372,604,-1001,-639,-281,115,73,-109
22690,6010,0,2023-03-10T14:08:26.846431,6385027,1984,372,604,-1001,-639,-281,115,73,-109
22691,6011,0,2023-03-10T14:08:26.850894,6385031,1968,364,603,-949,-613,-248,115,73,-109
22692,6012,0,2023-03-10T14:08:26.855943,6385037,1968,364,603,-949,-613,-248,115,73,-109
22693,6013,0,2023-03-10T14:08:26.860389,6385041,1968,364,603,-949,-613,-248,115,73,-109
22694,6014,0,2023-03-10T14:08:26.864831,6385045,1968,364,603,-949,-613,-248,115,73,-109
22695,6015,0,2023-03-10T14:08:26.869204,6385050,1968,364,603,-949,-613,-248,115,73,-109
22696,6016,0,2023-03-10T14:08:26.873850,6385054,1981,365,595,-987,-631,-289,115,73,-109
22697,6017,0,2023-03-10T14:08:26.879449,6385059,1981,365,595,-987,-631,-289,115,73,-109
22698,6018,0,2023-03-10T14:08:26.884200,6385064,1981,365,595,-987,-631,-289,115,73,-109
22699,6019,0,2023-03-10T14:08:26.888506,6385069,1981,365,595,-987,-631,-289,115,73,-109
22700,6020,0,2023-03-10T14:08:26.892943,6385074,1965,367,595,-1006,-630,-277,121,67,-109
22701,6021,0,2023-03-10T14:08:26.898400,6385079,1965,367,595,-1006,-630,-277,121,67,-109
22702,6022,0,2023-03-10T14:08:26.902959,6385083,1965,367,595,-1006,-630,-277,121,67,-109
22703,6023,0,2023-03-10T14:08:26.907257,6385088,1965,367,595,-1006,-630,-277,121,67,-109
22704,6024,0,2023-03-10T14:08:26.911672,6385092,1975,365,597,-988,-644,-277,121,67,-109
22705,6025,0,2023-03-10T14:08:26.916020,6385096,1975,365,597,-988,-644,-277,121,67,-109
22706,6026,0,2023-03-10T14:08:26.920561,6385101,1975,365,597,-988,-644,-277,121,67,-109
22707,6027,0,2023-03-10T14:08:26.924995,6385105,1975,365,597,-988,-644,-277,121,67,-109
22708,6028,0,2023-03-10T14:08:26.929476,6385110,1975,365,597,-988,-644,-277,121,67,-109
22709,6029,0,2023-03-10T14:08:26.934643,6385115,1977,370,596,-1007,-613,-285,121,67,-109
22710,6030,0,2023-03-10T14:08:26.939022,6385120,1977,370,596,-1007,-613,-285,121,67,-109
22711,6031,0,2023-03-10T14:08:26.943589,6385124,1977,370,596,-1007,-613,-285,121,67,-109
22712,6032,0,2023-03-10T14:08:26.947899,6385128,1977,370,596,-1007,-613,-285,121,67,-109
22713,6033,0,2023-03-10T14:08:26.952420,6385133,1976,361,596,-994,-636,-290,121,67,-109
22714,6034,0,2023-03-10T14:08:26.957770,6385138,1976,361,596,-994,-636,-290,121,67,-109
22715,6035,0,2023-03-10T14:08:26.962352,6385142,1976,361,596,-994,-636,-290,121,67,-109
22716,6036,0,2023-03-10T14:08:26.966661,6385147,1976,361,596,-994,-636,-290,121,67,-109
22717,6037,0,2023-03-10T14:08:26.971044,6385152,1970,374,595,-1000,-619,-285,121,67,-109
22718,6038,0,2023-03-10T14:08:26.975517,6385156,1970,374,595,-1000,-619,-285,121,67,-109
22719,6039,0,2023-03-10T14:08:26.979921,6385161,1970,374,595,-1000,-619,-285,121,67,-109
22720,6040,0,2023-03-10T14:08:26.984542,6385165,1970,374,595,-1000,-619,-285,121,67,-109
22721,6041,0,2023-03-10T14:08:26.988898,6385169,1970,374,595,-1000,-619,-285,121,67,-109
22722,6042,0,2023-03-10T14:08:26.993185,6385174,1970,366,601,-971,-629,-258,121,67,-109
22723,6043,0,2023-03-10T14:08:26.998932,6385179,1970,366,601,-971,-629,-258,121,67,-109
22724,6044,0,2023-03-10T14:08:27.003398,6385184,1970,366,601,-971,-629,-258,121,67,-109
22725,6045,0,2023-03-10T14:08:27.008162,6385188,1970,366,601,-971,-629,-258,121,67,-109
22726,6046,0,2023-03-10T14:08:27.012660,6385193,1989,376,594,-993,-636,-305,121,67,-123
22727,6047,0,2023-03-10T14:08:27.018233,6385199,1989,376,594,-993,-636,-305,121,67,-123
22728,6048,0,2023-03-10T14:08:27.022598,6385203,1989,376,594,-993,-636,-305,121,67,-123
22729,6049,0,2023-03-10T14:08:27.026882,6385208,1989,376,594,-993,-636,-305,121,67,-123
22730,6050,0,2023-03-10T14:08:27.031259,6385212,1961,355,591,-1002,-640,-266,121,67,-123
22731,6051,0,2023-03-10T14:08:27.036998,6385217,1961,355,591,-1002,-640,-266,121,67,-123
22732,6052,0,2023-03-10T14:08:27.041528,6385222,1961,355,591,-1002,-640,-266,121,67,-123
22733,6053,0,2023-03-10T14:08:27.046034,6385226,1961,355,591,-1002,-640,-266,121,67,-123
22734,6054,0,2023-03-10T14:08:27.050415,6385230,1961,355,591,-1002,-640,-266,121,67,-123
22735,6055,0,2023-03-10T14:08:27.055413,6385235,1970,362,585,-980,-641,-298,121,67,-123
22736,6056,0,2023-03-10T14:08:27.060428,6385241,1970,362,585,-980,-641,-298,121,67,-123
22737,6057,0,2023-03-10T14:08:27.064860,6385246,1970,362,585,-980,-641,-298,121,67,-123
22738,6058,0,2023-03-10T14:08:27.069254,6385250,1970,362,585,-980,-641,-298,121,67,-123
22739,6059,0,2023-03-10T14:08:27.074212,6385255,1985,368,596,-987,-614,-275,121,67,-123
22740,6060,0,2023-03-10T14:08:27.080320,6385260,1985,368,596,-987,-614,-275,121,67,-123
22741,6061,0,2023-03-10T14:08:27.085148,6385265,1985,368,596,-987,-614,-275,121,67,-123
22742,6062,0,2023-03-10T14:08:27.089461,6385270,1985,368,596,-987,-614,-275,121,67,-123
22743,6063,0,2023-03-10T14:08:27.094481,6385274,1975,368,603,-965,-638,-271,121,67,-123
22744,6064,0,2023-03-10T14:08:27.099918,6385281,1975,368,603,-965,-638,-271,121,67,-123
22745,6065,0,2023-03-10T14:08:27.104424,6385285,1975,368,603,-965,-638,-271,121,67,-123
22746,6066,0,2023-03-10T14:08:27.108990,6385290,1975,368,603,-965,-638,-271,121,67,-123
22747,6067,0,2023-03-10T14:08:27.113202,6385294,1974,365,589,-1012,-638,-279,121,67,-123
22748,6068,0,2023-03-10T14:08:27.117968,6385298,1974,365,589,-1012,-638,-279,121,67,-123
22749,6069,0,2023-03-10T14:08:27.122293,6385303,1974,365,589,-1012,-638,-279,121,67,-123
22750,6070,0,2023-03-10T14:08:27.126930,6385307,1974,365,589,-1012,-638,-279,121,67,-123
22751,6071,0,2023-03-10T14:08:27.131547,6385312,1973,364,591,-997,-615,-272,121,67,-123
22752,6072,0,2023-03-10T14:08:27.136786,6385317,1973,364,591,-997,-615,-272,121,67,-123
22753,6073,0,2023-03-10T14:08:27.141388,6385321,1973,364,591,-997,-615,-272,121,67,-123
22754,6074,0,2023-03-10T14:08:27.146004,6385327,1973,364,591,-997,-615,-272,121,67,-123
22755,6075,0,2023-03-10T14:08:27.150540,6385331,1973,364,591,-997,-615,-272,121,67,-123
22756,6076,0,2023-03-10T14:08:27.156057,6385337,1982,365,604,-953,-656,-264,124,78,-108
22757,6077,0,2023-03-10T14:08:27.161129,6385342,1982,365,604,-953,-656,-264,124,78,-108
22758,6078,0,2023-03-10T14:08:27.165435,6385346,1982,365,604,-953,-656,-264,124,78,-108
22759,6079,0,2023-03-10T14:08:27.169832,6385350,1982,365,604,-953,-656,-264,124,78,-108
22760,6080,0,2023-03-10T14:08:27.175116,6385355,1974,363,596,-991,-626,-280,124,78,-108
22761,6081,0,2023-03-10T14:08:27.180458,6385361,1974,363,596,-991,-626,-280,124,78,-108
22762,6082,0,2023-03-10T14:08:27.185047,6385366,1974,363,596,-991,-626,-280,124,78,-108
22763,6083,0,2023-03-10T14:08:27.189341,6385370,1974,363,596,-991,-626,-280,124,78,-108
22764,6084,0,2023-03-10T14:08:27.194270,6385375,1987,365,587,-1015,-646,-295,124,78,-108
22765,6085,0,2023-03-10T14:08:27.199175,6385380,1987,365,587,-1015,-646,-295,124,78,-108
22766,6086,0,2023-03-10T14:08:27.203437,6385384,1987,365,587,-1015,-646,-295,124,78,-108
22767,6087,0,2023-03-10T14:08:27.207949,6385388,1987,365,587,-1015,-646,-295,124,78,-108
22768,6088,0,2023-03-10T14:08:27.212495,6385393,1963,362,589,-1010,-632,-273,124,78,-108
22769,6089,0,2023-03-10T14:08:27.217073,6385397,1963,362,589,-1010,-632,-273,124,78,-108
22770,6090,0,2023-03-10T14:08:27.221573,6385402,1963,362,589,-1010,-632,-273,124,78,-108
22771,6091,0,2023-03-10T14:08:27.226075,6385406,1963,362,589,-1010,-632,-273,124,78,-108
22772,6092,0,2023-03-10T14:08:27.230657,6385411,1963,362,589,-1010,-632,-273,124,78,-108
22773,6093,0,2023-03-10T14:08:27.235424,6385416,1975,368,597,-1005,-627,-287,124,78,-108
22774,6094,0,2023-03-10T14:08:27.240762,6385421,1975,368,597,-1005,-627,-287,124,78,-108
22775,6095,0,2023-03-10T14:08:27.245180,6385426,1975,368,597,-1005,-627,-287,124,78,-108
22776,6096,0,2023-03-10T14:08:27.249640,6385430,1975,368,597,-1005,-627,-287,124,78,-108
22777,6097,0,2023-03-10T14:08:27.254893,6385435,1988,369,597,-1009,-634,-292,124,78,-108
22778,6098,0,2023-03-10T14:08:27.259693,6385440,1988,369,597,-1009,-634,-292,124,78,-108
22779,6099,0,2023-03-10T14:08:27.264218,6385444,1988,369,597,-1009,-634,-292,124,78,-108
22780,6100,0,2023-03-10T14:08:27.268565,6385449,1988,369,597,-1009,-634,-292,124,78,-108
22781,6101,0,2023-03-10T14:08:27.273039,6385454,1958,356,597,-1004,-634,-274,116,74,-112
22782,6102,0,2023-03-10T14:08:27.278662,6385459,1958,356,597,-1004,-634,-274,116,74,-112
22783,6103,0,2023-03-10T14:08:27.283092,6385464,1958,356,597,-1004,-634,-274,116,74,-112
22784,6104,0,2023-03-10T14:08:27.287664,6385468,1958,356,597,-1004,-634,-274,116,74,-112
22785,6105,0,2023-03-10T14:08:27.292132,6385473,1971,363,584,-991,-670,-282,116,74,-112
22786,6106,0,2023-03-10T14:08:27.297840,6385478,1971,363,584,-991,-670,-282,116,74,-112
22787,6107,0,2023-03-10T14:08:27.302298,6385482,1971,363,584,-991,-670,-282,116,74,-112
22788,6108,0,2023-03-10T14:08:27.306734,6385487,1971,363,584,-991,-670,-282,116,74,-112
22789,6109,0,2023-03-10T14:08:27.311052,6385491,1987,371,597,-988,-612,-278,116,74,-112
22790,6110,0,2023-03-10T14:08:27.316237,6385497,1987,371,597,-988,-612,-278,116,74,-112
22791,6111,0,2023-03-10T14:08:27.320801,6385501,1987,371,597,-988,-612,-278,116,74,-112
22792,6112,0,2023-03-10T14:08:27.325225,6385506,1987,371,597,-988,-612,-278,116,74,-112
22793,6113,0,2023-03-10T14:08:27.329704,6385510,1987,371,597,-988,-612,-278,116,74,-112
22794,6114,0,2023-03-10T14:08:27.334889,6385515,1968,362,590,-967,-654,-260,116,74,-112
22795,6115,0,2023-03-10T14:08:27.340084,6385520,1968,362,590,-967,-654,-260,116,74,-112
22796,6116,0,2023-03-10T14:08:27.344510,6385525,1968,362,590,-967,-654,-260,116,74,-112
22797,6117,0,2023-03-10T14:08:27.348985,6385529,1968,362,590,-967,-654,-260,116,74,-112
22798,6118,0,2023-03-10T14:08:27.353488,6385533,1986,368,591,-998,-628,-298,116,74,-112
22799,6119,0,2023-03-10T14:08:27.359253,6385540,1986,368,591,-998,-628,-298,116,74,-112
22800,6120,0,2023-03-10T14:08:27.363587,6385544,1986,368,591,-998,-628,-298,116,74,-112
22801,6121,0,2023-03-10T14:08:27.368040,6385549,1986,368,591,-998,-628,-298,116,74,-112
22802,6122,0,2023-03-10T14:08:27.372678,6385553,1958,355,586,-1013,-644,-279,116,74,-112
22803,6123,0,2023-03-10T14:08:27.378143,6385559,1958,355,586,-1013,-644,-279,116,74,-112
22804,6124,0,2023-03-10T14:08:27.382522,6385563,1958,355,586,-1013,-644,-279,116,74,-112
22805,6125,0,2023-03-10T14:08:27.386999,6385567,1958,355,586,-1013,-644,-279,116,74,-112
22806,6126,0,2023-03-10T14:08:27.391477,6385572,1993,366,596,-988,-621,-288,116,74,-112
22807,6127,0,2023-03-10T14:08:27.397074,6385577,1993,366,596,-988,-621,-288,116,74,-112
22808,6128,0,2023-03-10T14:08:27.401456,6385582,1993,366,596,-988,-621,-288,116,74,-112
22809,6129,0,2023-03-10T14:08:27.406009,6385587,1993,366,596,-988,-621,-288,116,74,-112
22810,6130,0,2023-03-10T14:08:27.410870,6385591,1993,366,596,-988,-621,-288,116,74,-112
22811,6131,0,2023-03-10T14:08:27.415746,6385596,1990,378,591,-1007,-639,-293,115,73,-119
22812,6132,0,2023-03-10T14:08:27.421263,6385601,1990,378,591,-1007,-639,-293,115,73,-119
22813,6133,0,2023-03-10T14:08:27.425771,6385606,1990,378,591,-1007,-639,-293,115,73,-119
22814,6134,0,2023-03-10T14:08:27.430254,6385610,1990,378,591,-1007,-639,-293,115,73,-119
22815,6135,0,2023-03-10T14:08:27.435099,6385615,1963,364,583,-982,-630,-263,115,73,-119
22816,6136,0,2023-03-10T14:08:27.440273,6385620,1963,364,583,-982,-630,-263,115,73,-119
22817,6137,0,2023-03-10T14:08:27.444805,6385626,1963,364,583,-982,-630,-263,115,73,-119
22818,6138,0,2023-03-10T14:08:27.449216,6385630,1963,364,583,-982,-630,-263,115,73,-119
22819,6139,0,2023-03-10T14:08:27.454199,6385635,1987,363,596,-984,-616,-283,115,73,-119
22820,6140,0,2023-03-10T14:08:27.459628,6385640,1987,363,596,-984,-616,-283,115,73,-119
22821,6141,0,2023-03-10T14:08:27.464306,6385645,1987,363,596,-984,-616,-283,115,73,-119
22822,6142,0,2023-03-10T14:08:27.468754,6385649,1987,363,596,-984,-616,-283,115,73,-119
22823,6143,0,2023-03-10T14:08:27.473124,6385653,1969,361,580,-1006,-643,-282,115,73,-119
22824,6144,0,2023-03-10T14:08:27.478731,6385659,1969,361,580,-1006,-643,-282,115,73,-119
22825,6145,0,2023-03-10T14:08:27.483464,6385664,1969,361,580,-1006,-643,-282,115,73,-119
22826,6146,0,2023-03-10T14:08:27.488102,6385669,1969,361,580,-1006,-643,-282,115,73,-119
22827,6147,0,2023-03-10T14:08:27.492415,6385673,1997,366,588,-1006,-636,-284,115,73,-119
22828,6148,0,2023-03-10T14:08:27.497501,6385678,1997,366,588,-1006,-636,-284,115,73,-119
22829,6149,0,2023-03-10T14:08:27.501839,6385682,1997,366,588,-1006,-636,-284,115,73,-119
22830,6150,0,2023-03-10T14:08:27.506246,6385687,1997,366,588,-1006,-636,-284,115,73,-119
22831,6151,0,2023-03-10T14:08:27.510550,6385691,1997,366,588,-1006,-636,-284,115,73,-119
22832,6152,0,2023-03-10T14:08:27.515178,6385695,1967,367,579,-996,-632,-285,115,73,-119
22833,6153,0,2023-03-10T14:08:27.520532,6385701,1967,367,579,-996,-632,-285,115,73,-119
22834,6154,0,2023-03-10T14:08:27.525077,6385705,1967,367,579,-996,-632,-285,115,73,-119
22835,6155,0,2023-03-10T14:08:27.529245,6385710,1967,367,579,-996,-632,-285,115,73,-119
22836,6156,0,2023-03-10T14:08:27.534184,6385715,1983,362,592,-986,-618,-271,117,73,-119
22837,6157,0,2023-03-10T14:08:27.539122,6385720,1983,362,592,-986,-618,-271,117,73,-119
22838,6158,0,2023-03-10T14:08:27.543441,6385724,1983,362,592,-986,-618,-271,117,73,-119
22839,6159,0,2023-03-10T14:08:27.547849,6385728,1983,362,592,-986,-618,-271,117,73,-119
22840,6160,0,2023-03-10T14:08:27.552186,6385732,1966,363,590,-982,-650,-283,117,73,-119
22841,6161,0,2023-03-10T14:08:27.557643,6385738,1966,363,590,-982,-650,-283,117,73,-119
22842,6162,0,2023-03-10T14:08:27.562110,6385742,1966,363,590,-982,-650,-283,117,73,-119
22843,6163,0,2023-03-10T14:08:27.566566,6385747,1966,363,590,-982,-650,-283,117,73,-119
22844,6164,0,2023-03-10T14:08:27.570993,6385752,1966,363,590,-982,-650,-283,117,73,-119
22845,6165,0,2023-03-10T14:08:27.575426,6385756,1966,363,590,-982,-650,-283,117,73,-119
22846,6166,0,2023-03-10T14:08:27.579944,6385761,1966,363,590,-982,-650,-283,117,73,-119
22847,6167,0,2023-03-10T14:08:27.584227,6385765,1966,363,590,-982,-650,-283,117,73,-119
22848,6168,0,2023-03-10T14:08:27.588712,6385769,1966,363,590,-982,-650,-283,117,73,-119
22849,6169,0,2023-03-10T14:08:27.593039,6385774,1973,363,584,-994,-635,-284,117,73,-119
22850,6170,0,2023-03-10T14:08:27.598070,6385778,1973,363,584,-994,-635,-284,117,73,-119
22851,6171,0,2023-03-10T14:08:27.602592,6385783,1973,363,584,-994,-635,-284,117,73,-119
22852,6172,0,2023-03-10T14:08:27.606895,6385787,1973,363,584,-994,-635,-284,117,73,-119
22853,6173,0,2023-03-10T14:08:27.611244,6385792,1973,363,584,-994,-635,-284,117,73,-119
22854,6174,0,2023-03-10T14:08:27.615641,6385796,1963,351,578,-996,-629,-269,117,73,-119
22855,6175,0,2023-03-10T14:08:27.620688,6385801,1963,351,578,-996,-629,-269,117,73,-119
22856,6176,0,2023-03-10T14:08:27.624975,6385806,1963,351,578,-996,-629,-269,117,73,-119
22857,6177,0,2023-03-10T14:08:27.629462,6385810,1963,351,578,-996,-629,-269,117,73,-119
22858,6178,0,2023-03-10T14:08:27.634360,6385815,1996,371,588,-994,-615,-296,117,73,-119
22859,6179,0,2023-03-10T14:08:27.639479,6385820,1996,371,588,-994,-615,-296,117,73,-119
22860,6180,0,2023-03-10T14:08:27.643945,6385824,1996,371,588,-994,-615,-296,117,73,-119
22861,6181,0,2023-03-10T14:08:27.648401,6385828,1996,371,588,-994,-615,-296,117,73,-119
22862,6182,0,2023-03-10T14:08:27.653080,6385833,1981,366,587,-992,-634,-273,117,73,-119
22863,6183,0,2023-03-10T14:08:27.658510,6385839,1981,366,587,-992,-634,-273,117,73,-119
22864,6184,0,2023-03-10T14:08:27.662778,6385844,1981,366,587,-992,-634,-273,117,73,-119
22865,6185,0,2023-03-10T14:08:27.667242,6385848,1981,366,587,-992,-634,-273,117,73,-119
22866,6186,0,2023-03-10T14:08:27.671725,6385852,1972,368,587,-1004,-630,-283,118,68,-112
22867,6187,0,2023-03-10T14:08:27.677251,6385857,1972,368,587,-1004,-630,-283,118,68,-112
22868,6188,0,2023-03-10T14:08:27.681733,6385862,1972,368,587,-1004,-630,-283,118,68,-112
22869,6189,0,2023-03-10T14:08:27.686240,6385866,1972,368,587,-1004,-630,-283,118,68,-112
22870,6190,0,2023-03-10T14:08:27.690628,6385871,1972,368,587,-1004,-630,-283,118,68,-112
22871,6191,0,2023-03-10T14:08:27.695096,6385875,1985,361,596,-1004,-618,-300,118,68,-112
22872,6192,0,2023-03-10T14:08:27.700274,6385881,1985,361,596,-1004,-618,-300,118,68,-112
22873,6193,0,2023-03-10T14:08:27.704729,6385886,1985,361,596,-1004,-618,-300,118,68,-112
22874,6194,0,2023-03-10T14:08:27.709171,6385890,1985,361,596,-1004,-618,-300,118,68,-112
22875,6195,0,2023-03-10T14:08:27.713642,6385894,1970,363,574,-990,-656,-259,118,68,-112
22876,6196,0,2023-03-10T14:08:27.719399,6385900,1970,363,574,-990,-656,-259,118,68,-112
22877,6197,0,2023-03-10T14:08:27.723856,6385904,1970,363,574,-990,-656,-259,118,68,-112
22878,6198,0,2023-03-10T14:08:27.728022,6385908,1970,363,574,-990,-656,-259,118,68,-112
22879,6199,0,2023-03-10T14:08:27.732481,6385912,1991,362,594,-963,-624,-265,118,68,-112
22880,6200,0,2023-03-10T14:08:27.738183,6385918,1991,362,594,-963,-624,-265,118,68,-112
22881,6201,0,2023-03-10T14:08:27.742672,6385924,1991,362,594,-963,-624,-265,118,68,-112
22882,6202,0,2023-03-10T14:08:27.747014,6385928,1991,362,594,-963,-624,-265,118,68,-112
22883,6203,0,2023-03-10T14:08:27.751454,6385932,1991,362,594,-963,-624,-265,118,68,-112
22884,6204,0,2023-03-10T14:08:27.755965,6385936,1976,359,583,-1001,-637,-286,118,68,-112
22885,6205,0,2023-03-10T14:08:27.760975,6385941,1976,359,583,-1001,-637,-286,118,68,-112
22886,6206,0,2023-03-10T14:08:27.765363,6385946,1976,359,583,-1001,-637,-286,118,68,-112
22887,6207,0,2023-03-10T14:08:27.770126,6385950,1976,359,583,-1001,-637,-286,118,68,-112
22888,6208,0,2023-03-10T14:08:27.775056,6385955,1968,361,571,-999,-646,-278,118,68,-112
22889,6209,0,2023-03-10T14:08:27.780028,6385960,1968,361,571,-999,-646,-278,118,68,-112
22890,6210,0,2023-03-10T14:08:27.784623,6385965,1968,361,571,-999,-646,-278,118,68,-112
22891,6211,0,2023-03-10T14:08:27.789133,6385970,1968,361,571,-999,-646,-278,118,68,-112
22892,6212,0,2023-03-10T14:08:27.793609,6385974,1985,367,595,-984,-609,-281,117,67,-115
22893,6213,0,2023-03-10T14:08:27.799039,6385980,1985,367,595,-984,-609,-281,117,67,-115
22894,6214,0,2023-03-10T14:08:27.803353,6385984,1985,367,595,-984,-609,-281,117,67,-115
22895,6215,0,2023-03-10T14:08:27.807857,6385988,1985,367,595,-984,-609,-281,117,67,-115
22896,6216,0,2023-03-10T14:08:27.812642,6385993,1973,367,590,-1013,-695,-288,117,67,-115
22897,6217,0,2023-03-10T14:08:27.818548,6385999,1973,367,590,-1013,-695,-288,117,67,-115
22898,6218,0,2023-03-10T14:08:27.822977,6386003,1973,367,590,-1013,-695,-288,117,67,-115
22899,6219,0,2023-03-10T14:08:27.827338,6386008,1973,367,590,-1013,-695,-288,117,67,-115
22900,6220,0,2023-03-10T14:08:27.831925,6386013,1990,365,580,-1007,-622,-281,117,67,-115
22901,6221,0,2023-03-10T14:08:27.837338,6386018,1990,365,580,-1007,-622,-281,117,67,-115
22902,6222,0,2023-03-10T14:08:27.842481,6386023,1990,365,580,-1007,-622,-281,117,67,-115
22903,6223,0,2023-03-10T14:08:27.847326,6386028,1990,365,580,-1007,-622,-281,117,67,-115
22904,6224,0,2023-03-10T14:08:27.851796,6386032,1960,362,589,-1003,-583,-285,117,67,-115
22905,6225,0,2023-03-10T14:08:27.856651,6386037,1960,362,589,-1003,-583,-285,117,67,-115
22906,6226,0,2023-03-10T14:08:27.861146,6386041,1960,362,589,-1003,-583,-285,117,67,-115
22907,6227,0,2023-03-10T14:08:27.865478,6386046,1960,362,589,-1003,-583,-285,117,67,-115
22908,6228,0,2023-03-10T14:08:27.869881,6386051,1960,362,589,-1003,-583,-285,117,67,-115
22909,6229,0,2023-03-10T14:08:27.874819,6386055,1997,368,584,-1000,-652,-285,117,67,-115
22910,6230,0,2023-03-10T14:08:27.879836,6386060,1997,368,584,-1000,-652,-285,117,67,-115
22911,6231,0,2023-03-10T14:08:27.884429,6386065,1997,368,584,-1000,-652,-285,117,67,-115
22912,6232,0,2023-03-10T14:08:27.888993,6386069,1997,368,584,-1000,-652,-285,117,67,-115
22913,6233,0,2023-03-10T14:08:27.893685,6386074,1969,358,582,-991,-627,-260,117,67,-115
22914,6234,0,2023-03-10T14:08:27.899303,6386079,1969,358,582,-991,-627,-260,117,67,-115
22915,6235,0,2023-03-10T14:08:27.903964,6386084,1969,358,582,-991,-627,-260,117,67,-115
22916,6236,0,2023-03-10T14:08:27.908265,6386088,1969,358,582,-991,-627,-260,117,67,-115
22917,6237,0,2023-03-10T14:08:27.913107,6386094,1991,368,581,-999,-629,-292,119,69,-121
22918,6238,0,2023-03-10T14:08:27.918505,6386099,1991,368,581,-999,-629,-292,119,69,-121
22919,6239,0,2023-03-10T14:08:27.923437,6386104,1991,368,581,-999,-629,-292,119,69,-121
22920,6240,0,2023-03-10T14:08:27.928233,6386109,1991,368,581,-999,-629,-292,119,69,-121
22921,6241,0,2023-03-10T14:08:27.932528,6386113,1969,353,585,-983,-637,-253,119,69,-121
22922,6242,0,2023-03-10T14:08:27.938069,6386118,1969,353,585,-983,-637,-253,119,69,-121
22923,6243,0,2023-03-10T14:08:27.942557,6386123,1969,353,585,-983,-637,-253,119,69,-121
22924,6244,0,2023-03-10T14:08:27.947345,6386127,1969,353,585,-983,-637,-253,119,69,-121
22925,6245,0,2023-03-10T14:08:27.952036,6386132,1981,363,594,-1001,-624,-300,119,69,-121
22926,6246,0,2023-03-10T14:08:27.957002,6386138,1981,363,594,-1001,-624,-300,119,69,-121
22927,6247,0,2023-03-10T14:08:27.961371,6386142,1981,363,594,-1001,-624,-300,119,69,-121
22928,6248,0,2023-03-10T14:08:27.965813,6386147,1981,363,594,-1001,-624,-300,119,69,-121
22929,6249,0,2023-03-10T14:08:27.970246,6386151,1981,363,594,-1001,-624,-300,119,69,-121
22930,6250,0,2023-03-10T14:08:27.975063,6386156,1994,366,573,-1017,-644,-294,119,69,-121
22931,6251,0,2023-03-10T14:08:27.979629,6386160,1994,366,573,-1017,-644,-294,119,69,-121
22932,6252,0,2023-03-10T14:08:27.984211,6386164,1994,366,573,-1017,-644,-294,119,69,-121
22933,6253,0,2023-03-10T14:08:27.988748,6386169,1994,366,573,-1017,-644,-294,119,69,-121
22934,6254,0,2023-03-10T14:08:27.993092,6386173,1969,356,585,-998,-622,-292,119,69,-121
22935,6255,0,2023-03-10T14:08:27.998045,6386179,1969,356,585,-998,-622,-292,119,69,-121
22936,6256,0,2023-03-10T14:08:28.002662,6386183,1969,356,585,-998,-622,-292,119,69,-121
22937,6257,0,2023-03-10T14:08:28.007277,6386188,1969,356,585,-998,-622,-292,119,69,-121
22938,6258,0,2023-03-10T14:08:28.011879,6386192,1969,356,585,-998,-622,-292,119,69,-121
22939,6259,0,2023-03-10T14:08:28.017022,6386197,1977,362,575,-998,-633,-287,119,69,-121
22940,6260,0,2023-03-10T14:08:28.022025,6386202,1977,362,575,-998,-633,-287,119,69,-121
22941,6261,0,2023-03-10T14:08:28.026491,6386207,1977,362,575,-998,-633,-287,119,69,-121
22942,6262,0,2023-03-10T14:08:28.030939,6386211,1977,362,575,-998,-633,-287,119,69,-121
22943,6263,0,2023-03-10T14:08:28.035683,6386216,1981,361,590,-975,-613,-268,119,69,-121
22944,6264,0,2023-03-10T14:08:28.041391,6386222,1981,361,590,-975,-613,-268,119,69,-121
22945,6265,0,2023-03-10T14:08:28.045985,6386227,1981,361,590,-975,-613,-268,119,69,-121
22946,6266,0,2023-03-10T14:08:28.050258,6386231,1981,361,590,-975,-613,-268,119,69,-121
22947,6267,0,2023-03-10T14:08:28.055011,6386236,1987,364,581,-1004,-649,-294,116,76,-110
22948,6268,0,2023-03-10T14:08:28.060164,6386241,1987,364,581,-1004,-649,-294,116,76,-110
22949,6269,0,2023-03-10T14:08:28.064481,6386245,1987,364,581,-1004,-649,-294,116,76,-110
22950,6270,0,2023-03-10T14:08:28.068937,6386249,1987,364,581,-1004,-649,-294,116,76,-110
22951,6271,0,2023-03-10T14:08:28.073384,6386254,1988,359,577,-1003,-639,-274,116,76,-110
22952,6272,0,2023-03-10T14:08:28.078544,6386259,1988,359,577,-1003,-639,-274,116,76,-110
22953,6273,0,2023-03-10T14:08:28.083062,6386264,1988,359,577,-1003,-639,-274,116,76,-110
22954,6274,0,2023-03-10T14:08:28.087690,6386268,1988,359,577,-1003,-639,-274,116,76,-110
22955,6275,0,2023-03-10T14:08:28.092140,6386273,1988,359,577,-1003,-639,-274,116,76,-110
22956,6276,0,2023-03-10T14:08:28.097504,6386278,1988,359,577,-1003,-639,-274,116,76,-110
22957,6277,0,2023-03-10T14:08:28.102145,6386283,1988,359,577,-1003,-639,-274,116,76,-110
22958,6278,0,2023-03-10T14:08:28.106455,6386287,1988,359,577,-1003,-639,-274,116,76,-110
22959,6279,0,2023-03-10T14:08:28.110887,6386291,1988,359,577,-1003,-639,-274,116,76,-110
22960,6280,0,2023-03-10T14:08:28.116008,6386296,1994,368,585,-993,-632,-291,116,76,-110
22961,6281,0,2023-03-10T14:08:28.120899,6386301,1994,368,585,-993,-632,-291,116,76,-110
22962,6282,0,2023-03-10T14:08:28.125463,6386306,1994,368,585,-993,-632,-291,116,76,-110
22963,6283,0,2023-03-10T14:08:28.130183,6386311,1994,368,585,-993,-632,-291,116,76,-110
22964,6284,0,2023-03-10T14:08:28.134912,6386315,1987,360,585,-990,-625,-278,116,76,-110
22965,6285,0,2023-03-10T14:08:28.140137,6386321,1987,360,585,-990,-625,-278,116,76,-110
22966,6286,0,2023-03-10T14:08:28.144516,6386325,1987,360,585,-990,-625,-278,116,76,-110
22967,6287,0,2023-03-10T14:08:28.149048,6386329,1987,360,585,-990,-625,-278,116,76,-110
22968,6288,0,2023-03-10T14:08:28.153442,6386334,1980,363,573,-1006,-626,-289,116,76,-110
22969,6289,0,2023-03-10T14:08:28.158915,6386339,1980,363,573,-1006,-626,-289,116,76,-110
22970,6290,0,2023-03-10T14:08:28.163094,6386343,1980,363,573,-1006,-626,-289,116,76,-110
22971,6291,0,2023-03-10T14:08:28.167476,6386349,1980,363,573,-1006,-626,-289,116,76,-110
22972,6292,0,2023-03-10T14:08:28.172459,6386353,1967,355,587,-970,-637,-259,115,71,-110
22973,6293,0,2023-03-10T14:08:28.177581,6386358,1967,355,587,-970,-637,-259,115,71,-113
22974,6294,0,2023-03-10T14:08:28.182362,6386363,1967,355,587,-970,-637,-259,115,71,-113
22975,6295,0,2023-03-10T14:08:28.187112,6386368,1967,355,587,-970,-637,-259,115,71,-113
22976,6296,0,2023-03-10T14:08:28.191682,6386372,1967,355,587,-970,-637,-259,115,71,-113
22977,6297,0,2023-03-10T14:08:28.196528,6386377,1989,367,589,-972,-626,-279,115,71,-113
22978,6298,0,2023-03-10T14:08:28.201562,6386382,1989,367,589,-972,-626,-279,115,71,-113
22979,6299,0,2023-03-10T14:08:28.206002,6386386,1989,367,589,-972,-626,-279,115,71,-113
22980,6300,0,2023-03-10T14:08:28.210335,6386391,1989,367,589,-972,-626,-279,115,71,-113
22981,6301,0,2023-03-10T14:08:28.215036,6386395,2001,366,573,-1011,-653,-291,115,71,-113
22982,6302,0,2023-03-10T14:08:28.220044,6386401,2001,366,573,-1011,-653,-291,115,71,-113
22983,6303,0,2023-03-10T14:08:28.224409,6386405,2001,366,573,-1011,-653,-291,115,71,-113
22984,6304,0,2023-03-10T14:08:28.229140,6386409,2001,366,573,-1011,-653,-291,115,71,-113
22985,6305,0,2023-03-10T14:08:28.233959,6386414,1972,361,574,-995,-641,-272,115,71,-113
22986,6306,0,2023-03-10T14:08:28.239388,6386420,1972,361,574,-995,-641,-272,115,71,-113
22987,6307,0,2023-03-10T14:08:28.243956,6386424,1972,361,574,-995,-641,-272,115,71,-113
22988,6308,0,2023-03-10T14:08:28.248329,6386428,1972,361,574,-995,-641,-272,115,71,-113
22989,6309,0,2023-03-10T14:08:28.252703,6386434,1993,363,584,-1001,-612,-292,115,71,-113
22990,6310,0,2023-03-10T14:08:28.256838,6386438,1993,363,584,-1001,-612,-292,115,71,-113
22991,6311,0,2023-03-10T14:08:28.261452,6386442,1993,363,584,-1001,-612,-292,115,71,-113
