,Unnamed: 0,imu,server_time,arduino_time,ax,ay,az,gx,gy,gz,mx,my,mz
23439,6759,0,2023-03-10T14:08:30.386374,6388567,2001,363,550,-993,-697,-280,115,65,-117
23440,6760,0,2023-03-10T14:08:30.390913,6388572,2001,363,550,-993,-697,-280,115,65,-117
23441,6761,0,2023-03-10T14:08:30.395743,6388577,2001,355,558,-968,-636,-264,115,65,-117
23442,6762,0,2023-03-10T14:08:30.400983,6388582,2001,355,558,-968,-636,-264,115,65,-117
23443,6763,0,2023-03-10T14:08:30.405484,6388586,2001,355,558,-968,-636,-264,115,65,-117
23444,6764,0,2023-03-10T14:08:30.409990,6388590,2001,355,558,-968,-636,-264,115,65,-117
23445,6765,0,2023-03-10T14:08:30.414452,6388595,2001,355,558,-968,-636,-264,115,65,-117
23446,6766,0,2023-03-10T14:08:30.420080,6388600,1981,352,555,-1012,-585,-285,115,65,-117
23447,6767,0,2023-03-10T14:08:30.425323,6388605,1981,352,555,-1012,-585,-285,115,65,-117
23448,6768,0,2023-03-10T14:08:30.429690,6388611,1981,352,555,-1012,-585,-285,115,65,-117
23449,6769,0,2023-03-10T14:08:30.434320,6388615,1981,352,555,-1012,-585,-285,115,65,-117
23450,6770,0,2023-03-10T14:08:30.439365,6388620,2016,360,555,-1006,-641,-295,115,65,-117
23451,6771,0,2023-03-10T14:08:30.443948,6388625,2016,360,555,-1006,-641,-295,115,65,-117
23452,6772,0,2023-03-10T14:08:30.448444,6388629,2016,360,555,-1006,-641,-295,115,65,-117
23453,6773,0,2023-03-10T14:08:30.452810,6388633,2016,360,555,-1006,-641,-295,115,65,-117
23454,6774,0,2023-03-10T14:08:30.458068,6388638,1993,351,547,-994,-617,-272,115,65,-117
23455,6775,0,2023-03-10T14:08:30.463691,6388644,1993,351,547,-994,-617,-272,115,65,-117
23456,6776,0,2023-03-10T14:08:30.468154,6388648,1993,351,547,-994,-617,-272,115,65,-117
23457,6777,0,2023-03-10T14:08:30.472611,6388654,1993,351,547,-994,-617,-272,115,65,-117
23458,6778,0,2023-03-10T14:08:30.477748,6388659,2007,363,549,-988,-644,-290,115,65,-117
23459,6779,0,2023-03-10T14:08:30.483225,6388664,2007,363,549,-988,-644,-290,115,65,-117
23460,6780,0,2023-03-10T14:08:30.487695,6388668,2007,363,549,-988,-644,-290,115,65,-117
23461,6781,0,2023-03-10T14:08:30.492692,6388673,2007,363,549,-988,-644,-290,115,65,-117
23462,6782,0,2023-03-10T14:08:30.497730,6388678,1988,354,554,-999,-631,-268,115,69,-117
23463,6783,0,2023-03-10T14:08:30.502834,6388683,1988,354,554,-999,-631,-268,115,69,-117
23464,6784,0,2023-03-10T14:08:30.507375,6388688,1988,354,554,-999,-631,-268,115,69,-117
23465,6785,0,2023-03-10T14:08:30.511974,6388692,1988,354,554,-999,-631,-268,115,69,-117
23466,6786,0,2023-03-10T14:08:30.517102,6388698,2001,363,551,-995,-622,-292,115,69,-117
23467,6787,0,2023-03-10T14:08:30.522471,6388703,2001,363,551,-995,-622,-292,115,69,-117
23468,6788,0,2023-03-10T14:08:30.527178,6388708,2001,363,551,-995,-622,-292,115,69,-117
23469,6789,0,2023-03-10T14:08:30.531594,6388712,2001,363,551,-995,-622,-292,115,69,-117
23470,6790,0,2023-03-10T14:08:30.536573,6388717,2013,358,551,-983,-635,-273,115,69,-117
23471,6791,0,2023-03-10T14:08:30.541974,6388722,2013,358,551,-983,-635,-273,115,69,-117
23472,6792,0,2023-03-10T14:08:30.546550,6388727,2013,358,551,-983,-635,-273,115,69,-117
23473,6793,0,2023-03-10T14:08:30.551303,6388731,2013,358,551,-983,-635,-273,115,69,-117
23474,6794,0,2023-03-10T14:08:30.556525,6388738,1991,350,557,-979,-639,-281,115,69,-117
23475,6795,0,2023-03-10T14:08:30.561468,6388742,1991,350,557,-979,-639,-281,115,69,-117
23476,6796,0,2023-03-10T14:08:30.566065,6388747,1991,350,557,-979,-639,-281,115,69,-117
23477,6797,0,2023-03-10T14:08:30.570791,6388751,1991,350,557,-979,-639,-281,115,69,-117
23478,6798,0,2023-03-10T14:08:30.576325,6388757,1993,353,542,-1013,-655,-296,115,69,-117
23479,6799,0,2023-03-10T14:08:30.581241,6388762,1993,353,542,-1013,-655,-296,115,69,-117
23480,6800,0,2023-03-10T14:08:30.585720,6388766,1993,353,542,-1013,-655,-296,115,69,-117
23481,6801,0,2023-03-10T14:08:30.590331,6388770,1993,353,542,-1013,-655,-296,115,69,-117
23482,6802,0,2023-03-10T14:08:30.595302,6388775,1993,353,542,-1013,-655,-296,115,69,-117
23483,6803,0,2023-03-10T14:08:30.600142,6388781,2011,359,547,-997,-636,-281,115,69,-117
23484,6804,0,2023-03-10T14:08:30.605193,6388786,2011,359,547,-997,-636,-281,115,69,-117
23485,6805,0,2023-03-10T14:08:30.609636,6388791,2011,359,547,-997,-636,-281,115,69,-117
23486,6806,0,2023-03-10T14:08:30.614123,6388795,2011,359,547,-997,-636,-281,115,69,-117
23487,6807,0,2023-03-10T14:08:30.619631,6388800,2014,359,550,-999,-641,-292,120,68,-118
23488,6808,0,2023-03-10T14:08:30.624072,6388805,2014,359,550,-999,-641,-292,120,68,-118
23489,6809,0,2023-03-10T14:08:30.628561,6388809,2014,359,550,-999,-641,-292,120,68,-118
23490,6810,0,2023-03-10T14:08:30.632910,6388813,2014,359,550,-999,-641,-292,120,68,-118
23491,6811,0,2023-03-10T14:08:30.637829,6388818,1990,355,543,-1005,-629,-282,120,68,-118
23492,6812,0,2023-03-10T14:08:30.643540,6388825,1990,355,543,-1005,-629,-282,120,68,-118
23493,6813,0,2023-03-10T14:08:30.648000,6388829,1990,355,543,-1005,-629,-282,120,68,-118
23494,6814,0,2023-03-10T14:08:30.652445,6388833,1990,355,543,-1005,-629,-282,120,68,-118
23495,6815,0,2023-03-10T14:08:30.657059,6388838,2007,356,554,-1006,-607,-290,120,68,-118
23496,6816,0,2023-03-10T14:08:30.661928,6388842,2007,356,554,-1006,-607,-290,120,68,-118
23497,6817,0,2023-03-10T14:08:30.666301,6388847,2007,356,554,-1006,-607,-290,120,68,-118
23498,6818,0,2023-03-10T14:08:30.671066,6388851,2007,356,554,-1006,-607,-290,120,68,-118
23499,6819,0,2023-03-10T14:08:30.676444,6388857,1989,349,543,-1008,-646,-278,120,68,-118
23500,6820,0,2023-03-10T14:08:30.681736,6388862,1989,349,543,-1008,-646,-278,120,68,-118
23501,6821,0,2023-03-10T14:08:30.686320,6388867,1989,349,543,-1008,-646,-278,120,68,-118
23502,6822,0,2023-03-10T14:08:30.690629,6388872,1989,349,543,-1008,-646,-278,120,68,-118
23503,6823,0,2023-03-10T14:08:30.695599,6388876,2025,363,549,-999,-625,-293,120,68,-118
23504,6824,0,2023-03-10T14:08:30.700631,6388881,2025,363,549,-999,-625,-293,120,68,-118
23505,6825,0,2023-03-10T14:08:30.705317,6388886,2025,363,549,-999,-625,-293,120,68,-118
23506,6826,0,2023-03-10T14:08:30.710185,6388891,2025,363,549,-999,-625,-293,120,68,-118
23507,6827,0,2023-03-10T14:08:30.714610,6388895,2025,363,549,-999,-625,-293,120,68,-118
23508,6828,0,2023-03-10T14:08:30.720100,6388900,1978,347,545,-955,-648,-242,120,68,-118
23509,6829,0,2023-03-10T14:08:30.725182,6388905,1978,347,545,-955,-648,-242,120,68,-118
23510,6830,0,2023-03-10T14:08:30.729471,6388911,1978,347,545,-955,-648,-242,120,68,-118
23511,6831,0,2023-03-10T14:08:30.733943,6388915,1978,347,545,-955,-648,-242,120,68,-118
23512,6832,0,2023-03-10T14:08:30.738616,6388919,2016,354,547,-1010,-604,-295,120,68,-118
23513,6833,0,2023-03-10T14:08:30.744338,6388925,2016,354,547,-1010,-604,-295,120,68,-118
23514,6834,0,2023-03-10T14:08:30.748821,6388929,2016,354,547,-1010,-604,-295,120,68,-118
23515,6835,0,2023-03-10T14:08:30.753241,6388934,2016,354,547,-1010,-604,-295,120,68,-118
23516,6836,0,2023-03-10T14:08:30.758281,6388939,1991,350,542,-1005,-663,-273,120,56,-122
23517,6837,0,2023-03-10T14:08:30.763333,6388944,1991,350,542,-1005,-663,-273,120,56,-122
23518,6838,0,2023-03-10T14:08:30.767752,6388948,1991,350,542,-1005,-663,-273,120,56,-122
23519,6839,0,2023-03-10T14:08:30.772145,6388953,1991,350,542,-1005,-663,-273,120,56,-122
23520,6840,0,2023-03-10T14:08:30.777227,6388958,2020,365,543,-997,-614,-302,120,56,-122
23521,6841,0,2023-03-10T14:08:30.781581,6388962,2020,365,543,-997,-614,-302,120,56,-122
23522,6842,0,2023-03-10T14:08:30.785972,6388967,2020,365,543,-997,-614,-302,120,56,-122
23523,6843,0,2023-03-10T14:08:30.790404,6388971,2020,365,543,-997,-614,-302,120,56,-122
23524,6844,0,2023-03-10T14:08:30.795518,6388976,2020,365,543,-997,-614,-302,120,56,-122
23525,6845,0,2023-03-10T14:08:30.800223,6388981,1989,359,536,-980,-629,-266,120,56,-122
23526,6846,0,2023-03-10T14:08:30.805125,6388985,1989,359,536,-980,-629,-266,120,56,-122
23527,6847,0,2023-03-10T14:08:30.809578,6388990,1989,359,536,-980,-629,-266,120,56,-122
23528,6848,0,2023-03-10T14:08:30.814272,6388995,1989,359,536,-980,-629,-266,120,56,-122
23529,6849,0,2023-03-10T14:08:30.819265,6389000,1992,354,556,-976,-619,-280,120,56,-122
23530,6850,0,2023-03-10T14:08:30.824857,6389006,1992,354,556,-976,-619,-280,120,56,-122
23531,6851,0,2023-03-10T14:08:30.829202,6389010,1992,354,556,-976,-619,-280,120,56,-122
23532,6852,0,2023-03-10T14:08:30.833409,6389014,1992,354,556,-976,-619,-280,120,56,-122
23533,6853,0,2023-03-10T14:08:30.837759,6389018,2016,364,543,-1020,-655,-305,120,56,-122
23534,6854,0,2023-03-10T14:08:30.843356,6389024,2016,364,543,-1020,-655,-305,120,56,-122
23535,6855,0,2023-03-10T14:08:30.847830,6389028,2016,364,543,-1020,-655,-305,120,56,-122
23536,6856,0,2023-03-10T14:08:30.852314,6389032,2016,364,543,-1020,-655,-305,120,56,-122
23537,6857,0,2023-03-10T14:08:30.857462,6389039,1994,344,539,-995,-641,-268,120,56,-122
23538,6858,0,2023-03-10T14:08:30.863133,6389044,1994,344,539,-995,-641,-268,120,56,-122
23539,6859,0,2023-03-10T14:08:30.867318,6389048,1994,344,539,-995,-641,-268,120,56,-122
23540,6860,0,2023-03-10T14:08:30.871806,6389052,1994,344,539,-995,-641,-268,120,56,-122
23541,6861,0,2023-03-10T14:08:30.877375,6389058,2007,363,536,-990,-625,-297,113,67,-115
23542,6862,0,2023-03-10T14:08:30.883197,6389064,2007,363,536,-990,-625,-297,113,67,-115
23543,6863,0,2023-03-10T14:08:30.887533,6389068,2007,363,536,-990,-625,-297,113,67,-115
23544,6864,0,2023-03-10T14:08:30.892270,6389072,2007,363,536,-990,-625,-297,113,67,-115
23545,6865,0,2023-03-10T14:08:30.897268,6389078,1988,349,545,-964,-650,-255,113,67,-115
23546,6866,0,2023-03-10T14:08:30.901977,6389083,1988,349,545,-964,-650,-255,113,67,-115
23547,6867,0,2023-03-10T14:08:30.906957,6389087,1988,349,545,-964,-650,-255,113,67,-115
23548,6868,0,2023-03-10T14:08:30.911421,6389092,1988,349,545,-964,-650,-255,113,67,-115
23549,6869,0,2023-03-10T14:08:30.916282,6389097,2008,361,555,-978,-618,-286,113,67,-115
23550,6870,0,2023-03-10T14:08:30.921308,6389102,2008,361,555,-978,-618,-286,113,67,-115
23551,6871,0,2023-03-10T14:08:30.925592,6389106,2008,361,555,-978,-618,-286,113,67,-115
23552,6872,0,2023-03-10T14:08:30.930018,6389110,2008,361,555,-978,-618,-286,113,67,-115
23553,6873,0,2023-03-10T14:08:30.934461,6389115,2008,361,555,-978,-618,-286,113,67,-115
23554,6874,0,2023-03-10T14:08:30.938803,6389120,2009,360,540,-1023,-652,-293,113,67,-115
23555,6875,0,2023-03-10T14:08:30.943679,6389125,2009,360,540,-1023,-652,-293,113,67,-115
23556,6876,0,2023-03-10T14:08:30.948269,6389129,2009,360,540,-1023,-652,-293,113,67,-115
23557,6877,0,2023-03-10T14:08:30.952596,6389133,2009,360,540,-1023,-652,-293,113,67,-115
23558,6878,0,2023-03-10T14:08:30.957487,6389138,2001,355,547,-992,-633,-282,113,67,-115
23559,6879,0,2023-03-10T14:08:30.962005,6389143,2001,355,547,-992,-633,-282,113,67,-115
23560,6880,0,2023-03-10T14:08:30.966429,6389147,2001,355,547,-992,-633,-282,113,67,-115
23561,6881,0,2023-03-10T14:08:30.970923,6389151,2001,355,547,-992,-633,-282,113,67,-115
23562,6882,0,2023-03-10T14:08:30.976179,6389156,1989,347,540,-990,-641,-282,113,67,-115
23563,6883,0,2023-03-10T14:08:30.981183,6389161,1989,347,540,-990,-641,-282,113,67,-115
23564,6884,0,2023-03-10T14:08:30.985840,6389167,1989,347,540,-990,-641,-282,113,67,-115
23565,6885,0,2023-03-10T14:08:30.990505,6389171,1989,347,540,-990,-641,-282,113,67,-115
23566,6886,0,2023-03-10T14:08:30.994850,6389176,1989,347,540,-990,-641,-282,113,67,-115
23567,6887,0,2023-03-10T14:08:30.999808,6389181,2016,357,538,-1004,-615,-297,113,67,-115
23568,6888,0,2023-03-10T14:08:31.005103,6389186,2016,357,538,-1004,-615,-297,113,67,-115
23569,6889,0,2023-03-10T14:08:31.009521,6389190,2016,357,538,-1004,-615,-297,113,67,-115
23570,6890,0,2023-03-10T14:08:31.014364,6389195,2016,357,538,-1004,-615,-297,113,67,-115
23571,6891,0,2023-03-10T14:08:31.019179,6389199,2003,353,555,-966,-651,-265,125,63,-111
23572,6892,0,2023-03-10T14:08:31.024370,6389206,2003,353,555,-966,-651,-265,125,63,-111
23573,6893,0,2023-03-10T14:08:31.028911,6389210,2003,353,555,-966,-651,-265,125,63,-111
23574,6894,0,2023-03-10T14:08:31.033068,6389214,2003,353,555,-966,-651,-265,125,63,-111
23575,6895,0,2023-03-10T14:08:31.037248,6389218,2002,357,548,-1016,-628,-302,125,63,-111
23576,6896,0,2023-03-10T14:08:31.042744,6389223,2002,357,548,-1016,-628,-302,125,63,-111
23577,6897,0,2023-03-10T14:08:31.047006,6389228,2002,357,548,-1016,-628,-302,125,63,-111
23578,6898,0,2023-03-10T14:08:31.051630,6389232,2002,357,548,-1016,-628,-302,125,63,-111
23579,6899,0,2023-03-10T14:08:31.056920,6389237,1992,347,540,-1008,-646,-280,125,63,-111
23580,6900,0,2023-03-10T14:08:31.061840,6389242,1992,347,540,-1008,-646,-280,125,63,-111
23581,6901,0,2023-03-10T14:08:31.066388,6389246,1992,347,540,-1008,-646,-280,125,63,-111
23582,6902,0,2023-03-10T14:08:31.070622,6389252,1992,347,540,-1008,-646,-280,125,63,-111
23583,6903,0,2023-03-10T14:08:31.075413,6389256,1992,347,540,-1008,-646,-280,125,63,-111
23584,6904,0,2023-03-10T14:08:31.079878,6389261,2012,356,544,-981,-635,-303,125,63,-111
23585,6905,0,2023-03-10T14:08:31.084253,6389265,2012,356,544,-981,-635,-303,125,63,-111
23586,6906,0,2023-03-10T14:08:31.088756,6389269,2012,356,544,-981,-635,-303,125,63,-111
23587,6907,0,2023-03-10T14:08:31.093206,6389274,2012,356,544,-981,-635,-303,125,63,-111
23588,6908,0,2023-03-10T14:08:31.098473,6389279,2019,357,540,-992,-635,-277,125,63,-111
23589,6909,0,2023-03-10T14:08:31.103199,6389284,2019,357,540,-992,-635,-277,125,63,-111
23590,6910,0,2023-03-10T14:08:31.107766,6389288,2019,357,540,-992,-635,-277,125,63,-111
23591,6911,0,2023-03-10T14:08:31.112209,6389293,2019,357,540,-992,-635,-277,125,63,-111
23592,6912,0,2023-03-10T14:08:31.116741,6389298,1986,352,539,-969,-634,-270,125,63,-111
23593,6913,0,2023-03-10T14:08:31.122249,6389303,1986,352,539,-969,-634,-270,125,63,-111
23594,6914,0,2023-03-10T14:08:31.126938,6389308,1986,352,539,-969,-634,-270,125,63,-111
23595,6915,0,2023-03-10T14:08:31.131277,6389312,1986,352,539,-969,-634,-270,125,63,-111
23596,6916,0,2023-03-10T14:08:31.136289,6389317,2016,358,549,-1026,-616,-308,123,73,-111
23597,6917,0,2023-03-10T14:08:31.141367,6389322,2016,358,549,-1026,-616,-308,123,73,-123
23598,6918,0,2023-03-10T14:08:31.145652,6389326,2016,358,549,-1026,-616,-308,123,73,-123
23599,6919,0,2023-03-10T14:08:31.150461,6389330,2016,358,549,-1026,-616,-308,123,73,-123
23600,6920,0,2023-03-10T14:08:31.154981,6389336,2016,358,549,-1026,-616,-308,123,73,-123
23601,6921,0,2023-03-10T14:08:31.159994,6389341,1990,351,541,-987,-644,-278,123,73,-123
23602,6922,0,2023-03-10T14:08:31.164977,6389346,1990,351,541,-987,-644,-278,123,73,-123
23603,6923,0,2023-03-10T14:08:31.169252,6389350,1990,351,541,-987,-644,-278,123,73,-123
23604,6924,0,2023-03-10T14:08:31.173595,6389354,1990,351,541,-987,-644,-278,123,73,-123
23605,6925,0,2023-03-10T14:08:31.178908,6389359,2028,363,543,-994,-622,-296,123,73,-123
23606,6926,0,2023-03-10T14:08:31.183829,6389364,2028,363,543,-994,-622,-296,123,73,-123
23607,6927,0,2023-03-10T14:08:31.188248,6389369,2028,363,543,-994,-622,-296,123,73,-123
23608,6928,0,2023-03-10T14:08:31.192631,6389373,2028,363,543,-994,-622,-296,123,73,-123
23609,6929,0,2023-03-10T14:08:31.197602,6389379,1991,351,537,-989,-642,-274,123,73,-123
23610,6930,0,2023-03-10T14:08:31.203244,6389384,1991,351,537,-989,-642,-274,123,73,-123
23611,6931,0,2023-03-10T14:08:31.207787,6389389,1991,351,537,-989,-642,-274,123,73,-123
23612,6932,0,2023-03-10T14:08:31.212470,6389393,1991,351,537,-989,-642,-274,123,73,-123
23613,6933,0,2023-03-10T14:08:31.217607,6389398,2017,356,545,-1000,-608,-304,123,73,-123
23614,6934,0,2023-03-10T14:08:31.223014,6389404,2017,356,545,-1000,-608,-304,123,73,-123
23615,6935,0,2023-03-10T14:08:31.227555,6389408,2017,356,545,-1000,-608,-304,123,73,-123
23616,6936,0,2023-03-10T14:08:31.231926,6389412,2017,356,545,-1000,-608,-304,123,73,-123
23617,6937,0,2023-03-10T14:08:31.237015,6389417,1992,348,537,-990,-665,-268,123,73,-123
23618,6938,0,2023-03-10T14:08:31.241674,6389423,1992,348,537,-990,-665,-268,123,73,-123
23619,6939,0,2023-03-10T14:08:31.245995,6389427,1992,348,537,-990,-665,-268,123,73,-123
23620,6940,0,2023-03-10T14:08:31.250344,6389431,1992,348,537,-990,-665,-268,123,73,-123
23621,6941,0,2023-03-10T14:08:31.254925,6389436,1992,348,537,-990,-665,-268,123,73,-123
23622,6942,0,2023-03-10T14:08:31.260169,6389441,2023,362,537,-991,-618,-299,118,72,-124
23623,6943,0,2023-03-10T14:08:31.264712,6389445,2023,362,537,-991,-618,-299,118,72,-124
23624,6944,0,2023-03-10T14:08:31.269444,6389450,2023,362,537,-991,-618,-299,118,72,-124
23625,6945,0,2023-03-10T14:08:31.274076,6389454,2023,362,537,-991,-618,-299,118,72,-124
23626,6946,0,2023-03-10T14:08:31.278845,6389459,1991,349,545,-965,-636,-262,118,72,-124
23627,6947,0,2023-03-10T14:08:31.284438,6389465,1991,349,545,-965,-636,-262,118,72,-124
23628,6948,0,2023-03-10T14:08:31.288896,6389470,1991,349,545,-965,-636,-262,118,72,-124
23629,6949,0,2023-03-10T14:08:31.293333,6389474,1991,349,545,-965,-636,-262,118,72,-124
23630,6950,0,2023-03-10T14:08:31.297518,6389478,1997,349,536,-982,-654,-285,118,72,-124
23631,6951,0,2023-03-10T14:08:31.303021,6389484,1997,349,536,-982,-654,-285,118,72,-124
23632,6952,0,2023-03-10T14:08:31.307623,6389488,1997,349,536,-982,-654,-285,118,72,-124
23633,6953,0,2023-03-10T14:08:31.311918,6389492,1997,349,536,-982,-654,-285,118,72,-124
23634,6954,0,2023-03-10T14:08:31.316815,6389497,2019,356,537,-1010,-614,-294,118,72,-124
23635,6955,0,2023-03-10T14:08:31.322038,6389502,2019,356,537,-1010,-614,-294,118,72,-124
23636,6956,0,2023-03-10T14:08:31.326880,6389508,2019,356,537,-1010,-614,-294,118,72,-124
23637,6957,0,2023-03-10T14:08:31.331543,6389512,2019,356,537,-1010,-614,-294,118,72,-124
23638,6958,0,2023-03-10T14:08:31.336540,6389517,1997,350,539,-964,-706,-273,118,72,-124
23639,6959,0,2023-03-10T14:08:31.342377,6389523,1997,350,539,-964,-706,-273,118,72,-124
23640,6960,0,2023-03-10T14:08:31.346732,6389527,1997,350,539,-964,-706,-273,118,72,-124
23641,6961,0,2023-03-10T14:08:31.351114,6389532,1997,350,539,-964,-706,-273,118,72,-124
23642,6962,0,2023-03-10T14:08:31.356419,6389537,2019,364,532,-1004,-630,-295,118,72,-124
23643,6963,0,2023-03-10T14:08:31.361183,6389542,2019,364,532,-1004,-630,-295,118,72,-124
23644,6964,0,2023-03-10T14:08:31.365694,6389547,2019,364,532,-1004,-630,-295,118,72,-124
23645,6965,0,2023-03-10T14:08:31.370094,6389551,2019,364,532,-1004,-630,-295,118,72,-124
23646,6966,0,2023-03-10T14:08:31.374608,6389555,2019,364,532,-1004,-630,-295,118,72,-124
23647,6967,0,2023-03-10T14:08:31.379724,6389561,1987,348,543,-1000,-575,-273,118,72,-124
23648,6968,0,2023-03-10T14:08:31.384679,6389565,1987,348,543,-1000,-575,-273,118,72,-124
23649,6969,0,2023-03-10T14:08:31.389082,6389570,1987,348,543,-1000,-575,-273,118,72,-124
23650,6970,0,2023-03-10T14:08:31.393573,6389574,1987,348,543,-1000,-575,-273,118,72,-124
23651,6971,0,2023-03-10T14:08:31.398091,6389578,2023,362,548,-1001,-650,-304,118,68,-124
23652,6972,0,2023-03-10T14:08:31.403657,6389584,2023,362,548,-1001,-650,-304,118,68,-124
23653,6973,0,2023-03-10T14:08:31.408050,6389588,2023,362,548,-1001,-650,-304,118,68,-124
23654,6974,0,2023-03-10T14:08:31.412407,6389594,2023,362,548,-1001,-650,-304,118,68,-124
23655,6975,0,2023-03-10T14:08:31.417523,6389598,2000,348,537,-1003,-636,-265,118,68,-124
23656,6976,0,2023-03-10T14:08:31.423064,6389604,2000,348,537,-1003,-636,-265,118,68,-124
23657,6977,0,2023-03-10T14:08:31.427926,6389609,2000,348,537,-1003,-636,-265,118,68,-124
23658,6978,0,2023-03-10T14:08:31.432351,6389613,2000,348,537,-1003,-636,-265,118,68,-124
23659,6979,0,2023-03-10T14:08:31.437131,6389618,2025,363,540,-991,-662,-303,118,68,-124
23660,6980,0,2023-03-10T14:08:31.441357,6389622,2025,363,540,-991,-662,-303,118,68,-124
23661,6981,0,2023-03-10T14:08:31.445878,6389626,2025,363,540,-991,-662,-303,118,68,-124
23662,6982,0,2023-03-10T14:08:31.450205,6389630,2025,363,540,-991,-662,-303,118,68,-124
23663,6983,0,2023-03-10T14:08:31.455145,6389636,2025,363,540,-991,-662,-303,118,68,-124
23664,6984,0,2023-03-10T14:08:31.461077,6389642,1993,345,526,-997,-670,-263,118,68,-124
23665,6985,0,2023-03-10T14:08:31.466304,6389647,1993,345,526,-997,-670,-263,118,68,-124
23666,6986,0,2023-03-10T14:08:31.470627,6389651,1993,345,526,-997,-670,-263,118,68,-124
23667,6987,0,2023-03-10T14:08:31.475289,6389656,1993,345,526,-997,-670,-263,118,68,-124
23668,6988,0,2023-03-10T14:08:31.480700,6389661,2006,355,526,-995,-593,-284,118,68,-124
23669,6989,0,2023-03-10T14:08:31.485732,6389666,2006,355,526,-995,-593,-284,118,68,-124
23670,6990,0,2023-03-10T14:08:31.490079,6389670,2006,355,526,-995,-593,-284,118,68,-124
23671,6991,0,2023-03-10T14:08:31.494563,6389676,2006,355,526,-995,-593,-284,118,68,-124
23672,6992,0,2023-03-10T14:08:31.499040,6389680,2034,364,532,-974,-611,-285,118,68,-124
23673,6993,0,2023-03-10T14:08:31.503947,6389685,2034,364,532,-974,-611,-285,118,68,-124
23674,6994,0,2023-03-10T14:08:31.508683,6389689,2034,364,532,-974,-611,-285,118,68,-124
23675,6995,0,2023-03-10T14:08:31.513109,6389694,2034,364,532,-974,-611,-285,118,68,-124
23676,6996,0,2023-03-10T14:08:31.518203,6389699,1979,344,532,-977,-644,-258,116,66,-116
23677,6997,0,2023-03-10T14:08:31.523193,6389704,1979,344,532,-977,-644,-258,116,66,-116
23678,6998,0,2023-03-10T14:08:31.527944,6389708,1979,344,532,-977,-644,-258,116,66,-116
23679,6999,0,2023-03-10T14:08:31.532620,6389713,1979,344,532,-977,-644,-258,116,66,-116
23680,7000,0,2023-03-10T14:08:31.537808,6389719,2029,355,539,-1030,-615,-307,116,66,-116
23681,7001,0,2023-03-10T14:08:31.542758,6389724,2029,355,539,-1030,-615,-307,116,66,-116
23682,7002,0,2023-03-10T14:08:31.547058,6389728,2029,355,539,-1030,-615,-307,116,66,-116
23683,7003,0,2023-03-10T14:08:31.551495,6389732,2029,355,539,-1030,-615,-307,116,66,-116
23684,7004,0,2023-03-10T14:08:31.557491,6389738,1993,353,526,-983,-666,-262,116,66,-116
23685,7005,0,2023-03-10T14:08:31.563253,6389744,1993,353,526,-983,-666,-262,116,66,-116
23686,7006,0,2023-03-10T14:08:31.567732,6389748,1993,353,526,-983,-666,-262,116,66,-116
23687,7007,0,2023-03-10T14:08:31.572204,6389753,1993,353,526,-983,-666,-262,116,66,-116
23688,7008,0,2023-03-10T14:08:31.577075,6389757,2025,355,541,-952,-617,-274,116,66,-116
23689,7009,0,2023-03-10T14:08:31.582594,6389764,2025,355,541,-952,-617,-274,116,66,-116
23690,7010,0,2023-03-10T14:08:31.587031,6389768,2025,355,541,-952,-617,-274,116,66,-116
23691,7011,0,2023-03-10T14:08:31.591604,6389773,2025,355,541,-952,-617,-274,116,66,-116
23692,7012,0,2023-03-10T14:08:31.595919,6389777,2025,355,541,-952,-617,-274,116,66,-116
23693,7013,0,2023-03-10T14:08:31.600340,6389781,1994,349,533,-992,-633,-282,116,66,-116
23694,7014,0,2023-03-10T14:08:31.605204,6389786,1994,349,533,-992,-633,-282,116,66,-116
23695,7015,0,2023-03-10T14:08:31.609908,6389790,1994,349,533,-992,-633,-282,116,66,-116
23696,7016,0,2023-03-10T14:08:31.614468,6389795,1994,349,533,-992,-633,-282,116,66,-116
23697,7017,0,2023-03-10T14:08:31.619004,6389799,2002,349,543,-1017,-646,-290,116,66,-116
23698,7018,0,2023-03-10T14:08:31.623914,6389805,2002,349,543,-1017,-646,-290,116,66,-116
23699,7019,0,2023-03-10T14:08:31.628279,6389809,2002,349,543,-1017,-646,-290,116,66,-116
23700,7020,0,2023-03-10T14:08:31.633086,6389814,2002,349,543,-1017,-646,-290,116,66,-116
23701,7021,0,2023-03-10T14:08:31.638068,6389819,2020,358,529,-1002,-629,-295,116,66,-116
23702,7022,0,2023-03-10T14:08:31.642998,6389824,2020,358,529,-1002,-629,-295,116,66,-116
23703,7023,0,2023-03-10T14:08:31.647419,6389828,2020,358,529,-1002,-629,-295,116,66,-116
23704,7024,0,2023-03-10T14:08:31.651665,6389832,2020,358,529,-1002,-629,-295,116,66,-116
23705,7025,0,2023-03-10T14:08:31.656176,6389837,2020,358,529,-1002,-629,-295,116,66,-116
23706,7026,0,2023-03-10T14:08:31.660646,6389841,2013,355,541,-1004,-630,-286,124,58,-112
23707,7027,0,2023-03-10T14:08:31.665002,6389846,2013,355,541,-1004,-630,-286,124,58,-112
23708,7028,0,2023-03-10T14:08:31.669478,6389850,2013,355,541,-1004,-630,-286,124,58,-112
23709,7029,0,2023-03-10T14:08:31.673721,6389855,2013,355,541,-1004,-630,-286,124,58,-112
23710,7030,0,2023-03-10T14:08:31.679032,6389860,1997,354,533,-999,-644,-278,124,58,-112
23711,7031,0,2023-03-10T14:08:31.684527,6389865,1997,354,533,-999,-644,-278,124,58,-112
23712,7032,0,2023-03-10T14:08:31.688975,6389870,1997,354,533,-999,-644,-278,124,58,-112
23713,7033,0,2023-03-10T14:08:31.693544,6389874,1997,354,533,-999,-644,-278,124,58,-112
23714,7034,0,2023-03-10T14:08:31.698729,6389879,2021,355,538,-1009,-615,-299,124,58,-112
23715,7035,0,2023-03-10T14:08:31.703694,6389884,2021,355,538,-1009,-615,-299,124,58,-112
23716,7036,0,2023-03-10T14:08:31.708207,6389889,2021,355,538,-1009,-615,-299,124,58,-112
23717,7037,0,2023-03-10T14:08:31.713079,6389894,2021,355,538,-1009,-615,-299,124,58,-112
23718,7038,0,2023-03-10T14:08:31.718443,6389899,1993,351,525,-983,-676,-266,124,58,-112
23719,7039,0,2023-03-10T14:08:31.724117,6389905,1993,351,525,-983,-676,-266,124,58,-112
23720,7040,0,2023-03-10T14:08:31.728806,6389909,1993,351,525,-983,-676,-266,124,58,-112
23721,7041,0,2023-03-10T14:08:31.733437,6389914,1993,351,525,-983,-676,-266,124,58,-112
23722,7042,0,2023-03-10T14:08:31.738726,6389919,2024,360,533,-993,-624,-303,124,58,-112
23723,7043,0,2023-03-10T14:08:31.744105,6389924,2024,360,533,-993,-624,-303,124,58,-112
23724,7044,0,2023-03-10T14:08:31.748783,6389929,2024,360,533,-993,-624,-303,124,58,-112
23725,7045,0,2023-03-10T14:08:31.753409,6389934,2024,360,533,-993,-624,-303,124,58,-112
23726,7046,0,2023-03-10T14:08:31.758907,6389940,1995,348,530,-985,-633,-266,124,58,-112
23727,7047,0,2023-03-10T14:08:31.764794,6389945,1995,348,530,-985,-633,-266,124,58,-112
23728,7048,0,2023-03-10T14:08:31.769618,6389950,1995,348,530,-985,-633,-266,124,58,-112
23729,7049,0,2023-03-10T14:08:31.773929,6389955,1995,348,530,-985,-633,-266,124,58,-112
23730,7050,0,2023-03-10T14:08:31.779431,6389960,2003,350,536,-984,-641,-279,120,58,-128
23731,7051,0,2023-03-10T14:08:31.784698,6389965,2003,350,536,-984,-641,-279,120,58,-128
23732,7052,0,2023-03-10T14:08:31.789194,6389969,2003,350,536,-984,-641,-279,120,58,-128
23733,7053,0,2023-03-10T14:08:31.793676,6389975,2003,350,536,-984,-641,-279,120,58,-128
23734,7054,0,2023-03-10T14:08:31.798590,6389980,2017,356,545,-1001,-621,-286,120,58,-128
23735,7055,0,2023-03-10T14:08:31.803928,6389984,2017,356,545,-1001,-621,-286,120,58,-128
23736,7056,0,2023-03-10T14:08:31.808228,6389989,2017,356,545,-1001,-621,-286,120,58,-128
23737,7057,0,2023-03-10T14:08:31.812713,6389993,2017,356,545,-1001,-621,-286,120,58,-128
23738,7058,0,2023-03-10T14:08:31.817861,6389998,2012,356,535,-991,-699,-283,120,58,-128
23739,7059,0,2023-03-10T14:08:31.823118,6390004,2012,356,535,-991,-699,-283,120,58,-128
23740,7060,0,2023-03-10T14:08:31.827780,6390008,2012,356,535,-991,-699,-283,120,58,-128
23741,7061,0,2023-03-10T14:08:31.832325,6390012,2012,356,535,-991,-699,-283,120,58,-128
23742,7062,0,2023-03-10T14:08:31.837238,6390018,2015,359,528,-973,-632,-265,120,58,-128
23743,7063,0,2023-03-10T14:08:31.842213,6390023,2015,359,528,-973,-632,-265,120,58,-128
23744,7064,0,2023-03-10T14:08:31.847007,6390028,2015,359,528,-973,-632,-265,120,58,-128
23745,7065,0,2023-03-10T14:08:31.851380,6390032,2015,359,528,-973,-632,-265,120,58,-128
23746,7066,0,2023-03-10T14:08:31.856746,6390037,2015,359,528,-973,-632,-265,120,58,-128
23747,7067,0,2023-03-10T14:08:31.861102,6390042,1992,346,548,-964,-581,-267,120,58,-128
23748,7068,0,2023-03-10T14:08:31.866219,6390047,1992,346,548,-964,-581,-267,120,58,-128
23749,7069,0,2023-03-10T14:08:31.870498,6390051,1992,346,548,-964,-581,-267,120,58,-128
23750,7070,0,2023-03-10T14:08:31.874932,6390055,1992,346,548,-964,-581,-267,120,58,-128
23751,7071,0,2023-03-10T14:08:31.880172,6390061,2037,361,530,-1016,-650,-315,120,58,-128
23752,7072,0,2023-03-10T14:08:31.885336,6390066,2037,361,530,-1016,-650,-315,120,58,-128
23753,7073,0,2023-03-10T14:08:31.890282,6390071,2037,361,530,-1016,-650,-315,120,58,-128
23754,7074,0,2023-03-10T14:08:31.894741,6390076,2037,361,530,-1016,-650,-315,120,58,-128
23755,7075,0,2023-03-10T14:08:31.899307,6390080,1997,343,515,-996,-645,-267,120,58,-128
23756,7076,0,2023-03-10T14:08:31.904293,6390085,1997,343,515,-996,-645,-267,120,58,-128
23757,7077,0,2023-03-10T14:08:31.908761,6390089,1997,343,515,-996,-645,-267,120,58,-128
23758,7078,0,2023-03-10T14:08:31.913561,6390094,1997,343,515,-996,-645,-267,120,58,-128
23759,7079,0,2023-03-10T14:08:31.918725,6390099,2016,350,537,-983,-609,-299,119,61,-121
23760,7080,0,2023-03-10T14:08:31.923941,6390105,2016,350,537,-983,-609,-299,119,61,-121
23761,7081,0,2023-03-10T14:08:31.928645,6390109,2016,350,537,-983,-609,-299,119,61,-121
23762,7082,0,2023-03-10T14:08:31.933258,6390114,2016,350,537,-983,-609,-299,119,61,-121
23763,7083,0,2023-03-10T14:08:31.938235,6390119,2000,357,530,-1003,-638,-289,119,61,-121
23764,7084,0,2023-03-10T14:08:31.943460,6390124,2000,357,530,-1003,-638,-289,119,61,-121
23765,7085,0,2023-03-10T14:08:31.948042,6390129,2000,357,530,-1003,-638,-289,119,61,-121
23766,7086,0,2023-03-10T14:08:31.952647,6390133,2000,357,530,-1003,-638,-289,119,61,-121
23767,7087,0,2023-03-10T14:08:31.957759,6390138,2010,353,539,-994,-623,-288,119,61,-121
23768,7088,0,2023-03-10T14:08:31.963263,6390144,2010,353,539,-994,-623,-288,119,61,-121
23769,7089,0,2023-03-10T14:08:31.968072,6390149,2010,353,539,-994,-623,-288,119,61,-121
23770,7090,0,2023-03-10T14:08:31.972751,6390154,2010,353,539,-994,-623,-288,119,61,-121
23771,7091,0,2023-03-10T14:08:31.977855,6390159,2025,363,534,-1002,-627,-298,119,61,-121
23772,7092,0,2023-03-10T14:08:31.983383,6390164,2025,363,534,-1002,-627,-298,119,61,-121
23773,7093,0,2023-03-10T14:08:31.987904,6390168,2025,363,534,-1002,-627,-298,119,61,-121
23774,7094,0,2023-03-10T14:08:31.992554,6390173,2025,363,534,-1002,-627,-298,119,61,-121
23775,7095,0,2023-03-10T14:08:31.997595,6390178,1993,344,523,-988,-642,-267,119,61,-121
23776,7096,0,2023-03-10T14:08:32.002958,6390183,1993,344,523,-988,-642,-267,119,61,-121
23777,7097,0,2023-03-10T14:08:32.007354,6390188,1993,344,523,-988,-642,-267,119,61,-121
23778,7098,0,2023-03-10T14:08:32.011779,6390193,1993,344,523,-988,-642,-267,119,61,-121
23779,7099,0,2023-03-10T14:08:32.017066,6390198,1993,344,523,-988,-642,-267,119,61,-121
23780,7100,0,2023-03-10T14:08:32.021751,6390202,2026,358,529,-997,-619,-302,119,61,-121
23781,7101,0,2023-03-10T14:08:32.026787,6390208,2026,358,529,-997,-619,-302,119,61,-121
23782,7102,0,2023-03-10T14:08:32.031324,6390212,2026,358,529,-997,-619,-302,119,61,-121
23783,7103,0,2023-03-10T14:08:32.036801,6390217,2026,358,529,-997,-619,-302,119,61,-121
23784,7104,0,2023-03-10T14:08:32.041511,6390222,1992,344,528,-945,-666,-238,115,65,-119
23785,7105,0,2023-03-10T14:08:32.046553,6390227,1992,344,528,-945,-666,-238,115,65,-119
23786,7106,0,2023-03-10T14:08:32.051044,6390232,1992,344,528,-945,-666,-238,115,65,-119
23787,7107,0,2023-03-10T14:08:32.056255,6390237,1992,344,528,-945,-666,-238,115,65,-119
23788,7108,0,2023-03-10T14:08:32.061894,6390243,2034,357,532,-989,-631,-304,115,65,-119
23789,7109,0,2023-03-10T14:08:32.067201,6390248,2034,357,532,-989,-631,-304,115,65,-119
23790,7110,0,2023-03-10T14:08:32.071793,6390252,2034,357,532,-989,-631,-304,115,65,-119
23791,7111,0,2023-03-10T14:08:32.077078,6390257,2034,357,532,-989,-631,-304,115,65,-119
23792,7112,0,2023-03-10T14:08:32.081686,6390262,2000,349,518,-1011,-644,-284,115,65,-119
23793,7113,0,2023-03-10T14:08:32.086733,6390267,2000,349,518,-1011,-644,-284,115,65,-119
23794,7114,0,2023-03-10T14:08:32.092031,6390272,2000,349,518,-1011,-644,-284,115,65,-119
23795,7115,0,2023-03-10T14:08:32.097301,6390278,2004,351,540,-961,-630,-264,115,65,-119
23796,7116,0,2023-03-10T14:08:32.102156,6390283,2004,351,540,-961,-630,-264,115,65,-119
23797,7117,0,2023-03-10T14:08:32.106988,6390288,2004,351,540,-961,-630,-264,115,65,-119
23798,7118,0,2023-03-10T14:08:32.111747,6390292,2004,351,540,-961,-630,-264,115,65,-119
23799,7119,0,2023-03-10T14:08:32.117024,6390297,2004,351,540,-961,-630,-264,115,65,-119
23800,7120,0,2023-03-10T14:08:32.121552,6390302,2023,359,532,-984,-639,-299,115,65,-119
23801,7121,0,2023-03-10T14:08:32.126662,6390307,2023,359,532,-984,-639,-299,115,65,-119
23802,7122,0,2023-03-10T14:08:32.131065,6390311,2023,359,532,-984,-639,-299,115,65,-119
23803,7123,0,2023-03-10T14:08:32.136329,6390317,2023,359,532,-984,-639,-299,115,65,-119
23804,7124,0,2023-03-10T14:08:32.141137,6390322,2022,357,525,-1022,-642,-306,115,65,-119
23805,7125,0,2023-03-10T14:08:32.146166,6390327,2022,357,525,-1022,-642,-306,115,65,-119
23806,7126,0,2023-03-10T14:08:32.150980,6390332,2022,357,525,-1022,-642,-306,115,65,-119
23807,7127,0,2023-03-10T14:08:32.155865,6390336,2022,357,525,-1022,-642,-306,115,65,-119
23808,7128,0,2023-03-10T14:08:32.161640,6390342,2000,351,516,-1009,-651,-284,122,54,-122
23809,7129,0,2023-03-10T14:08:32.166701,6390347,2000,351,516,-1009,-651,-284,122,54,-122
23810,7130,0,2023-03-10T14:08:32.171395,6390352,2000,351,516,-1009,-651,-284,122,54,-122
23811,7131,0,2023-03-10T14:08:32.176591,6390358,2000,351,516,-1009,-651,-284,122,54,-122
23812,7132,0,2023-03-10T14:08:32.181872,6390363,2026,356,530,-1010,-610,-307,122,54,-122
23813,7133,0,2023-03-10T14:08:32.187273,6390368,2026,356,530,-1010,-610,-307,122,54,-122
23814,7134,0,2023-03-10T14:08:32.191966,6390372,2026,356,530,-1010,-610,-307,122,54,-122
23815,7135,0,2023-03-10T14:08:32.197283,6390378,2026,356,530,-1010,-610,-307,122,54,-122
23816,7136,0,2023-03-10T14:08:32.203091,6390383,1996,346,520,-965,-661,-257,122,54,-122
23817,7137,0,2023-03-10T14:08:32.208489,6390389,1996,346,520,-965,-661,-257,122,54,-122
23818,7138,0,2023-03-10T14:08:32.213146,6390393,1996,346,520,-965,-661,-257,122,54,-122
23819,7139,0,2023-03-10T14:08:32.218166,6390398,2030,356,544,-975,-621,-289,122,54,-122
23820,7140,0,2023-03-10T14:08:32.223452,6390404,2030,356,544,-975,-621,-289,122,54,-122
23821,7141,0,2023-03-10T14:08:32.227863,6390409,2030,356,544,-975,-621,-289,122,54,-122
23822,7142,0,2023-03-10T14:08:32.232484,6390413,2030,356,544,-975,-621,-289,122,54,-122
23823,7143,0,2023-03-10T14:08:32.237892,6390418,1998,349,517,-1004,-638,-288,122,54,-122
23824,7144,0,2023-03-10T14:08:32.243588,6390424,1998,349,517,-1004,-638,-288,122,54,-122
23825,7145,0,2023-03-10T14:08:32.248244,6390429,1998,349,517,-1004,-638,-288,122,54,-122
23826,7146,0,2023-03-10T14:08:32.253207,6390433,1998,349,517,-1004,-638,-288,122,54,-122
23827,7147,0,2023-03-10T14:08:32.258229,6390438,2003,339,521,-986,-650,-275,122,54,-122
23828,7148,0,2023-03-10T14:08:32.263578,6390445,2003,339,521,-986,-650,-275,122,54,-122
23829,7149,0,2023-03-10T14:08:32.268327,6390449,2003,339,521,-986,-650,-275,122,54,-122
23830,7150,0,2023-03-10T14:08:32.272806,6390454,2003,339,521,-986,-650,-275,122,54,-122
23831,7151,0,2023-03-10T14:08:32.278085,6390459,2026,362,522,-998,-609,-298,122,54,-122
23832,7152,0,2023-03-10T14:08:32.283277,6390464,2026,362,522,-998,-609,-298,122,54,-122
23833,7153,0,2023-03-10T14:08:32.287492,6390468,2026,362,522,-998,-609,-298,122,54,-122
23834,7154,0,2023-03-10T14:08:32.292211,6390473,2026,362,522,-998,-609,-298,122,54,-122
23835,7155,0,2023-03-10T14:08:32.296981,6390477,2026,362,522,-998,-609,-298,122,54,-122
23836,7156,0,2023-03-10T14:08:32.301439,6390482,2009,349,538,-953,-644,-245,114,62,-124
23837,7157,0,2023-03-10T14:08:32.306684,6390488,2009,349,538,-953,-644,-245,114,62,-124
23838,7158,0,2023-03-10T14:08:32.311556,6390492,2009,349,538,-953,-644,-245,114,62,-124
23839,7159,0,2023-03-10T14:08:32.316788,6390498,2009,349,538,-953,-644,-245,114,62,-124
23840,7160,0,2023-03-10T14:08:32.321320,6390502,2015,355,531,-987,-622,-288,114,62,-124
23841,7161,0,2023-03-10T14:08:32.326624,6390507,2015,355,531,-987,-622,-288,114,62,-124
23842,7162,0,2023-03-10T14:08:32.331166,6390512,2015,355,531,-987,-622,-288,114,62,-124
23843,7163,0,2023-03-10T14:08:32.335730,6390516,2015,355,531,-987,-622,-288,114,62,-124
23844,7164,0,2023-03-10T14:08:32.340918,6390521,1992,342,529,-1017,-649,-281,114,62,-124
23845,7165,0,2023-03-10T14:08:32.346136,6390526,1992,342,529,-1017,-649,-281,114,62,-124
23846,7166,0,2023-03-10T14:08:32.350496,6390532,1992,342,529,-1017,-649,-281,114,62,-124
23847,7167,0,2023-03-10T14:08:32.355147,6390536,1992,342,529,-1017,-649,-281,114,62,-124
23848,7168,0,2023-03-10T14:08:32.360010,6390541,2035,355,523,-972,-626,-281,114,62,-124
23849,7169,0,2023-03-10T14:08:32.364998,6390546,2035,355,523,-972,-626,-281,114,62,-124
23850,7170,0,2023-03-10T14:08:32.369349,6390550,2035,355,523,-972,-626,-281,114,62,-124
23851,7171,0,2023-03-10T14:08:32.373826,6390554,2035,355,523,-972,-626,-281,114,62,-124
23852,7172,0,2023-03-10T14:08:32.378403,6390559,2023,350,531,-959,-640,-265,114,62,-124
23853,7173,0,2023-03-10T14:08:32.383701,6390564,2023,350,531,-959,-640,-265,114,62,-124
23854,7174,0,2023-03-10T14:08:32.388274,6390569,2023,350,531,-959,-640,-265,114,62,-124
23855,7175,0,2023-03-10T14:08:32.392838,6390574,2023,350,531,-959,-640,-265,114,62,-124
23856,7176,0,2023-03-10T14:08:32.397886,6390579,1997,349,509,-1010,-653,-295,114,62,-124
23857,7177,0,2023-03-10T14:08:32.402894,6390584,1997,349,509,-1010,-653,-295,114,62,-124
23858,7178,0,2023-03-10T14:08:32.407314,6390588,1997,349,509,-1010,-653,-295,114,62,-124
23859,7179,0,2023-03-10T14:08:32.411761,6390592,1997,349,509,-1010,-653,-295,114,62,-124
23860,7180,0,2023-03-10T14:08:32.417135,6390598,1997,349,509,-1010,-653,-295,114,62,-124
23861,7181,0,2023-03-10T14:08:32.421819,6390602,2026,351,531,-1007,-612,-299,111,65,-121
23862,7182,0,2023-03-10T14:08:32.426969,6390607,2026,351,531,-1007,-612,-299,111,65,-121
23863,7183,0,2023-03-10T14:08:32.431558,6390612,2026,351,531,-1007,-612,-299,111,65,-121
23864,7184,0,2023-03-10T14:08:32.436825,6390618,2026,351,531,-1007,-612,-299,111,65,-121
23865,7185,0,2023-03-10T14:08:32.442133,6390623,1998,354,522,-1000,-642,-283,111,65,-121
23866,7186,0,2023-03-10T14:08:32.447132,6390628,1998,354,522,-1000,-642,-283,111,65,-121
23867,7187,0,2023-03-10T14:08:32.451755,6390632,1998,354,522,-1000,-642,-283,111,65,-121
23868,7188,0,2023-03-10T14:08:32.457146,6390637,1998,354,522,-1000,-642,-283,111,65,-121
23869,7189,0,2023-03-10T14:08:32.461562,6390642,2040,358,532,-992,-623,-289,111,65,-121
23870,7190,0,2023-03-10T14:08:32.466613,6390647,2040,358,532,-992,-623,-289,111,65,-121
23871,7191,0,2023-03-10T14:08:32.471070,6390651,2040,358,532,-992,-623,-289,111,65,-121
23872,7192,0,2023-03-10T14:08:32.475665,6390657,2040,358,532,-992,-623,-289,111,65,-121
23873,7193,0,2023-03-10T14:08:32.481142,6390662,1989,346,522,-967,-649,-271,111,65,-121
23874,7194,0,2023-03-10T14:08:32.486231,6390667,1989,346,522,-967,-649,-271,111,65,-121
23875,7195,0,2023-03-10T14:08:32.490833,6390672,1989,346,522,-967,-649,-271,111,65,-121
23876,7196,0,2023-03-10T14:08:32.495237,6390676,1989,346,522,-967,-649,-271,111,65,-121
23877,7197,0,2023-03-10T14:08:32.499962,6390680,2026,349,532,-1024,-622,-308,111,65,-121
23878,7198,0,2023-03-10T14:08:32.505411,6390686,2026,349,532,-1024,-622,-308,111,65,-121
23879,7199,0,2023-03-10T14:08:32.510091,6390690,2026,349,532,-1024,-622,-308,111,65,-121
23880,7200,0,2023-03-10T14:08:32.514929,6390695,2026,349,532,-1024,-622,-308,111,65,-121
23881,7201,0,2023-03-10T14:08:32.520079,6390701,1990,338,504,-984,-727,-267,111,65,-121
23882,7202,0,2023-03-10T14:08:32.525690,6390707,1990,338,504,-984,-727,-267,111,65,-121
23883,7203,0,2023-03-10T14:08:32.530067,6390711,1990,338,504,-984,-727,-267,111,65,-121
23884,7204,0,2023-03-10T14:08:32.534599,6390715,1990,338,504,-984,-727,-267,111,65,-121
23885,7205,0,2023-03-10T14:08:32.539400,6390720,2036,361,517,-994,-591,-303,111,65,-121
23886,7206,0,2023-03-10T14:08:32.544221,6390725,2036,361,517,-994,-591,-303,111,65,-121
23887,7207,0,2023-03-10T14:08:32.548817,6390729,2036,361,517,-994,-591,-303,111,65,-121
23888,7208,0,2023-03-10T14:08:32.553292,6390734,2036,361,517,-994,-591,-303,111,65,-121
23889,7209,0,2023-03-10T14:08:32.558131,6390738,2003,343,528,-979,-583,-258,111,65,-121
23890,7210,0,2023-03-10T14:08:32.563286,6390745,2003,343,528,-979,-583,-258,128,66,-120
23891,7211,0,2023-03-10T14:08:32.567562,6390749,2003,343,528,-979,-583,-258,128,66,-120
23892,7212,0,2023-03-10T14:08:32.571981,6390753,2003,343,528,-979,-583,-258,128,66,-120
23893,7213,0,2023-03-10T14:08:32.576638,6390758,2003,343,528,-979,-583,-258,128,66,-120
23894,7214,0,2023-03-10T14:08:32.581219,6390762,2003,350,534,-974,-674,-280,128,66,-120
23895,7215,0,2023-03-10T14:08:32.586285,6390767,2003,350,534,-974,-674,-280,128,66,-120
23896,7216,0,2023-03-10T14:08:32.590648,6390771,2003,350,534,-974,-674,-280,128,66,-120
23897,7217,0,2023-03-10T14:08:32.595180,6390776,2003,350,534,-974,-674,-280,128,66,-120
23898,7218,0,2023-03-10T14:08:32.599474,6390780,2034,352,513,-1026,-635,-299,128,66,-120
23899,7219,0,2023-03-10T14:08:32.604587,6390786,2034,352,513,-1026,-635,-299,128,66,-120
23900,7220,0,2023-03-10T14:08:32.609378,6390790,2034,352,513,-1026,-635,-299,128,66,-120
23901,7221,0,2023-03-10T14:08:32.614014,6390795,2034,352,513,-1026,-635,-299,128,66,-120
23902,7222,0,2023-03-10T14:08:32.618926,6390800,2003,345,518,-989,-614,-284,128,66,-120
23903,7223,0,2023-03-10T14:08:32.623921,6390805,2003,345,518,-989,-614,-284,128,66,-120
23904,7224,0,2023-03-10T14:08:32.628318,6390809,2003,345,518,-989,-614,-284,128,66,-120
23905,7225,0,2023-03-10T14:08:32.632870,6390813,2003,345,518,-989,-614,-284,128,66,-120
23906,7226,0,2023-03-10T14:08:32.637994,6390818,2003,345,518,-989,-614,-284,128,66,-120
23907,7227,0,2023-03-10T14:08:32.642766,6390823,2013,348,508,-1002,-632,-287,128,66,-120
23908,7228,0,2023-03-10T14:08:32.647395,6390829,2013,348,508,-1002,-632,-287,128,66,-120
23909,7229,0,2023-03-10T14:08:32.651639,6390833,2013,348,508,-1002,-632,-287,128,66,-120
23910,7230,0,2023-03-10T14:08:32.656488,6390837,2013,348,508,-1002,-632,-287,128,66,-120
23911,7231,0,2023-03-10T14:08:32.661028,6390842,2023,351,527,-987,-612,-282,128,66,-120
23912,7232,0,2023-03-10T14:08:32.665888,6390847,2023,351,527,-987,-612,-282,128,66,-120
23913,7233,0,2023-03-10T14:08:32.670336,6390851,2023,351,527,-987,-612,-282,128,66,-120
23914,7234,0,2023-03-10T14:08:32.674747,6390855,2023,351,527,-987,-612,-282,128,66,-120
23915,7235,0,2023-03-10T14:08:32.679612,6390860,2013,353,517,-996,-655,-288,124,74,-118
23916,7236,0,2023-03-10T14:08:32.684468,6390865,2013,353,517,-996,-655,-288,124,74,-118
23917,7237,0,2023-03-10T14:08:32.688992,6390870,2013,353,517,-996,-655,-288,124,74,-118
23918,7238,0,2023-03-10T14:08:32.693426,6390875,2013,353,517,-996,-655,-288,124,74,-118
23919,7239,0,2023-03-10T14:08:32.698471,6390879,2030,354,527,-1003,-628,-289,124,74,-118
23920,7240,0,2023-03-10T14:08:32.703190,6390884,2030,354,527,-1003,-628,-289,124,74,-118
23921,7241,0,2023-03-10T14:08:32.707954,6390889,2030,354,527,-1003,-628,-289,124,74,-118
23922,7242,0,2023-03-10T14:08:32.712375,6390893,2030,354,527,-1003,-628,-289,124,74,-118
23923,7243,0,2023-03-10T14:08:32.717213,6390898,2030,354,527,-1003,-628,-289,124,74,-118
23924,7244,0,2023-03-10T14:08:32.721784,6390902,1993,338,519,-990,-616,-274,124,74,-118
23925,7245,0,2023-03-10T14:08:32.726638,6390907,1993,338,519,-990,-616,-274,124,74,-118
23926,7246,0,2023-03-10T14:08:32.731020,6390912,1993,338,519,-990,-616,-274,124,74,-118
23927,7247,0,2023-03-10T14:08:32.735292,6390916,1993,338,519,-990,-616,-274,124,74,-118
23928,7248,0,2023-03-10T14:08:32.740294,6390921,2018,351,518,-987,-666,-286,124,74,-118
23929,7249,0,2023-03-10T14:08:32.744789,6390926,2018,351,518,-987,-666,-286,124,74,-118
23930,7250,0,2023-03-10T14:08:32.749174,6390930,2018,351,518,-987,-666,-286,124,74,-118
23931,7251,0,2023-03-10T14:08:32.753524,6390934,2018,351,518,-987,-666,-286,124,74,-118
23932,7252,0,2023-03-10T14:08:32.758495,6390939,2019,353,517,-981,-613,-282,124,74,-118
23933,7253,0,2023-03-10T14:08:32.763410,6390944,2019,353,517,-981,-613,-282,124,74,-118
23934,7254,0,2023-03-10T14:08:32.768073,6390948,2019,353,517,-981,-613,-282,124,74,-118
23935,7255,0,2023-03-10T14:08:32.772686,6390953,2019,353,517,-981,-613,-282,124,74,-118
23936,7256,0,2023-03-10T14:08:32.776945,6390958,2019,353,517,-981,-613,-282,124,74,-118
23937,7257,0,2023-03-10T14:08:32.781967,6390963,2019,353,517,-981,-613,-282,124,74,-118
23938,7258,0,2023-03-10T14:08:32.786397,6390967,2019,353,517,-981,-613,-282,124,74,-118
23939,7259,0,2023-03-10T14:08:32.790895,6390972,2019,353,517,-981,-613,-282,124,74,-118
23940,7260,0,2023-03-10T14:08:32.795252,6390976,2019,353,517,-981,-613,-282,124,74,-118
23941,7261,0,2023-03-10T14:08:32.799667,6390980,2019,354,502,-1012,-645,-289,124,74,-118
23942,7262,0,2023-03-10T14:08:32.805021,6390986,2019,354,502,-1012,-645,-289,124,74,-118
23943,7263,0,2023-03-10T14:08:32.809382,6390990,2019,354,502,-1012,-645,-289,124,74,-118
23944,7264,0,2023-03-10T14:08:32.814064,6390994,2019,354,502,-1012,-645,-289,124,74,-118
23945,7265,0,2023-03-10T14:08:32.818750,6391000,2004,346,534,-977,-570,-264,124,62,-116
23946,7266,0,2023-03-10T14:08:32.823587,6391005,2004,346,534,-977,-570,-264,124,62,-116
23947,7267,0,2023-03-10T14:08:32.828054,6391009,2004,346,534,-977,-570,-264,124,62,-116
23948,7268,0,2023-03-10T14:08:32.832412,6391013,2004,346,534,-977,-570,-264,124,62,-116
23949,7269,0,2023-03-10T14:08:32.837370,6391018,2004,346,534,-977,-570,-264,124,62,-116
23950,7270,0,2023-03-10T14:08:32.842528,6391023,2054,365,530,-964,-661,-303,124,62,-116
23951,7271,0,2023-03-10T14:08:32.847485,6391028,2054,365,530,-964,-661,-303,124,62,-116
23952,7272,0,2023-03-10T14:08:32.851965,6391032,2054,365,530,-964,-661,-303,124,62,-116
23953,7273,0,2023-03-10T14:08:32.856986,6391037,2054,365,530,-964,-661,-303,124,62,-116
23954,7274,0,2023-03-10T14:08:32.861963,6391043,1986,343,503,-1007,-678,-263,124,62,-116
23955,7275,0,2023-03-10T14:08:32.866913,6391048,1986,343,503,-1007,-678,-263,124,62,-116
23956,7276,0,2023-03-10T14:08:32.871324,6391052,1986,343,503,-1007,-678,-263,124,62,-116
23957,7277,0,2023-03-10T14:08:32.876412,6391057,1986,343,503,-1007,-678,-263,124,62,-116
23958,7278,0,2023-03-10T14:08:32.880995,6391062,2025,347,515,-999,-602,-293,124,62,-116
23959,7279,0,2023-03-10T14:08:32.885993,6391067,2025,347,515,-999,-602,-293,124,62,-116
23960,7280,0,2023-03-10T14:08:32.890335,6391071,2025,347,515,-999,-602,-293,124,62,-116
23961,7281,0,2023-03-10T14:08:32.894992,6391075,2025,347,515,-999,-602,-293,124,62,-116
23962,7282,0,2023-03-10T14:08:32.900071,6391080,2033,361,519,-997,-597,-306,124,62,-116
23963,7283,0,2023-03-10T14:08:32.905109,6391086,2033,361,519,-997,-597,-306,124,62,-116
23964,7284,0,2023-03-10T14:08:32.909525,6391091,2033,361,519,-997,-597,-306,124,62,-116
23965,7285,0,2023-03-10T14:08:32.914040,6391095,2033,361,519,-997,-597,-306,124,62,-116
23966,7286,0,2023-03-10T14:08:32.919107,6391100,1992,338,507,-979,-646,-258,124,62,-116
23967,7287,0,2023-03-10T14:08:32.923905,6391105,1992,338,507,-979,-646,-258,124,62,-116
23968,7288,0,2023-03-10T14:08:32.928463,6391109,1992,338,507,-979,-646,-258,124,62,-116
23969,7289,0,2023-03-10T14:08:32.932849,6391113,1992,338,507,-979,-646,-258,124,62,-116
23970,7290,0,2023-03-10T14:08:32.938103,6391118,1992,338,507,-979,-646,-258,124,62,-116
23971,7291,0,2023-03-10T14:08:32.942911,6391123,2054,357,517,-1001,-616,-323,114,66,-120
23972,7292,0,2023-03-10T14:08:32.948037,6391129,2054,357,517,-1001,-616,-323,114,66,-120
23973,7293,0,2023-03-10T14:08:32.952408,6391133,2054,357,517,-1001,-616,-323,114,66,-120
23974,7294,0,2023-03-10T14:08:32.957711,6391139,2054,357,517,-1001,-616,-323,114,66,-120
23975,7295,0,2023-03-10T14:08:32.962377,6391143,1989,341,518,-994,-643,-264,114,66,-120
23976,7296,0,2023-03-10T14:08:32.967360,6391148,1989,341,518,-994,-643,-264,114,66,-120
23977,7297,0,2023-03-10T14:08:32.972028,6391153,1989,341,518,-994,-643,-264,114,66,-120
23978,7298,0,2023-03-10T14:08:32.977130,6391158,1989,341,518,-994,-643,-264,114,66,-120
23979,7299,0,2023-03-10T14:08:32.981581,6391162,2029,345,527,-993,-603,-297,114,66,-120
23980,7300,0,2023-03-10T14:08:32.986034,6391166,2029,345,527,-993,-603,-297,114,66,-120
23981,7301,0,2023-03-10T14:08:32.990627,6391172,2029,345,527,-993,-603,-297,114,66,-120
23982,7302,0,2023-03-10T14:08:32.995332,6391176,2029,345,527,-993,-603,-297,114,66,-120
23983,7303,0,2023-03-10T14:08:33.000549,6391181,2000,344,509,-979,-715,-271,114,66,-120
23984,7304,0,2023-03-10T14:08:33.005831,6391187,2000,344,509,-979,-715,-271,114,66,-120
23985,7305,0,2023-03-10T14:08:33.010257,6391191,2000,344,509,-979,-715,-271,114,66,-120
23986,7306,0,2023-03-10T14:08:33.014902,6391195,2000,344,509,-979,-715,-271,114,66,-120
23987,7307,0,2023-03-10T14:08:33.020143,6391201,2034,353,508,-997,-617,-293,114,66,-120
23988,7308,0,2023-03-10T14:08:33.025040,6391205,2034,353,508,-997,-617,-293,114,66,-120
23989,7309,0,2023-03-10T14:08:33.029564,6391211,2034,353,508,-997,-617,-293,114,66,-120
23990,7310,0,2023-03-10T14:08:33.034239,6391215,2034,353,508,-997,-617,-293,114,66,-120
23991,7311,0,2023-03-10T14:08:33.039071,6391220,2006,347,519,-996,-575,-289,114,66,-120
23992,7312,0,2023-03-10T14:08:33.044237,6391225,2006,347,519,-996,-575,-289,114,66,-120
23993,7313,0,2023-03-10T14:08:33.048849,6391229,2006,347,519,-996,-575,-289,114,66,-120
23994,7314,0,2023-03-10T14:08:33.053462,6391234,2006,347,519,-996,-575,-289,114,66,-120
23995,7315,0,2023-03-10T14:08:33.058422,6391239,2006,347,519,-996,-575,-289,114,66,-120
23996,7316,0,2023-03-10T14:08:33.063131,6391243,2017,348,519,-983,-689,-283,118,68,-120
23997,7317,0,2023-03-10T14:08:33.068208,6391249,2017,348,519,-983,-689,-283,118,68,-120
23998,7318,0,2023-03-10T14:08:33.072630,6391254,2017,348,519,-983,-689,-283,118,68,-120
23999,7319,0,2023-03-10T14:08:33.076997,6391258,2017,348,519,-983,-689,-283,118,68,-120
24000,7320,0,2023-03-10T14:08:33.081923,6391263,2037,359,524,-998,-632,-296,118,68,-120
24001,7321,0,2023-03-10T14:08:33.087212,6391268,2037,359,524,-998,-632,-296,118,68,-120
24002,7322,0,2023-03-10T14:08:33.091915,6391273,2037,359,524,-998,-632,-296,118,68,-120
24003,7323,0,2023-03-10T14:08:33.096766,6391277,2037,359,524,-998,-632,-296,118,68,-120
24004,7324,0,2023-03-10T14:08:33.101303,6391282,2000,341,509,-1001,-600,-275,118,68,-120
24005,7325,0,2023-03-10T14:08:33.106145,6391287,2000,341,509,-1001,-600,-275,118,68,-120
24006,7326,0,2023-03-10T14:08:33.110612,6391291,2000,341,509,-1001,-600,-275,118,68,-120
24007,7327,0,2023-03-10T14:08:33.115185,6391296,2000,341,509,-1001,-600,-275,118,68,-120
24008,7328,0,2023-03-10T14:08:33.120400,6391302,2022,347,519,-988,-608,-281,118,68,-120
24009,7329,0,2023-03-10T14:08:33.125487,6391306,2022,347,519,-988,-608,-281,118,68,-120
24010,7330,0,2023-03-10T14:08:33.129968,6391311,2022,347,519,-988,-608,-281,118,68,-120
24011,7331,0,2023-03-10T14:08:33.134249,6391315,2022,347,519,-988,-608,-281,118,68,-120
24012,7332,0,2023-03-10T14:08:33.139005,6391320,2003,339,512,-961,-675,-251,118,68,-120
24013,7333,0,2023-03-10T14:08:33.144564,6391325,2003,339,512,-961,-675,-251,118,68,-120
24014,7334,0,2023-03-10T14:08:33.149013,6391330,2003,339,512,-961,-675,-251,118,68,-120
24015,7335,0,2023-03-10T14:08:33.153447,6391334,2003,339,512,-961,-675,-251,118,68,-120
24016,7336,0,2023-03-10T14:08:33.159315,6391340,2003,339,512,-961,-675,-251,118,68,-120
24017,7337,0,2023-03-10T14:08:33.163969,6391345,2027,350,516,-1026,-619,-311,118,68,-120
24018,7338,0,2023-03-10T14:08:33.168843,6391350,2027,350,516,-1026,-619,-311,118,68,-120
24019,7339,0,2023-03-10T14:08:33.173304,6391354,2027,350,516,-1026,-619,-311,118,68,-120
24020,7340,0,2023-03-10T14:08:33.178499,6391359,2027,350,516,-1026,-619,-311,118,68,-120
24021,7341,0,2023-03-10T14:08:33.183907,6391364,2019,353,495,-1008,-667,-285,118,68,-120
24022,7342,0,2023-03-10T14:08:33.188904,6391370,2019,353,495,-1008,-667,-285,118,68,-120
24023,7343,0,2023-03-10T14:08:33.193488,6391374,2019,353,495,-1008,-667,-285,118,68,-120
24024,7344,0,2023-03-10T14:08:33.199016,6391379,2021,347,528,-981,-605,-291,118,68,-120
24025,7345,0,2023-03-10T14:08:33.204044,6391385,2021,347,528,-981,-605,-291,114,62,-118
24026,7346,0,2023-03-10T14:08:33.208381,6391390,2021,347,528,-981,-605,-291,114,62,-118
24027,7347,0,2023-03-10T14:08:33.212971,6391394,2021,347,528,-981,-605,-291,114,62,-118
24028,7348,0,2023-03-10T14:08:33.217448,6391398,2021,347,528,-981,-605,-291,114,62,-118
24029,7349,0,2023-03-10T14:08:33.222062,6391403,2008,348,507,-1006,-681,-290,114,62,-118
24030,7350,0,2023-03-10T14:08:33.227088,6391408,2008,348,507,-1006,-681,-290,114,62,-118
24031,7351,0,2023-03-10T14:08:33.231423,6391412,2008,348,507,-1006,-681,-290,114,62,-118
24032,7352,0,2023-03-10T14:08:33.235994,6391416,2008,348,507,-1006,-681,-290,114,62,-118
24033,7353,0,2023-03-10T14:08:33.240288,6391421,2039,349,520,-984,-615,-283,114,62,-118
24034,7354,0,2023-03-10T14:08:33.245626,6391427,2039,349,520,-984,-615,-283,114,62,-118
24035,7355,0,2023-03-10T14:08:33.250112,6391431,2039,349,520,-984,-615,-283,114,62,-118
24036,7356,0,2023-03-10T14:08:33.254649,6391436,2039,349,520,-984,-615,-283,114,62,-118
24037,7357,0,2023-03-10T14:08:33.259576,6391440,2016,347,507,-1003,-598,-285,114,62,-118
24038,7358,0,2023-03-10T14:08:33.264508,6391445,2016,347,507,-1003,-598,-285,114,62,-118
24039,7359,0,2023-03-10T14:08:33.269174,6391450,2016,347,507,-1003,-598,-285,114,62,-118
24040,7360,0,2023-03-10T14:08:33.273864,6391454,2016,347,507,-1003,-598,-285,114,62,-118
24041,7361,0,2023-03-10T14:08:33.279022,6391459,2012,339,507,-999,-640,-279,114,62,-118
24042,7362,0,2023-03-10T14:08:33.284095,6391464,2012,339,507,-999,-640,-279,114,62,-118
24043,7363,0,2023-03-10T14:08:33.288430,6391470,2012,339,507,-999,-640,-279,114,62,-118
24044,7364,0,2023-03-10T14:08:33.293012,6391474,2012,339,507,-999,-640,-279,114,62,-118
24045,7365,0,2023-03-10T14:08:33.297391,6391478,2012,339,507,-999,-640,-279,114,62,-118
24046,7366,0,2023-03-10T14:08:33.301717,6391483,2020,357,505,-985,-636,-289,114,62,-118
24047,7367,0,2023-03-10T14:08:33.306626,6391487,2020,357,505,-985,-636,-289,114,62,-118
24048,7368,0,2023-03-10T14:08:33.310920,6391492,2020,357,505,-985,-636,-289,114,62,-118
24049,7369,0,2023-03-10T14:08:33.315444,6391496,2020,357,505,-985,-636,-289,114,62,-118
24050,7370,0,2023-03-10T14:08:33.320376,6391501,2028,352,523,-939,-643,-259,119,61,-119
24051,7371,0,2023-03-10T14:08:33.325655,6391506,2028,352,523,-939,-643,-259,119,61,-119
24052,7372,0,2023-03-10T14:08:33.330532,6391512,2028,352,523,-939,-643,-259,119,61,-119
24053,7373,0,2023-03-10T14:08:33.335237,6391516,2028,352,523,-939,-643,-259,119,61,-119
24054,7374,0,2023-03-10T14:08:33.340171,6391521,2024,355,511,-995,-624,-286,119,61,-119
24055,7375,0,2023-03-10T14:08:33.345388,6391526,2024,355,511,-995,-624,-286,119,61,-119
24056,7376,0,2023-03-10T14:08:33.349944,6391531,2024,355,511,-995,-624,-286,119,61,-119
24057,7377,0,2023-03-10T14:08:33.354303,6391535,2024,355,511,-995,-624,-286,119,61,-119
24058,7378,0,2023-03-10T14:08:33.359438,6391540,2013,341,515,-1013,-612,-299,119,61,-119
24059,7379,0,2023-03-10T14:08:33.364743,6391545,2013,341,515,-1013,-612,-299,119,61,-119
24060,7380,0,2023-03-10T14:08:33.369199,6391549,2013,341,515,-1013,-612,-299,119,61,-119
24061,7381,0,2023-03-10T14:08:33.373684,6391555,2013,341,515,-1013,-612,-299,119,61,-119
24062,7382,0,2023-03-10T14:08:33.378565,6391560,2013,341,515,-1013,-612,-299,119,61,-119
24063,7383,0,2023-03-10T14:08:33.383907,6391565,2018,345,505,-993,-667,-294,119,61,-119
24064,7384,0,2023-03-10T14:08:33.388928,6391570,2018,345,505,-993,-667,-294,119,61,-119
24065,7385,0,2023-03-10T14:08:33.393426,6391574,2018,345,505,-993,-667,-294,119,61,-119
24066,7386,0,2023-03-10T14:08:33.398395,6391579,2018,345,505,-993,-667,-294,119,61,-119
24067,7387,0,2023-03-10T14:08:33.402879,6391583,2026,350,510,-1005,-601,-297,119,61,-119
24068,7388,0,2023-03-10T14:08:33.407738,6391588,2026,350,510,-1005,-601,-297,119,61,-119
24069,7389,0,2023-03-10T14:08:33.412136,6391593,2026,350,510,-1005,-601,-297,119,61,-119
24070,7390,0,2023-03-10T14:08:33.417030,6391598,2026,350,510,-1005,-601,-297,119,61,-119
24071,7391,0,2023-03-10T14:08:33.421482,6391603,2029,353,510,-982,-683,-289,119,61,-119
24072,7392,0,2023-03-10T14:08:33.426474,6391607,2029,353,510,-982,-683,-289,119,61,-119
24073,7393,0,2023-03-10T14:08:33.431311,6391612,2029,353,510,-982,-683,-289,119,61,-119
24074,7394,0,2023-03-10T14:08:33.435934,6391617,2029,353,510,-982,-683,-289,119,61,-119
24075,7395,0,2023-03-10T14:08:33.440902,6391622,2020,350,505,-982,-641,-280,119,61,-119
24076,7396,0,2023-03-10T14:08:33.446091,6391627,2020,350,505,-982,-641,-280,119,61,-119
24077,7397,0,2023-03-10T14:08:33.450504,6391631,2020,350,505,-982,-641,-280,119,61,-119
24078,7398,0,2023-03-10T14:08:33.454997,6391635,2020,350,505,-982,-641,-280,119,61,-119
24079,7399,0,2023-03-10T14:08:33.460091,6391641,2010,343,518,-992,-583,-274,120,60,-120
24080,7400,0,2023-03-10T14:08:33.465430,6391646,2010,343,518,-992,-583,-274,120,60,-120
24081,7401,0,2023-03-10T14:08:33.469932,6391651,2010,343,518,-992,-583,-274,120,60,-120
24082,7402,0,2023-03-10T14:08:33.474361,6391655,2010,343,518,-992,-583,-274,120,60,-120
24083,7403,0,2023-03-10T14:08:33.479258,6391660,2055,366,513,-989,-673,-308,120,60,-120
24084,7404,0,2023-03-10T14:08:33.484285,6391665,2055,366,513,-989,-673,-308,120,60,-120
24085,7405,0,2023-03-10T14:08:33.488808,6391669,2055,366,513,-989,-673,-308,120,60,-120
24086,7406,0,2023-03-10T14:08:33.493324,6391674,2055,366,513,-989,-673,-308,120,60,-120
24087,7407,0,2023-03-10T14:08:33.497715,6391678,2055,366,513,-989,-673,-308,120,60,-120
24088,7408,0,2023-03-10T14:08:33.502218,6391684,1999,337,499,-971,-652,-232,120,60,-120
24089,7409,0,2023-03-10T14:08:33.507085,6391688,1999,337,499,-971,-652,-232,120,60,-120
24090,7410,0,2023-03-10T14:08:33.511510,6391692,1999,337,499,-971,-652,-232,120,60,-120
24091,7411,0,2023-03-10T14:08:33.515904,6391697,1999,337,499,-971,-652,-232,120,60,-120
24092,7412,0,2023-03-10T14:08:33.520946,6391701,2015,340,510,-961,-595,-282,120,60,-120
24093,7413,0,2023-03-10T14:08:33.525931,6391707,2015,340,510,-961,-595,-282,120,60,-120
24094,7414,0,2023-03-10T14:08:33.530490,6391711,2015,340,510,-961,-595,-282,120,60,-120
24095,7415,0,2023-03-10T14:08:33.535038,6391716,2015,340,510,-961,-595,-282,120,60,-120
24096,7416,0,2023-03-10T14:08:33.540238,6391720,2029,356,509,-1016,-618,-308,120,60,-120
24097,7417,0,2023-03-10T14:08:33.545387,6391727,2029,356,509,-1016,-618,-308,120,60,-120
24098,7418,0,2023-03-10T14:08:33.549851,6391731,2029,356,509,-1016,-618,-308,120,60,-120
24099,7419,0,2023-03-10T14:08:33.554522,6391735,2029,356,509,-1016,-618,-308,120,60,-120
24100,7420,0,2023-03-10T14:08:33.559600,6391741,2022,342,504,-992,-644,-274,120,60,-120
24101,7421,0,2023-03-10T14:08:33.564789,6391745,2022,342,504,-992,-644,-274,120,60,-120
24102,7422,0,2023-03-10T14:08:33.569256,6391750,2022,342,504,-992,-644,-274,120,60,-120
24103,7423,0,2023-03-10T14:08:33.573446,6391754,2022,342,504,-992,-644,-274,120,60,-120
24104,7424,0,2023-03-10T14:08:33.578547,6391759,2022,342,504,-992,-644,-274,120,60,-120
24105,7425,0,2023-03-10T14:08:33.583008,6391763,2036,355,509,-1002,-614,-305,116,58,-126
24106,7426,0,2023-03-10T14:08:33.588033,6391769,2036,355,509,-1002,-614,-305,116,58,-126
24107,7427,0,2023-03-10T14:08:33.592382,6391774,2036,355,509,-1002,-614,-305,116,58,-126
24108,7428,0,2023-03-10T14:08:33.597533,6391778,2036,355,509,-1002,-614,-305,116,58,-126
24109,7429,0,2023-03-10T14:08:33.602410,6391783,1999,327,510,-999,-629,-251,116,58,-126
24110,7430,0,2023-03-10T14:08:33.607477,6391788,1999,327,510,-999,-629,-251,116,58,-126
24111,7431,0,2023-03-10T14:08:33.611961,6391793,1999,327,510,-999,-629,-251,116,58,-126
24112,7432,0,2023-03-10T14:08:33.616895,6391797,1999,327,510,-999,-629,-251,116,58,-126
24113,7433,0,2023-03-10T14:08:33.621450,6391802,2029,355,512,-997,-639,-311,116,58,-126
24114,7434,0,2023-03-10T14:08:33.626581,6391808,2029,355,512,-997,-639,-311,116,58,-126
24115,7435,0,2023-03-10T14:08:33.630874,6391812,2029,355,512,-997,-639,-311,116,58,-126
24116,7436,0,2023-03-10T14:08:33.635189,6391816,2029,355,512,-997,-639,-311,116,58,-126
24117,7437,0,2023-03-10T14:08:33.640325,6391821,2035,353,506,-995,-648,-281,116,58,-126
24118,7438,0,2023-03-10T14:08:33.645366,6391826,2035,353,506,-995,-648,-281,116,58,-126
24119,7439,0,2023-03-10T14:08:33.649697,6391830,2035,353,506,-995,-648,-281,116,58,-126
24120,7440,0,2023-03-10T14:08:33.654520,6391835,2035,353,506,-995,-648,-281,116,58,-126
24121,7441,0,2023-03-10T14:08:33.659458,6391840,2022,350,506,-984,-632,-281,116,58,-126
24122,7442,0,2023-03-10T14:08:33.664688,6391845,2022,350,506,-984,-632,-281,116,58,-126
24123,7443,0,2023-03-10T14:08:33.669137,6391851,2022,350,506,-984,-632,-281,116,58,-126
24124,7444,0,2023-03-10T14:08:33.673550,6391855,2022,350,506,-984,-632,-281,116,58,-126
24125,7445,0,2023-03-10T14:08:33.678173,6391859,2022,350,506,-984,-632,-281,116,58,-126
24126,7446,0,2023-03-10T14:08:33.683225,6391864,2008,338,500,-1004,-610,-270,116,58,-126
24127,7447,0,2023-03-10T14:08:33.688361,6391869,2008,338,500,-1004,-610,-270,116,58,-126
24128,7448,0,2023-03-10T14:08:33.692910,6391874,2008,338,500,-1004,-610,-270,116,58,-126
24129,7449,0,2023-03-10T14:08:33.697676,6391878,2008,338,500,-1004,-610,-270,116,58,-126
24130,7450,0,2023-03-10T14:08:33.702395,6391883,2021,347,499,-981,-663,-286,119,63,-123
24131,7451,0,2023-03-10T14:08:33.707644,6391888,2021,347,499,-981,-663,-286,119,63,-123
24132,7452,0,2023-03-10T14:08:33.712049,6391892,2021,347,499,-981,-663,-286,119,63,-123
24133,7453,0,2023-03-10T14:08:33.716803,6391898,2021,347,499,-981,-663,-286,119,63,-123
24134,7454,0,2023-03-10T14:08:33.721833,6391903,2029,349,512,-1004,-612,-285,119,63,-123
24135,7455,0,2023-03-10T14:08:33.726888,6391908,2029,349,512,-1004,-612,-285,119,63,-123
24136,7456,0,2023-03-10T14:08:33.731414,6391912,2029,349,512,-1004,-612,-285,119,63,-123
24137,7457,0,2023-03-10T14:08:33.735982,6391917,2029,349,512,-1004,-612,-285,119,63,-123
24138,7458,0,2023-03-10T14:08:33.740958,6391922,2025,347,505,-986,-688,-287,119,63,-123
24139,7459,0,2023-03-10T14:08:33.746381,6391927,2025,347,505,-986,-688,-287,119,63,-123
24140,7460,0,2023-03-10T14:08:33.750650,6391931,2025,347,505,-986,-688,-287,119,63,-123
24141,7461,0,2023-03-10T14:08:33.755542,6391936,2025,347,505,-986,-688,-287,119,63,-123
24142,7462,0,2023-03-10T14:08:33.759956,6391941,2034,355,497,-978,-635,-276,119,63,-123
24143,7463,0,2023-03-10T14:08:33.764922,6391946,2034,355,497,-978,-635,-276,119,63,-123
24144,7464,0,2023-03-10T14:08:33.769256,6391950,2034,355,497,-978,-635,-276,119,63,-123
24145,7465,0,2023-03-10T14:08:33.773741,6391955,2034,355,497,-978,-635,-276,119,63,-123
24146,7466,0,2023-03-10T14:08:33.778549,6391959,2034,355,497,-978,-635,-276,119,63,-123
24147,7467,0,2023-03-10T14:08:33.782962,6391964,2007,336,508,-951,-580,-244,119,63,-123
24148,7468,0,2023-03-10T14:08:33.787956,6391968,2007,336,508,-951,-580,-244,119,63,-123
24149,7469,0,2023-03-10T14:08:33.792353,6391973,2007,336,508,-951,-580,-244,119,63,-123
24150,7470,0,2023-03-10T14:08:33.797140,6391977,2007,336,508,-951,-580,-244,119,63,-123
24151,7471,0,2023-03-10T14:08:33.801553,6391983,2065,362,510,-1010,-662,-325,119,63,-123
24152,7472,0,2023-03-10T14:08:33.806892,6391988,2065,362,510,-1010,-662,-325,119,63,-123
24153,7473,0,2023-03-10T14:08:33.811545,6391992,2065,362,510,-1010,-662,-325,119,63,-123
24154,7474,0,2023-03-10T14:08:33.815884,6391997,2065,362,510,-1010,-662,-325,119,63,-123
24155,7475,0,2023-03-10T14:08:33.820822,6392002,1995,334,479,-1014,-685,-259,119,63,-123
24156,7476,0,2023-03-10T14:08:33.825906,6392007,1995,334,479,-1014,-685,-259,119,63,-123
24157,7477,0,2023-03-10T14:08:33.830311,6392011,1995,334,479,-1014,-685,-259,119,63,-123
24158,7478,0,2023-03-10T14:08:33.834667,6392015,1995,334,479,-1014,-685,-259,119,63,-123
24159,7479,0,2023-03-10T14:08:33.839575,6392020,2026,346,509,-985,-581,-306,117,63,-123
24160,7480,0,2023-03-10T14:08:33.844944,6392026,2026,346,509,-985,-581,-306,117,63,-125
24161,7481,0,2023-03-10T14:08:33.849307,6392030,2026,346,509,-985,-581,-306,117,63,-125
24162,7482,0,2023-03-10T14:08:33.854190,6392035,2026,346,509,-985,-581,-306,117,63,-125
24163,7483,0,2023-03-10T14:08:33.859415,6392040,2026,346,509,-985,-581,-306,117,63,-125
24164,7484,0,2023-03-10T14:08:33.863930,6392045,2035,357,498,-1014,-615,-303,117,63,-125
24165,7485,0,2023-03-10T14:08:33.868753,6392050,2035,357,498,-1014,-615,-303,117,63,-125
24166,7486,0,2023-03-10T14:08:33.873236,6392054,2035,357,498,-1014,-615,-303,117,63,-125
24167,7487,0,2023-03-10T14:08:33.877793,6392058,2035,357,498,-1014,-615,-303,117,63,-125
24168,7488,0,2023-03-10T14:08:33.882177,6392064,2031,351,513,-969,-635,-272,117,63,-125
24169,7489,0,2023-03-10T14:08:33.887321,6392068,2031,351,513,-969,-635,-272,117,63,-125
24170,7490,0,2023-03-10T14:08:33.891761,6392073,2031,351,513,-969,-635,-272,117,63,-125
24171,7491,0,2023-03-10T14:08:33.896063,6392077,2031,351,513,-969,-635,-272,117,63,-125
24172,7492,0,2023-03-10T14:08:33.901147,6392082,2025,348,503,-969,-630,-279,117,63,-125
24173,7493,0,2023-03-10T14:08:33.905995,6392087,2025,348,503,-969,-630,-279,117,63,-125
24174,7494,0,2023-03-10T14:08:33.910490,6392091,2025,348,503,-969,-630,-279,117,63,-125
24175,7495,0,2023-03-10T14:08:33.914914,6392096,2025,348,503,-969,-630,-279,117,63,-125
24176,7496,0,2023-03-10T14:08:33.920136,6392100,2047,351,507,-1013,-667,-299,117,63,-125
24177,7497,0,2023-03-10T14:08:33.925304,6392107,2047,351,507,-1013,-667,-299,117,63,-125
24178,7498,0,2023-03-10T14:08:33.929748,6392111,2047,351,507,-1013,-667,-299,117,63,-125
24179,7499,0,2023-03-10T14:08:33.934351,6392115,2047,351,507,-1013,-667,-299,117,63,-125
24180,7500,0,2023-03-10T14:08:33.939536,6392120,2047,351,507,-1013,-667,-299,117,63,-125
24181,7501,0,2023-03-10T14:08:33.944738,6392125,2009,342,472,-993,-697,-271,117,63,-125
24182,7502,0,2023-03-10T14:08:33.949932,6392131,2009,342,472,-993,-697,-271,117,63,-125
24183,7503,0,2023-03-10T14:08:33.954397,6392135,2009,342,472,-993,-697,-271,117,63,-125
24184,7504,0,2023-03-10T14:08:33.958993,6392140,2009,342,472,-993,-697,-271,117,63,-125
24185,7505,0,2023-03-10T14:08:33.963408,6392144,2031,345,506,-988,-581,-292,123,65,-127
24186,7506,0,2023-03-10T14:08:33.968187,6392148,2031,345,506,-988,-581,-292,123,65,-127
24187,7507,0,2023-03-10T14:08:33.972538,6392154,2031,345,506,-988,-581,-292,123,65,-127
24188,7508,0,2023-03-10T14:08:33.977233,6392158,2031,345,506,-988,-581,-292,123,65,-127
24189,7509,0,2023-03-10T14:08:33.981795,6392163,2041,345,502,-1011,-605,-305,123,65,-127
24190,7510,0,2023-03-10T14:08:33.986843,6392168,2041,345,502,-1011,-605,-305,123,65,-127
24191,7511,0,2023-03-10T14:08:33.991626,6392172,2041,345,502,-1011,-605,-305,123,65,-127
24192,7512,0,2023-03-10T14:08:33.996095,6392177,2041,345,502,-1011,-605,-305,123,65,-127
24193,7513,0,2023-03-10T14:08:34.000364,6392181,1990,331,507,-972,-689,-258,123,65,-127
24194,7514,0,2023-03-10T14:08:34.005987,6392186,1990,331,507,-972,-689,-258,123,65,-127
24195,7515,0,2023-03-10T14:08:34.010526,6392192,1990,331,507,-972,-689,-258,123,65,-127
24196,7516,0,2023-03-10T14:08:34.015120,6392196,1990,331,507,-972,-689,-258,123,65,-127
24197,7517,0,2023-03-10T14:08:34.020228,6392201,2057,363,502,-1007,-609,-310,123,65,-127
24198,7518,0,2023-03-10T14:08:34.025531,6392206,2057,363,502,-1007,-609,-310,123,65,-127
24199,7519,0,2023-03-10T14:08:34.030040,6392211,2057,363,502,-1007,-609,-310,123,65,-127
24200,7520,0,2023-03-10T14:08:34.034494,6392215,2057,363,502,-1007,-609,-310,123,65,-127
24201,7521,0,2023-03-10T14:08:34.039351,6392220,2057,363,502,-1007,-609,-310,123,65,-127
24202,7522,0,2023-03-10T14:08:34.044116,6392225,2008,334,514,-1004,-600,-271,123,65,-127
24203,7523,0,2023-03-10T14:08:34.049078,6392230,2008,334,514,-1004,-600,-271,123,65,-127
24204,7524,0,2023-03-10T14:08:34.053591,6392235,2008,334,514,-1004,-600,-271,123,65,-127
24205,7525,0,2023-03-10T14:08:34.058477,6392240,2008,334,514,-1004,-600,-271,123,65,-127
24206,7526,0,2023-03-10T14:08:34.063016,6392244,2041,359,487,-991,-641,-299,123,65,-127
24207,7527,0,2023-03-10T14:08:34.068067,6392249,2041,359,487,-991,-641,-299,123,65,-127
24208,7528,0,2023-03-10T14:08:34.072489,6392253,2041,359,487,-991,-641,-299,123,65,-127
24209,7529,0,2023-03-10T14:08:34.077474,6392258,2041,359,487,-991,-641,-299,123,65,-127
24210,7530,0,2023-03-10T14:08:34.081748,6392263,2009,333,508,-945,-624,-244,123,65,-127
24211,7531,0,2023-03-10T14:08:34.086565,6392267,2009,333,508,-945,-624,-244,123,65,-127
24212,7532,0,2023-03-10T14:08:34.090980,6392271,2009,333,508,-945,-624,-244,123,65,-127
24213,7533,0,2023-03-10T14:08:34.095369,6392276,2009,333,508,-945,-624,-244,123,65,-127
24214,7534,0,2023-03-10T14:08:34.100500,6392282,2021,343,502,-1001,-635,-297,116,66,-118
24215,7535,0,2023-03-10T14:08:34.105986,6392287,2021,343,502,-1001,-635,-297,116,66,-118
24216,7536,0,2023-03-10T14:08:34.110441,6392292,2021,343,502,-1001,-635,-297,116,66,-118
24217,7537,0,2023-03-10T14:08:34.114945,6392296,2021,343,502,-1001,-635,-297,116,66,-118
24218,7538,0,2023-03-10T14:08:34.120030,6392301,2045,350,491,-1025,-641,-303,116,66,-118
24219,7539,0,2023-03-10T14:08:34.125301,6392306,2045,350,491,-1025,-641,-303,116,66,-118
24220,7540,0,2023-03-10T14:08:34.129928,6392310,2045,350,491,-1025,-641,-303,116,66,-118
24221,7541,0,2023-03-10T14:08:34.134488,6392315,2045,350,491,-1025,-641,-303,116,66,-118
24222,7542,0,2023-03-10T14:08:34.139475,6392321,2045,350,491,-1025,-641,-303,116,66,-118
24223,7543,0,2023-03-10T14:08:34.144050,6392325,2026,339,500,-999,-632,-283,116,66,-118
24224,7544,0,2023-03-10T14:08:34.148961,6392330,2026,339,500,-999,-632,-283,116,66,-118
24225,7545,0,2023-03-10T14:08:34.153400,6392334,2026,339,500,-999,-632,-283,116,66,-118
24226,7546,0,2023-03-10T14:08:34.158384,6392339,2026,339,500,-999,-632,-283,116,66,-118
24227,7547,0,2023-03-10T14:08:34.162913,6392344,2012,348,490,-1015,-648,-292,116,66,-118
24228,7548,0,2023-03-10T14:08:34.167796,6392348,2012,348,490,-1015,-648,-292,116,66,-118
24229,7549,0,2023-03-10T14:08:34.172216,6392353,2012,348,490,-1015,-648,-292,116,66,-118
24230,7550,0,2023-03-10T14:08:34.177044,6392357,2012,348,490,-1015,-648,-292,116,66,-118
24231,7551,0,2023-03-10T14:08:34.181676,6392363,2033,346,512,-994,-616,-285,116,66,-118
24232,7552,0,2023-03-10T14:08:34.186604,6392368,2033,346,512,-994,-616,-285,116,66,-118
24233,7553,0,2023-03-10T14:08:34.191265,6392372,2033,346,512,-994,-616,-285,116,66,-118
24234,7554,0,2023-03-10T14:08:34.195689,6392377,2033,346,512,-994,-616,-285,116,66,-118
24235,7555,0,2023-03-10T14:08:34.200721,6392381,2013,348,492,-1004,-656,-289,116,66,-118
24236,7556,0,2023-03-10T14:08:34.205609,6392386,2013,348,492,-1004,-656,-289,116,66,-118
24237,7557,0,2023-03-10T14:08:34.210112,6392391,2013,348,492,-1004,-656,-289,116,66,-118
24238,7558,0,2023-03-10T14:08:34.214547,6392395,2013,348,492,-1004,-656,-289,116,66,-118
24239,7559,0,2023-03-10T14:08:34.218887,6392399,2013,348,492,-1004,-656,-289,116,66,-118
24240,7560,0,2023-03-10T14:08:34.223266,6392404,2042,344,505,-1003,-629,-287,124,62,-114
24241,7561,0,2023-03-10T14:08:34.227935,6392409,2042,344,505,-1003,-629,-287,124,62,-114
24242,7562,0,2023-03-10T14:08:34.232189,6392413,2042,344,505,-1003,-629,-287,124,62,-114
24243,7563,0,2023-03-10T14:08:34.237185,6392418,2042,344,505,-1003,-629,-287,124,62,-114
24244,7564,0,2023-03-10T14:08:34.241647,6392423,2009,348,484,-996,-640,-295,124,62,-114
24245,7565,0,2023-03-10T14:08:34.246984,6392428,2009,348,484,-996,-640,-295,124,62,-114
24246,7566,0,2023-03-10T14:08:34.251367,6392432,2009,348,484,-996,-640,-295,124,62,-114
24247,7567,0,2023-03-10T14:08:34.256015,6392436,2009,348,484,-996,-640,-295,124,62,-114
24248,7568,0,2023-03-10T14:08:34.261240,6392442,2025,336,508,-965,-611,-262,124,62,-114
24249,7569,0,2023-03-10T14:08:34.266460,6392448,2025,336,508,-965,-611,-262,124,62,-114
24250,7570,0,2023-03-10T14:08:34.270934,6392452,2025,336,508,-965,-611,-262,124,62,-114
24251,7571,0,2023-03-10T14:08:34.275372,6392456,2025,336,508,-965,-611,-262,124,62,-114
24252,7572,0,2023-03-10T14:08:34.280721,6392461,2009,342,495,-963,-712,-280,124,62,-114
24253,7573,0,2023-03-10T14:08:34.285650,6392467,2009,342,495,-963,-712,-280,124,62,-114
24254,7574,0,2023-03-10T14:08:34.290173,6392471,2009,342,495,-963,-712,-280,124,62,-114
24255,7575,0,2023-03-10T14:08:34.294557,6392475,2009,342,495,-963,-712,-280,124,62,-114
24256,7576,0,2023-03-10T14:08:34.299056,6392480,2009,342,495,-963,-712,-280,124,62,-114
24257,7577,0,2023-03-10T14:08:34.303479,6392484,2050,353,494,-1020,-610,-302,124,62,-114
24258,7578,0,2023-03-10T14:08:34.308968,6392489,2050,353,494,-1020,-610,-302,124,62,-114
24259,7579,0,2023-03-10T14:08:34.313683,6392495,2050,353,494,-1020,-610,-302,124,62,-114
24260,7580,0,2023-03-10T14:08:34.318826,6392500,2050,353,494,-1020,-610,-302,124,62,-114
24261,7581,0,2023-03-10T14:08:34.323579,6392505,2005,331,502,-997,-580,-275,124,62,-114
24262,7582,0,2023-03-10T14:08:34.328289,6392509,2005,331,502,-997,-580,-275,124,62,-114
24263,7583,0,2023-03-10T14:08:34.332685,6392513,2005,331,502,-997,-580,-275,124,62,-114
24264,7584,0,2023-03-10T14:08:34.337583,6392518,2005,331,502,-997,-580,-275,124,62,-114
24265,7585,0,2023-03-10T14:08:34.342000,6392523,2033,352,493,-999,-675,-301,124,62,-114
24266,7586,0,2023-03-10T14:08:34.347304,6392528,2033,352,493,-999,-675,-301,124,62,-114
24267,7587,0,2023-03-10T14:08:34.351796,6392532,2033,352,493,-999,-675,-301,124,62,-114
24268,7588,0,2023-03-10T14:08:34.356146,6392538,2033,352,493,-999,-675,-301,124,62,-114
24269,7589,0,2023-03-10T14:08:34.360578,6392542,2031,343,503,-973,-645,-267,117,67,-113
24270,7590,0,2023-03-10T14:08:34.365232,6392546,2031,343,503,-973,-645,-267,117,67,-113
24271,7591,0,2023-03-10T14:08:34.369482,6392551,2031,343,503,-973,-645,-267,117,67,-113
24272,7592,0,2023-03-10T14:08:34.373917,6392555,2031,343,503,-973,-645,-267,117,67,-113
24273,7593,0,2023-03-10T14:08:34.378202,6392559,2031,343,503,-973,-645,-267,117,67,-113
24274,7594,0,2023-03-10T14:08:34.383216,6392564,2013,344,495,-1000,-599,-300,117,67,-113
24275,7595,0,2023-03-10T14:08:34.388186,6392569,2013,344,495,-1000,-599,-300,117,67,-113
24276,7596,0,2023-03-10T14:08:34.392691,6392573,2013,344,495,-1000,-599,-300,117,67,-113
24277,7597,0,2023-03-10T14:08:34.397620,6392579,2013,344,495,-1000,-599,-300,117,67,-113
24278,7598,0,2023-03-10T14:08:34.402218,6392583,2027,338,486,-1018,-625,-287,117,67,-113
24279,7599,0,2023-03-10T14:08:34.407367,6392588,2027,338,486,-1018,-625,-287,117,67,-113
24280,7600,0,2023-03-10T14:08:34.411843,6392593,2027,338,486,-1018,-625,-287,117,67,-113
24281,7601,0,2023-03-10T14:08:34.416217,6392597,2027,338,486,-1018,-625,-287,117,67,-113
24282,7602,0,2023-03-10T14:08:34.421477,6392602,2016,336,496,-982,-651,-287,117,67,-113
24283,7603,0,2023-03-10T14:08:34.426489,6392607,2016,336,496,-982,-651,-287,117,67,-113
24284,7604,0,2023-03-10T14:08:34.430961,6392611,2016,336,496,-982,-651,-287,117,67,-113
24285,7605,0,2023-03-10T14:08:34.435398,6392616,2016,336,496,-982,-651,-287,117,67,-113
24286,7606,0,2023-03-10T14:08:34.439798,6392621,2016,336,496,-982,-651,-287,117,67,-113
24287,7607,0,2023-03-10T14:08:34.444268,6392625,2037,347,488,-1002,-610,-292,117,67,-113
24288,7608,0,2023-03-10T14:08:34.449352,6392630,2037,347,488,-1002,-610,-292,117,67,-113
24289,7609,0,2023-03-10T14:08:34.453833,6392635,2037,347,488,-1002,-610,-292,117,67,-113
24290,7610,0,2023-03-10T14:08:34.458929,6392640,2037,347,488,-1002,-610,-292,117,67,-113
24291,7611,0,2023-03-10T14:08:34.463432,6392644,2024,342,511,-951,-641,-275,117,67,-113
24292,7612,0,2023-03-10T14:08:34.468098,6392649,2024,342,511,-951,-641,-275,117,67,-113
24293,7613,0,2023-03-10T14:08:34.472595,6392653,2024,342,511,-951,-641,-275,117,67,-113
24294,7614,0,2023-03-10T14:08:34.477055,6392658,2024,342,511,-951,-641,-275,117,67,-113
24295,7615,0,2023-03-10T14:08:34.481756,6392663,2023,342,503,-1020,-622,-303,117,57,-123
24296,7616,0,2023-03-10T14:08:34.486821,6392668,2023,342,503,-1020,-622,-303,117,57,-123
24297,7617,0,2023-03-10T14:08:34.491314,6392672,2023,342,503,-1020,-622,-303,117,57,-123
24298,7618,0,2023-03-10T14:08:34.495912,6392677,2023,342,503,-1020,-622,-303,117,57,-123
24299,7619,0,2023-03-10T14:08:34.500489,6392681,2022,342,499,-1003,-672,-288,117,57,-123
24300,7620,0,2023-03-10T14:08:34.505625,6392686,2022,342,499,-1003,-672,-288,117,57,-123
24301,7621,0,2023-03-10T14:08:34.510083,6392691,2022,342,499,-1003,-672,-288,117,57,-123
24302,7622,0,2023-03-10T14:08:34.514927,6392695,2022,342,499,-1003,-672,-288,117,57,-123
24303,7623,0,2023-03-10T14:08:34.519295,6392700,2022,342,499,-1003,-672,-288,117,57,-123
24304,7624,0,2023-03-10T14:08:34.523940,6392705,2040,351,498,-1001,-619,-291,117,57,-123
24305,7625,0,2023-03-10T14:08:34.529128,6392710,2040,351,498,-1001,-619,-291,117,57,-123
24306,7626,0,2023-03-10T14:08:34.533543,6392715,2040,351,498,-1001,-619,-291,117,57,-123
24307,7627,0,2023-03-10T14:08:34.538453,6392719,2040,351,498,-1001,-619,-291,117,57,-123
24308,7628,0,2023-03-10T14:08:34.542945,6392724,2032,346,494,-996,-683,-293,117,57,-123
24309,7629,0,2023-03-10T14:08:34.547718,6392728,2032,346,494,-996,-683,-293,117,57,-123
24310,7630,0,2023-03-10T14:08:34.552203,6392733,2032,346,494,-996,-683,-293,117,57,-123
24311,7631,0,2023-03-10T14:08:34.556618,6392737,2032,346,494,-996,-683,-293,117,57,-123
24312,7632,0,2023-03-10T14:08:34.561271,6392742,2025,345,492,-988,-649,-284,117,57,-123
24313,7633,0,2023-03-10T14:08:34.566254,6392748,2025,345,492,-988,-649,-284,117,57,-123
24314,7634,0,2023-03-10T14:08:34.570871,6392752,2025,345,492,-988,-649,-284,117,57,-123
24315,7635,0,2023-03-10T14:08:34.575401,6392757,2025,345,492,-988,-649,-284,117,57,-123
24316,7636,0,2023-03-10T14:08:34.580512,6392761,2025,345,492,-988,-649,-284,117,57,-123
24317,7637,0,2023-03-10T14:08:34.584973,6392766,2022,343,492,-1007,-580,-292,117,57,-123
24318,7638,0,2023-03-10T14:08:34.589824,6392771,2022,343,492,-1007,-580,-292,117,57,-123
24319,7639,0,2023-03-10T14:08:34.594353,6392775,2022,343,492,-1007,-580,-292,117,57,-123
24320,7640,0,2023-03-10T14:08:34.599726,6392780,2022,343,492,-1007,-580,-292,117,57,-123
24321,7641,0,2023-03-10T14:08:34.604119,6392785,2064,356,496,-976,-649,-291,118,68,-130
24322,7642,0,2023-03-10T14:08:34.609121,6392790,2064,356,496,-976,-649,-291,118,68,-130
24323,7643,0,2023-03-10T14:08:34.613839,6392795,2064,356,496,-976,-649,-291,118,68,-130
24324,7644,0,2023-03-10T14:08:34.619153,6392800,2064,356,496,-976,-649,-291,118,68,-130
24325,7645,0,2023-03-10T14:08:34.623635,6392805,1993,330,487,-986,-687,-254,118,68,-130
24326,7646,0,2023-03-10T14:08:34.628583,6392809,1993,330,487,-986,-687,-254,118,68,-130
24327,7647,0,2023-03-10T14:08:34.632911,6392814,1993,330,487,-986,-687,-254,118,68,-130
24328,7648,0,2023-03-10T14:08:34.637123,6392818,1993,330,487,-986,-687,-254,118,68,-130
24329,7649,0,2023-03-10T14:08:34.641455,6392822,2037,345,489,-1015,-599,-307,118,68,-130
24330,7650,0,2023-03-10T14:08:34.646873,6392827,2037,345,489,-1015,-599,-307,118,68,-130
24331,7651,0,2023-03-10T14:08:34.651288,6392833,2037,345,489,-1015,-599,-307,118,68,-130
24332,7652,0,2023-03-10T14:08:34.655592,6392837,2037,345,489,-1015,-599,-307,118,68,-130
24333,7653,0,2023-03-10T14:08:34.660341,6392841,2037,345,489,-1015,-599,-307,118,68,-130
24334,7654,0,2023-03-10T14:08:34.664526,6392846,2046,347,495,-984,-609,-296,118,68,-130
24335,7655,0,2023-03-10T14:08:34.669484,6392850,2046,347,495,-984,-609,-296,118,68,-130
24336,7656,0,2023-03-10T14:08:34.674233,6392855,2046,347,495,-984,-609,-296,118,68,-130
24337,7657,0,2023-03-10T14:08:34.678814,6392860,2046,347,495,-984,-609,-296,118,68,-130
24338,7658,0,2023-03-10T14:08:34.683473,6392864,2043,351,480,-996,-628,-294,118,68,-130
24339,7659,0,2023-03-10T14:08:34.688818,6392869,2043,351,480,-996,-628,-294,118,68,-130
24340,7660,0,2023-03-10T14:08:34.693287,6392875,2043,351,480,-996,-628,-294,118,68,-130
24341,7661,0,2023-03-10T14:08:34.698535,6392880,2043,351,480,-996,-628,-294,118,68,-130
24342,7662,0,2023-03-10T14:08:34.703028,6392884,2021,338,495,-959,-619,-262,118,68,-130
24343,7663,0,2023-03-10T14:08:34.708036,6392889,2021,338,495,-959,-619,-262,118,68,-130
24344,7664,0,2023-03-10T14:08:34.712624,6392893,2021,338,495,-959,-619,-262,118,68,-130
24345,7665,0,2023-03-10T14:08:34.717431,6392898,2021,338,495,-959,-619,-262,118,68,-130
24346,7666,0,2023-03-10T14:08:34.721953,6392903,2051,349,499,-1006,-640,-307,118,68,-130
24347,7667,0,2023-03-10T14:08:34.727111,6392908,2051,349,499,-1006,-640,-307,118,68,-130
24348,7668,0,2023-03-10T14:08:34.731630,6392912,2051,349,499,-1006,-640,-307,118,68,-130
24349,7669,0,2023-03-10T14:08:34.736236,6392916,2051,349,499,-1006,-640,-307,118,68,-130
24350,7670,0,2023-03-10T14:08:34.741822,6392922,2007,340,480,-1001,-695,-273,127,67,-135
24351,7671,0,2023-03-10T14:08:34.746859,6392928,2007,340,480,-1001,-695,-273,127,67,-135
24352,7672,0,2023-03-10T14:08:34.751338,6392932,2007,340,480,-1001,-695,-273,127,67,-135
24353,7673,0,2023-03-10T14:08:34.755853,6392937,2007,340,480,-1001,-695,-273,127,67,-135
24354,7674,0,2023-03-10T14:08:34.761001,6392941,2007,340,480,-1001,-695,-273,127,67,-135
24355,7675,0,2023-03-10T14:08:34.765322,6392946,2040,345,499,-986,-594,-291,127,67,-135
24356,7676,0,2023-03-10T14:08:34.770415,6392951,2040,345,499,-986,-594,-291,127,67,-135
24357,7677,0,2023-03-10T14:08:34.775108,6392956,2040,345,499,-986,-594,-291,127,67,-135
24358,7678,0,2023-03-10T14:08:34.780271,6392961,2040,345,499,-986,-594,-291,127,67,-135
24359,7679,0,2023-03-10T14:08:34.784966,6392966,2040,343,492,-1012,-607,-287,127,67,-135
24360,7680,0,2023-03-10T14:08:34.789808,6392971,2040,343,492,-1012,-607,-287,127,67,-135
24361,7681,0,2023-03-10T14:08:34.794337,6392975,2040,343,492,-1012,-607,-287,127,67,-135
24362,7682,0,2023-03-10T14:08:34.799011,6392980,2040,343,492,-1012,-607,-287,127,67,-135
24363,7683,0,2023-03-10T14:08:34.803575,6392984,2002,333,488,-981,-693,-264,127,67,-135
24364,7684,0,2023-03-10T14:08:34.808404,6392989,2002,333,488,-981,-693,-264,127,67,-135
24365,7685,0,2023-03-10T14:08:34.812948,6392993,2002,333,488,-981,-693,-264,127,67,-135
24366,7686,0,2023-03-10T14:08:34.818202,6392998,2002,333,488,-981,-693,-264,127,67,-135
24367,7687,0,2023-03-10T14:08:34.822625,6393004,2064,359,494,-986,-608,-302,127,67,-135
24368,7688,0,2023-03-10T14:08:34.827423,6393009,2064,359,494,-986,-608,-302,127,67,-135
24369,7689,0,2023-03-10T14:08:34.831775,6393013,2064,359,494,-986,-608,-302,127,67,-135
24370,7690,0,2023-03-10T14:08:34.836418,6393017,2064,359,494,-986,-608,-302,127,67,-135
24371,7691,0,2023-03-10T14:08:34.841617,6393022,2015,333,495,-979,-589,-265,127,67,-135
24372,7692,0,2023-03-10T14:08:34.846857,6393027,2015,333,495,-979,-589,-265,127,67,-135
24373,7693,0,2023-03-10T14:08:34.851416,6393032,2015,333,495,-979,-589,-265,127,67,-135
24374,7694,0,2023-03-10T14:08:34.856140,6393037,2015,333,495,-979,-589,-265,127,67,-135
24375,7695,0,2023-03-10T14:08:34.860430,6393041,2015,333,495,-979,-589,-265,127,67,-135
24376,7696,0,2023-03-10T14:08:34.865517,6393047,2045,350,479,-1018,-635,-311,115,69,-113
24377,7697,0,2023-03-10T14:08:34.870649,6393052,2045,350,479,-1018,-635,-311,115,69,-113
24378,7698,0,2023-03-10T14:08:34.875093,6393056,2045,350,479,-1018,-635,-311,115,69,-113
24379,7699,0,2023-03-10T14:08:34.880070,6393061,2045,350,479,-1018,-635,-311,115,69,-113
24380,7700,0,2023-03-10T14:08:34.884411,6393065,2018,327,487,-1005,-627,-271,115,69,-113
24381,7701,0,2023-03-10T14:08:34.889288,6393070,2018,327,487,-1005,-627,-271,115,69,-113
24382,7702,0,2023-03-10T14:08:34.893570,6393074,2018,327,487,-1005,-627,-271,115,69,-113
24383,7703,0,2023-03-10T14:08:34.898451,6393079,2018,327,487,-1005,-627,-271,115,69,-113
24384,7704,0,2023-03-10T14:08:34.903102,6393083,2025,347,486,-994,-632,-297,115,69,-113
24385,7705,0,2023-03-10T14:08:34.907882,6393089,2025,347,486,-994,-632,-297,115,69,-113
24386,7706,0,2023-03-10T14:08:34.912217,6393094,2025,347,486,-994,-632,-297,115,69,-113
24387,7707,0,2023-03-10T14:08:34.917184,6393098,2025,347,486,-994,-632,-297,115,69,-113
24388,7708,0,2023-03-10T14:08:34.921552,6393103,2041,341,484,-1001,-632,-288,115,69,-113
24389,7709,0,2023-03-10T14:08:34.927145,6393108,2041,341,484,-1001,-632,-288,115,69,-113
24390,7710,0,2023-03-10T14:08:34.931552,6393112,2041,341,484,-1001,-632,-288,115,69,-113
24391,7711,0,2023-03-10T14:08:34.936087,6393117,2041,341,484,-1001,-632,-288,115,69,-113
24392,7712,0,2023-03-10T14:08:34.941005,6393122,2037,349,485,-984,-629,-301,115,69,-113
24393,7713,0,2023-03-10T14:08:34.946059,6393127,2037,349,485,-984,-629,-301,115,69,-113
24394,7714,0,2023-03-10T14:08:34.950752,6393132,2037,349,485,-984,-629,-301,115,69,-113
24395,7715,0,2023-03-10T14:08:34.955363,6393137,2037,349,485,-984,-629,-301,115,69,-113
24396,7716,0,2023-03-10T14:08:34.960274,6393141,2037,349,485,-984,-629,-301,115,69,-113
24397,7717,0,2023-03-10T14:08:34.965131,6393146,2015,338,485,-982,-659,-259,115,69,-113
24398,7718,0,2023-03-10T14:08:34.970076,6393151,2015,338,485,-982,-659,-259,115,69,-113
24399,7719,0,2023-03-10T14:08:34.975051,6393156,2015,338,485,-982,-659,-259,115,69,-113
24400,7720,0,2023-03-10T14:08:34.980550,6393161,2015,338,485,-982,-659,-259,115,69,-113
24401,7721,0,2023-03-10T14:08:34.985143,6393166,2035,342,497,-995,-611,-303,115,69,-113
24402,7722,0,2023-03-10T14:08:34.990213,6393171,2035,342,497,-995,-611,-303,115,69,-113
24403,7723,0,2023-03-10T14:08:34.994686,6393176,2035,342,497,-995,-611,-303,115,69,-113
24404,7724,0,2023-03-10T14:08:34.999996,6393181,2035,342,497,-995,-611,-303,115,69,-113
24405,7725,0,2023-03-10T14:08:35.004434,6393185,2022,345,481,-999,-700,-282,120,66,-126
24406,7726,0,2023-03-10T14:08:35.009331,6393190,2022,345,481,-999,-700,-282,120,66,-126
24407,7727,0,2023-03-10T14:08:35.013628,6393195,2022,345,481,-999,-700,-282,120,66,-126
24408,7728,0,2023-03-10T14:08:35.018477,6393199,2022,345,481,-999,-700,-282,120,66,-126
24409,7729,0,2023-03-10T14:08:35.023216,6393204,2042,344,492,-960,-618,-270,120,66,-126
24410,7730,0,2023-03-10T14:08:35.027983,6393208,2042,344,492,-960,-618,-270,120,66,-126
24411,7731,0,2023-03-10T14:08:35.032289,6393213,2042,344,492,-960,-618,-270,120,66,-126
24412,7732,0,2023-03-10T14:08:35.037325,6393218,2042,344,492,-960,-618,-270,120,66,-126
24413,7733,0,2023-03-10T14:08:35.042048,6393223,2017,339,486,-1010,-584,-295,120,66,-126
24414,7734,0,2023-03-10T14:08:35.046510,6393228,2017,339,486,-1010,-584,-295,120,66,-126
24415,7735,0,2023-03-10T14:08:35.051206,6393232,2017,339,486,-1010,-584,-295,120,66,-126
24416,7736,0,2023-03-10T14:08:35.055676,6393237,2017,339,486,-1010,-584,-295,120,66,-126
24417,7737,0,2023-03-10T14:08:35.060212,6393241,2017,339,486,-1010,-584,-295,120,66,-126
24418,7738,0,2023-03-10T14:08:35.064647,6393245,2042,340,486,-993,-693,-289,120,66,-126
24419,7739,0,2023-03-10T14:08:35.069510,6393250,2042,340,486,-993,-693,-289,120,66,-126
24420,7740,0,2023-03-10T14:08:35.074017,6393255,2042,340,486,-993,-693,-289,120,66,-126
24421,7741,0,2023-03-10T14:08:35.079134,6393260,2042,340,486,-993,-693,-289,120,66,-126
24422,7742,0,2023-03-10T14:08:35.083503,6393265,2036,347,477,-985,-643,-293,120,66,-126
24423,7743,0,2023-03-10T14:08:35.088444,6393270,2036,347,477,-985,-643,-293,120,66,-126
24424,7744,0,2023-03-10T14:08:35.093097,6393274,2036,347,477,-985,-643,-293,120,66,-126
24425,7745,0,2023-03-10T14:08:35.098295,6393279,2036,347,477,-985,-643,-293,120,66,-126
24426,7746,0,2023-03-10T14:08:35.102745,6393283,2036,347,477,-985,-643,-293,120,66,-126
24427,7747,0,2023-03-10T14:08:35.107310,6393288,2036,347,477,-985,-643,-293,120,66,-126
24428,7748,0,2023-03-10T14:08:35.111906,6393292,2036,347,477,-985,-643,-293,120,66,-126
24429,7749,0,2023-03-10T14:08:35.116583,6393297,2036,347,477,-985,-643,-293,120,66,-126
24430,7750,0,2023-03-10T14:08:35.121908,6393303,2047,344,490,-994,-612,-309,116,68,-122
24431,7751,0,2023-03-10T14:08:35.127295,6393308,2047,344,490,-994,-612,-309,116,68,-122
24432,7752,0,2023-03-10T14:08:35.131558,6393313,2047,344,490,-994,-612,-309,116,68,-122
24433,7753,0,2023-03-10T14:08:35.136168,6393317,2047,344,490,-994,-612,-309,116,68,-122
24434,7754,0,2023-03-10T14:08:35.140801,6393321,2047,344,490,-994,-612,-309,116,68,-122
24435,7755,0,2023-03-10T14:08:35.145203,6393326,2014,343,488,-983,-650,-269,116,68,-122
24436,7756,0,2023-03-10T14:08:35.150090,6393331,2014,343,488,-983,-650,-269,116,68,-122
24437,7757,0,2023-03-10T14:08:35.154709,6393335,2014,343,488,-983,-650,-269,116,68,-122
24438,7758,0,2023-03-10T14:08:35.159769,6393340,2014,343,488,-983,-650,-269,116,68,-122
24439,7759,0,2023-03-10T14:08:35.165199,6393346,2052,355,484,-993,-623,-301,116,68,-122
24440,7760,0,2023-03-10T14:08:35.169961,6393351,2052,355,484,-993,-623,-301,116,68,-122
24441,7761,0,2023-03-10T14:08:35.174507,6393356,2052,355,484,-993,-623,-301,116,68,-122
24442,7762,0,2023-03-10T14:08:35.178957,6393360,2052,355,484,-993,-623,-301,116,68,-122
24443,7763,0,2023-03-10T14:08:35.183421,6393364,2036,343,481,-993,-629,-277,116,68,-122
24444,7764,0,2023-03-10T14:08:35.188290,6393369,2036,343,481,-993,-629,-277,116,68,-122
24445,7765,0,2023-03-10T14:08:35.192723,6393373,2036,343,481,-993,-629,-277,116,68,-122
24446,7766,0,2023-03-10T14:08:35.197908,6393378,2036,343,481,-993,-629,-277,116,68,-122
24447,7767,0,2023-03-10T14:08:35.202361,6393383,2014,337,480,-989,-633,-277,116,68,-122
24448,7768,0,2023-03-10T14:08:35.207649,6393389,2014,337,480,-989,-633,-277,116,68,-122
24449,7769,0,2023-03-10T14:08:35.211997,6393393,2014,337,480,-989,-633,-277,116,68,-122
24450,7770,0,2023-03-10T14:08:35.216649,6393398,2014,337,480,-989,-633,-277,116,68,-122
24451,7771,0,2023-03-10T14:08:35.221707,6393403,2048,354,478,-994,-612,-304,116,68,-122
24452,7772,0,2023-03-10T14:08:35.226775,6393408,2048,354,478,-994,-612,-304,116,68,-122
24453,7773,0,2023-03-10T14:08:35.231415,6393412,2048,354,478,-994,-612,-304,116,68,-122
24454,7774,0,2023-03-10T14:08:35.236283,6393417,2048,354,478,-994,-612,-304,116,68,-122
24455,7775,0,2023-03-10T14:08:35.241279,6393422,2048,354,478,-994,-612,-304,116,68,-122
24456,7776,0,2023-03-10T14:08:35.245631,6393426,2039,344,486,-981,-656,-263,116,68,-122
24457,7777,0,2023-03-10T14:08:35.250477,6393432,2039,344,486,-981,-656,-263,116,68,-122
24458,7778,0,2023-03-10T14:08:35.255024,6393436,2039,344,486,-981,-656,-263,116,68,-122
24459,7779,0,2023-03-10T14:08:35.260254,6393441,2039,344,486,-981,-656,-263,116,68,-122
24460,7780,0,2023-03-10T14:08:35.264876,6393446,2027,342,490,-992,-621,-283,121,57,-121
24461,7781,0,2023-03-10T14:08:35.269908,6393451,2027,342,490,-992,-621,-283,121,57,-121
24462,7782,0,2023-03-10T14:08:35.275237,6393455,2027,342,490,-992,-621,-283,121,57,-121
24463,7783,0,2023-03-10T14:08:35.280362,6393461,2027,342,490,-992,-621,-283,121,57,-121
24464,7784,0,2023-03-10T14:08:35.285048,6393465,2059,348,486,-1012,-648,-301,121,57,-121
24465,7785,0,2023-03-10T14:08:35.290042,6393470,2059,348,486,-1012,-648,-301,121,57,-121
24466,7786,0,2023-03-10T14:08:35.294576,6393476,2059,348,486,-1012,-648,-301,121,57,-121
24467,7787,0,2023-03-10T14:08:35.299712,6393481,2059,348,486,-1012,-648,-301,121,57,-121
24468,7788,0,2023-03-10T14:08:35.304216,6393485,2015,334,474,-975,-675,-268,121,57,-121
24469,7789,0,2023-03-10T14:08:35.309066,6393490,2015,334,474,-975,-675,-268,121,57,-121
24470,7790,0,2023-03-10T14:08:35.313525,6393494,2015,334,474,-975,-675,-268,121,57,-121
24471,7791,0,2023-03-10T14:08:35.318398,6393499,2015,334,474,-975,-675,-268,121,57,-121
24472,7792,0,2023-03-10T14:08:35.322899,6393504,2036,345,484,-996,-581,-297,121,57,-121
24473,7793,0,2023-03-10T14:08:35.327732,6393508,2036,345,484,-996,-581,-297,121,57,-121
24474,7794,0,2023-03-10T14:08:35.332250,6393513,2036,345,484,-996,-581,-297,121,57,-121
24475,7795,0,2023-03-10T14:08:35.336672,6393518,2036,345,484,-996,-581,-297,121,57,-121
24476,7796,0,2023-03-10T14:08:35.341051,6393522,2036,345,484,-996,-581,-297,121,57,-121
24477,7797,0,2023-03-10T14:08:35.345369,6393527,2042,334,479,-1003,-600,-302,121,57,-121
24478,7798,0,2023-03-10T14:08:35.349573,6393531,2042,334,479,-1003,-600,-302,121,57,-121
24479,7799,0,2023-03-10T14:08:35.354411,6393535,2042,334,479,-1003,-600,-302,121,57,-121
24480,7800,0,2023-03-10T14:08:35.359218,6393540,2042,334,479,-1003,-600,-302,121,57,-121
24481,7801,0,2023-03-10T14:08:35.363606,6393544,2009,337,478,-989,-686,-278,121,57,-121
24482,7802,0,2023-03-10T14:08:35.368569,6393549,2009,337,478,-989,-686,-278,121,57,-121
24483,7803,0,2023-03-10T14:08:35.373096,6393553,2009,337,478,-989,-686,-278,121,57,-121
24484,7804,0,2023-03-10T14:08:35.378233,6393560,2009,337,478,-989,-686,-278,121,57,-121
24485,7805,0,2023-03-10T14:08:35.382639,6393564,2055,348,498,-969,-621,-284,126,66,-120
24486,7806,0,2023-03-10T14:08:35.387383,6393569,2055,348,498,-969,-621,-284,126,66,-120
24487,7807,0,2023-03-10T14:08:35.392042,6393573,2055,348,498,-969,-621,-284,126,66,-120
24488,7808,0,2023-03-10T14:08:35.396725,6393578,2055,348,498,-969,-621,-284,126,66,-120
24489,7809,0,2023-03-10T14:08:35.401639,6393582,2022,340,491,-996,-591,-290,126,66,-120
24490,7810,0,2023-03-10T14:08:35.406982,6393588,2022,340,491,-996,-591,-290,126,66,-120
24491,7811,0,2023-03-10T14:08:35.411385,6393592,2022,340,491,-996,-591,-290,126,66,-120
24492,7812,0,2023-03-10T14:08:35.415690,6393596,2022,340,491,-996,-591,-290,126,66,-120
24493,7813,0,2023-03-10T14:08:35.420609,6393602,2022,340,491,-996,-591,-290,126,66,-120
24494,7814,0,2023-03-10T14:08:35.425815,6393607,2047,344,466,-1022,-646,-295,126,66,-120
24495,7815,0,2023-03-10T14:08:35.431143,6393612,2047,344,466,-1022,-646,-295,126,66,-120
24496,7816,0,2023-03-10T14:08:35.435569,6393617,2047,344,466,-1022,-646,-295,126,66,-120
24497,7817,0,2023-03-10T14:08:35.440049,6393621,2047,344,466,-1022,-646,-295,126,66,-120
24498,7818,0,2023-03-10T14:08:35.444391,6393625,2020,333,479,-994,-636,-287,126,66,-120
24499,7819,0,2023-03-10T14:08:35.449301,6393630,2020,333,479,-994,-636,-287,126,66,-120
24500,7820,0,2023-03-10T14:08:35.453889,6393634,2020,333,479,-994,-636,-287,126,66,-120
24501,7821,0,2023-03-10T14:08:35.459054,6393639,2020,333,479,-994,-636,-287,126,66,-120
24502,7822,0,2023-03-10T14:08:35.463560,6393645,2033,344,476,-997,-627,-291,126,66,-120
24503,7823,0,2023-03-10T14:08:35.468715,6393650,2033,344,476,-997,-627,-291,126,66,-120
24504,7824,0,2023-03-10T14:08:35.473139,6393654,2033,344,476,-997,-627,-291,126,66,-120
24505,7825,0,2023-03-10T14:08:35.478010,6393659,2033,344,476,-997,-627,-291,126,66,-120
24506,7826,0,2023-03-10T14:08:35.482563,6393663,2050,350,480,-1003,-628,-305,126,66,-120
24507,7827,0,2023-03-10T14:08:35.487672,6393668,2050,350,480,-1003,-628,-305,126,66,-120
24508,7828,0,2023-03-10T14:08:35.492022,6393673,2050,350,480,-1003,-628,-305,126,66,-120
24509,7829,0,2023-03-10T14:08:35.496356,6393677,2050,350,480,-1003,-628,-305,126,66,-120
24510,7830,0,2023-03-10T14:08:35.501460,6393682,2050,350,480,-1003,-628,-305,126,66,-120
24511,7831,0,2023-03-10T14:08:35.505956,6393687,2035,342,477,-996,-621,-278,122,58,-122
24512,7832,0,2023-03-10T14:08:35.510774,6393692,2035,342,477,-996,-621,-278,122,58,-122
24513,7833,0,2023-03-10T14:08:35.515183,6393696,2035,342,477,-996,-621,-278,122,58,-122
24514,7834,0,2023-03-10T14:08:35.519469,6393700,2035,342,477,-996,-621,-278,122,58,-122
24515,7835,0,2023-03-10T14:08:35.524473,6393705,2017,332,486,-975,-636,-263,122,58,-122
24516,7836,0,2023-03-10T14:08:35.529536,6393710,2017,332,486,-975,-636,-263,122,58,-122
24517,7837,0,2023-03-10T14:08:35.533951,6393715,2017,332,486,-975,-636,-263,122,58,-122
24518,7838,0,2023-03-10T14:08:35.539057,6393720,2017,332,486,-975,-636,-263,122,58,-122
24519,7839,0,2023-03-10T14:08:35.543331,6393724,2046,345,481,-1012,-624,-302,122,58,-122
24520,7840,0,2023-03-10T14:08:35.548322,6393730,2046,345,481,-1012,-624,-302,122,58,-122
24521,7841,0,2023-03-10T14:08:35.552577,6393734,2046,345,481,-1012,-624,-302,122,58,-122
24522,7842,0,2023-03-10T14:08:35.557193,6393738,2046,345,481,-1012,-624,-302,122,58,-122
24523,7843,0,2023-03-10T14:08:35.561817,6393743,2046,345,481,-1012,-624,-302,122,58,-122
24524,7844,0,2023-03-10T14:08:35.566626,6393748,2054,347,464,-1005,-669,-293,122,58,-122
24525,7845,0,2023-03-10T14:08:35.571323,6393752,2054,347,464,-1005,-669,-293,122,58,-122
24526,7846,0,2023-03-10T14:08:35.575727,6393756,2054,347,464,-1005,-669,-293,122,58,-122
24527,7847,0,2023-03-10T14:08:35.580734,6393761,2054,347,464,-1005,-669,-293,122,58,-122
24528,7848,0,2023-03-10T14:08:35.585125,6393766,2030,340,484,-956,-617,-254,122,58,-122
24529,7849,0,2023-03-10T14:08:35.590287,6393772,2030,340,484,-956,-617,-254,122,58,-122
24530,7850,0,2023-03-10T14:08:35.594820,6393776,2030,340,484,-956,-617,-254,122,58,-122
24531,7851,0,2023-03-10T14:08:35.599199,6393780,2030,340,484,-956,-617,-254,122,58,-122
24532,7852,0,2023-03-10T14:08:35.603666,6393785,2055,345,474,-1003,-641,-303,122,58,-122
24533,7853,0,2023-03-10T14:08:35.608599,6393790,2055,345,474,-1003,-641,-303,122,58,-122
24534,7854,0,2023-03-10T14:08:35.613032,6393794,2055,345,474,-1003,-641,-303,122,58,-122
24535,7855,0,2023-03-10T14:08:35.617884,6393799,2055,345,474,-1003,-641,-303,122,58,-122
24536,7856,0,2023-03-10T14:08:35.622672,6393803,2014,341,461,-1009,-684,-295,122,58,-122
24537,7857,0,2023-03-10T14:08:35.628231,6393809,2014,341,461,-1009,-684,-295,122,58,-122
24538,7858,0,2023-03-10T14:08:35.632686,6393814,2014,341,461,-1009,-684,-295,122,58,-122
24539,7859,0,2023-03-10T14:08:35.637884,6393819,2014,341,461,-1009,-684,-295,122,58,-122
24540,7860,0,2023-03-10T14:08:35.642382,6393824,2038,342,479,-1002,-593,-296,126,56,-124
24541,7861,0,2023-03-10T14:08:35.647306,6393828,2038,342,479,-1002,-593,-296,126,56,-124
24542,7862,0,2023-03-10T14:08:35.651944,6393833,2038,342,479,-1002,-593,-296,126,56,-124
24543,7863,0,2023-03-10T14:08:35.656576,6393837,2038,342,479,-1002,-593,-296,126,56,-124
24544,7864,0,2023-03-10T14:08:35.661440,6393842,2038,342,479,-1002,-593,-296,126,56,-124
24545,7865,0,2023-03-10T14:08:35.665928,6393847,2036,347,485,-1006,-578,-314,126,56,-124
24546,7866,0,2023-03-10T14:08:35.671127,6393852,2036,347,485,-1006,-578,-314,126,56,-124
24547,7867,0,2023-03-10T14:08:35.675502,6393857,2036,347,485,-1006,-578,-314,126,56,-124
24548,7868,0,2023-03-10T14:08:35.680576,6393862,2036,347,485,-1006,-578,-314,126,56,-124
24549,7869,0,2023-03-10T14:08:35.685081,6393866,2012,330,477,-979,-703,-270,126,56,-124
24550,7870,0,2023-03-10T14:08:35.689834,6393871,2012,330,477,-979,-703,-270,126,56,-124
24551,7871,0,2023-03-10T14:08:35.694227,6393875,2012,330,477,-979,-703,-270,126,56,-124
24552,7872,0,2023-03-10T14:08:35.698748,6393879,2012,330,477,-979,-703,-270,126,56,-124
24553,7873,0,2023-03-10T14:08:35.703078,6393884,2064,356,481,-1000,-625,-310,126,56,-124
24554,7874,0,2023-03-10T14:08:35.708083,6393889,2064,356,481,-1000,-625,-310,126,56,-124
24555,7875,0,2023-03-10T14:08:35.712808,6393893,2064,356,481,-1000,-625,-310,126,56,-124
24556,7876,0,2023-03-10T14:08:35.717773,6393899,2064,356,481,-1000,-625,-310,126,56,-124
24557,7877,0,2023-03-10T14:08:35.722164,6393903,2022,338,473,-1003,-613,-274,126,56,-124
24558,7878,0,2023-03-10T14:08:35.727076,6393908,2022,338,473,-1003,-613,-274,126,56,-124
24559,7879,0,2023-03-10T14:08:35.731625,6393913,2022,338,473,-1003,-613,-274,126,56,-124
24560,7880,0,2023-03-10T14:08:35.736218,6393917,2022,338,473,-1003,-613,-274,126,56,-124
24561,7881,0,2023-03-10T14:08:35.741050,6393922,2022,338,473,-1003,-613,-274,126,56,-124
24562,7882,0,2023-03-10T14:08:35.745502,6393926,2043,340,478,-995,-620,-304,126,56,-124
24563,7883,0,2023-03-10T14:08:35.750724,6393931,2043,340,478,-995,-620,-304,126,56,-124
24564,7884,0,2023-03-10T14:08:35.755277,6393936,2043,340,478,-995,-620,-304,126,56,-124
24565,7885,0,2023-03-10T14:08:35.760185,6393942,2043,340,478,-995,-620,-304,126,56,-124
24566,7886,0,2023-03-10T14:08:35.764541,6393946,2017,334,469,-980,-687,-272,128,66,-126
24567,7887,0,2023-03-10T14:08:35.769327,6393951,2017,334,469,-980,-687,-272,128,66,-126
24568,7888,0,2023-03-10T14:08:35.773798,6393955,2017,334,469,-980,-687,-272,128,66,-126
24569,7889,0,2023-03-10T14:08:35.778703,6393960,2017,334,469,-980,-687,-272,128,66,-126
24570,7890,0,2023-03-10T14:08:35.783166,6393964,2053,351,482,-996,-604,-309,128,66,-126
24571,7891,0,2023-03-10T14:08:35.788537,6393969,2053,351,482,-996,-604,-309,128,66,-126
24572,7892,0,2023-03-10T14:08:35.793189,6393974,2053,351,482,-996,-604,-309,128,66,-126
24573,7893,0,2023-03-10T14:08:35.798044,6393979,2053,351,482,-996,-604,-309,128,66,-126
24574,7894,0,2023-03-10T14:08:35.803324,6393985,2048,348,476,-999,-624,-290,128,66,-126
24575,7895,0,2023-03-10T14:08:35.808308,6393990,2048,348,476,-999,-624,-290,128,66,-126
24576,7896,0,2023-03-10T14:08:35.812680,6393994,2048,348,476,-999,-624,-290,128,66,-126
24577,7897,0,2023-03-10T14:08:35.817211,6393998,2048,348,476,-999,-624,-290,128,66,-126
24578,7898,0,2023-03-10T14:08:35.821834,6394003,2048,348,476,-999,-624,-290,128,66,-126
24579,7899,0,2023-03-10T14:08:35.827195,6394008,2025,335,475,-968,-630,-268,128,66,-126
24580,7900,0,2023-03-10T14:08:35.831970,6394013,2025,335,475,-968,-630,-268,128,66,-126
24581,7901,0,2023-03-10T14:08:35.836328,6394017,2025,335,475,-968,-630,-268,128,66,-126
24582,7902,0,2023-03-10T14:08:35.841065,6394022,2025,335,475,-968,-630,-268,128,66,-126
24583,7903,0,2023-03-10T14:08:35.845412,6394027,2063,349,473,-1024,-647,-315,128,66,-126
24584,7904,0,2023-03-10T14:08:35.850632,6394032,2063,349,473,-1024,-647,-315,128,66,-126
24585,7905,0,2023-03-10T14:08:35.855210,6394036,2063,349,473,-1024,-647,-315,128,66,-126
24586,7906,0,2023-03-10T14:08:35.860319,6394041,2063,349,473,-1024,-647,-315,128,66,-126
24587,7907,0,2023-03-10T14:08:35.864788,6394046,2010,339,455,-1011,-699,-280,128,66,-126
24588,7908,0,2023-03-10T14:08:35.869717,6394051,2010,339,455,-1011,-699,-280,128,66,-126
24589,7909,0,2023-03-10T14:08:35.874197,6394055,2010,339,455,-1011,-699,-280,128,66,-126
24590,7910,0,2023-03-10T14:08:35.879297,6394060,2010,339,455,-1011,-699,-280,128,66,-126
24591,7911,0,2023-03-10T14:08:35.883634,6394064,2054,342,477,-997,-591,-295,128,66,-126
24592,7912,0,2023-03-10T14:08:35.889226,6394071,2054,342,477,-997,-591,-295,128,66,-126
24593,7913,0,2023-03-10T14:08:35.893557,6394075,2054,342,477,-997,-591,-295,128,66,-126
24594,7914,0,2023-03-10T14:08:35.898027,6394079,2054,342,477,-997,-591,-295,128,66,-126
24595,7915,0,2023-03-10T14:08:35.902424,6394084,2037,342,476,-1007,-588,-316,128,66,-126
24596,7916,0,2023-03-10T14:08:35.907192,6394088,2037,342,476,-1007,-588,-316,113,53,-125
24597,7917,0,2023-03-10T14:08:35.911615,6394093,2037,342,476,-1007,-588,-316,113,53,-125
24598,7918,0,2023-03-10T14:08:35.916212,6394097,2037,342,476,-1007,-588,-316,113,53,-125
24599,7919,0,2023-03-10T14:08:35.921124,6394102,2037,342,476,-1007,-588,-316,113,53,-125
24600,7920,0,2023-03-10T14:08:35.925482,6394106,2015,331,476,-989,-688,-272,113,53,-125
24601,7921,0,2023-03-10T14:08:35.930367,6394112,2015,331,476,-989,-688,-272,113,53,-125
24602,7922,0,2023-03-10T14:08:35.934951,6394116,2015,331,476,-989,-688,-272,113,53,-125
24603,7923,0,2023-03-10T14:08:35.940037,6394121,2015,331,476,-989,-688,-272,113,53,-125
24604,7924,0,2023-03-10T14:08:35.944655,6394126,2066,355,480,-1012,-620,-317,113,53,-125
24605,7925,0,2023-03-10T14:08:35.949433,6394130,2066,355,480,-1012,-620,-317,113,53,-125
24606,7926,0,2023-03-10T14:08:35.954058,6394135,2066,355,480,-1012,-620,-317,113,53,-125
24607,7927,0,2023-03-10T14:08:35.958928,6394140,2066,355,480,-1012,-620,-317,113,53,-125
24608,7928,0,2023-03-10T14:08:35.963590,6394144,2019,330,473,-1006,-598,-277,113,53,-125
24609,7929,0,2023-03-10T14:08:35.968283,6394149,2019,330,473,-1006,-598,-277,113,53,-125
24610,7930,0,2023-03-10T14:08:35.972723,6394153,2019,330,473,-1006,-598,-277,113,53,-125
24611,7931,0,2023-03-10T14:08:35.977905,6394159,2019,330,473,-1006,-598,-277,113,53,-125
24612,7932,0,2023-03-10T14:08:35.982271,6394164,2019,330,473,-1006,-598,-277,113,53,-125
24613,7933,0,2023-03-10T14:08:35.986882,6394168,2050,348,462,-1002,-613,-308,113,53,-125
24614,7934,0,2023-03-10T14:08:35.992086,6394173,2050,348,462,-1002,-613,-308,113,53,-125
24615,7935,0,2023-03-10T14:08:35.996732,6394177,2050,348,462,-1002,-613,-308,113,53,-125
24616,7936,0,2023-03-10T14:08:36.001849,6394183,2050,348,462,-1002,-613,-308,113,53,-125
24617,7937,0,2023-03-10T14:08:36.007196,6394188,2024,336,472,-961,-643,-260,113,53,-125
24618,7938,0,2023-03-10T14:08:36.012522,6394193,2024,336,472,-961,-643,-260,113,53,-125
24619,7939,0,2023-03-10T14:08:36.016854,6394198,2024,336,472,-961,-643,-260,113,53,-125
24620,7940,0,2023-03-10T14:08:36.022000,6394203,2024,336,472,-961,-643,-260,113,53,-125
24621,7941,0,2023-03-10T14:08:36.026455,6394208,2042,341,485,-991,-609,-302,116,64,-126
24622,7942,0,2023-03-10T14:08:36.031538,6394212,2042,341,485,-991,-609,-302,116,64,-126
24623,7943,0,2023-03-10T14:08:36.036570,6394217,2042,341,485,-991,-609,-302,116,64,-126
24624,7944,0,2023-03-10T14:08:36.041765,6394223,2042,341,485,-991,-609,-302,116,64,-126
24625,7945,0,2023-03-10T14:08:36.046231,6394227,2023,339,469,-1007,-714,-287,116,64,-126
24626,7946,0,2023-03-10T14:08:36.050972,6394232,2023,339,469,-1007,-714,-287,116,64,-126
24627,7947,0,2023-03-10T14:08:36.055883,6394236,2023,339,469,-1007,-714,-287,116,64,-126
24628,7948,0,2023-03-10T14:08:36.060888,6394242,2023,339,469,-1007,-714,-287,116,64,-126
24629,7949,0,2023-03-10T14:08:36.065299,6394247,2060,346,467,-987,-623,-294,116,64,-126
24630,7950,0,2023-03-10T14:08:36.070396,6394252,2060,346,467,-987,-623,-294,116,64,-126
24631,7951,0,2023-03-10T14:08:36.075083,6394256,2060,346,467,-987,-623,-294,116,64,-126
24632,7952,0,2023-03-10T14:08:36.080274,6394261,2060,346,467,-987,-623,-294,116,64,-126
24633,7953,0,2023-03-10T14:08:36.085560,6394266,2016,334,482,-994,-575,-276,116,64,-126
24634,7954,0,2023-03-10T14:08:36.090511,6394271,2016,334,482,-994,-575,-276,116,64,-126
24635,7955,0,2023-03-10T14:08:36.094861,6394275,2016,334,482,-994,-575,-276,116,64,-126
24636,7956,0,2023-03-10T14:08:36.099614,6394280,2016,334,482,-994,-575,-276,116,64,-126
24637,7957,0,2023-03-10T14:08:36.104036,6394285,2050,343,473,-1013,-673,-315,116,64,-126
24638,7958,0,2023-03-10T14:08:36.108765,6394290,2050,343,473,-1013,-673,-315,116,64,-126
24639,7959,0,2023-03-10T14:08:36.113335,6394295,2050,343,473,-1013,-673,-315,116,64,-126
24640,7960,0,2023-03-10T14:08:36.117768,6394299,2050,343,473,-1013,-673,-315,116,64,-126
24641,7961,0,2023-03-10T14:08:36.122063,6394303,2050,343,473,-1013,-673,-315,116,64,-126
24642,7962,0,2023-03-10T14:08:36.126403,6394307,2045,343,465,-1016,-638,-297,116,64,-126
24643,7963,0,2023-03-10T14:08:36.131340,6394312,2045,343,465,-1016,-638,-297,116,64,-126
24644,7964,0,2023-03-10T14:08:36.136454,6394317,2045,343,465,-1016,-638,-297,116,64,-126
24645,7965,0,2023-03-10T14:08:36.141805,6394322,2045,343,465,-1016,-638,-297,116,64,-126
24646,7966,0,2023-03-10T14:08:36.146218,6394328,2026,332,466,-1005,-602,-294,116,64,-126
24647,7967,0,2023-03-10T14:08:36.150859,6394332,2026,332,466,-1005,-602,-294,116,64,-126
24648,7968,0,2023-03-10T14:08:36.155201,6394336,2026,332,466,-1005,-602,-294,116,64,-126
24649,7969,0,2023-03-10T14:08:36.160263,6394341,2026,332,466,-1005,-602,-294,116,64,-126
24650,7970,0,2023-03-10T14:08:36.164730,6394346,2041,338,477,-988,-621,-283,119,59,-125
24651,7971,0,2023-03-10T14:08:36.169461,6394350,2041,338,477,-988,-621,-283,119,59,-125
24652,7972,0,2023-03-10T14:08:36.173883,6394355,2041,338,477,-988,-621,-283,119,59,-125
24653,7973,0,2023-03-10T14:08:36.179281,6394359,2041,338,477,-988,-621,-283,119,59,-125
24654,7974,0,2023-03-10T14:08:36.183642,6394364,2035,341,489,-978,-629,-281,119,59,-125
24655,7975,0,2023-03-10T14:08:36.188091,6394370,2035,341,489,-978,-629,-281,119,59,-125
24656,7976,0,2023-03-10T14:08:36.192613,6394374,2035,341,489,-978,-629,-281,119,59,-125
24657,7977,0,2023-03-10T14:08:36.197261,6394378,2035,341,489,-978,-629,-281,119,59,-125
24658,7978,0,2023-03-10T14:08:36.202097,6394383,2035,341,489,-978,-629,-281,119,59,-125
24659,7979,0,2023-03-10T14:08:36.206963,6394388,2062,349,469,-1016,-644,-313,119,59,-125
24660,7980,0,2023-03-10T14:08:36.211196,6394392,2062,349,469,-1016,-644,-313,119,59,-125
24661,7981,0,2023-03-10T14:08:36.215584,6394396,2062,349,469,-1016,-644,-313,119,59,-125
24662,7982,0,2023-03-10T14:08:36.220278,6394401,2062,349,469,-1016,-644,-313,119,59,-125
24663,7983,0,2023-03-10T14:08:36.224764,6394405,2034,336,467,-1001,-637,-277,119,59,-125
24664,7984,0,2023-03-10T14:08:36.229694,6394411,2034,336,467,-1001,-637,-277,119,59,-125
24665,7985,0,2023-03-10T14:08:36.234221,6394415,2034,336,467,-1001,-637,-277,119,59,-125
24666,7986,0,2023-03-10T14:08:36.239245,6394421,2034,336,467,-1001,-637,-277,119,59,-125
24667,7987,0,2023-03-10T14:08:36.244225,6394425,2060,352,469,-998,-641,-313,119,59,-125
24668,7988,0,2023-03-10T14:08:36.249563,6394431,2060,352,469,-998,-641,-313,119,59,-125
24669,7989,0,2023-03-10T14:08:36.254078,6394435,2060,352,469,-998,-641,-313,119,59,-125
24670,7990,0,2023-03-10T14:08:36.259354,6394440,2060,352,469,-998,-641,-313,119,59,-125
24671,7991,0,2023-03-10T14:08:36.263646,6394444,2018,333,459,-987,-680,-262,119,59,-125
24672,7992,0,2023-03-10T14:08:36.268167,6394448,2018,333,459,-987,-680,-262,119,59,-125
24673,7993,0,2023-03-10T14:08:36.272570,6394454,2018,333,459,-987,-680,-262,119,59,-125
24674,7994,0,2023-03-10T14:08:36.277085,6394458,2018,333,459,-987,-680,-262,119,59,-125
24675,7995,0,2023-03-10T14:08:36.282244,6394463,2018,333,459,-987,-680,-262,119,59,-125
24676,7996,0,2023-03-10T14:08:36.286614,6394468,2053,347,475,-993,-588,-301,113,65,-127
24677,7997,0,2023-03-10T14:08:36.291456,6394472,2053,347,475,-993,-588,-301,113,65,-127
24678,7998,0,2023-03-10T14:08:36.296066,6394477,2053,347,475,-993,-588,-301,113,65,-127
24679,7999,0,2023-03-10T14:08:36.300972,6394482,2053,347,475,-993,-588,-301,113,65,-127
24680,8000,0,2023-03-10T14:08:36.306046,6394487,2053,347,475,-993,-588,-301,113,65,-127
24681,8001,0,2023-03-10T14:08:36.310591,6394491,2053,347,475,-993,-588,-301,113,65,-127
24682,8002,0,2023-03-10T14:08:36.315462,6394497,2053,347,475,-993,-588,-301,113,65,-127
24683,8003,0,2023-03-10T14:08:36.320610,6394502,2053,347,475,-993,-588,-301,113,65,-127
24684,8004,0,2023-03-10T14:08:36.324947,6394506,2020,330,472,-987,-694,-281,113,65,-127
24685,8005,0,2023-03-10T14:08:36.330720,6394511,2020,330,472,-987,-694,-281,113,65,-127
24686,8006,0,2023-03-10T14:08:36.335210,6394516,2020,330,472,-987,-694,-281,113,65,-127
24687,8007,0,2023-03-10T14:08:36.340279,6394521,2020,330,472,-987,-694,-281,113,65,-127
24688,8008,0,2023-03-10T14:08:36.344954,6394525,2066,349,470,-1008,-617,-313,113,65,-127
24689,8009,0,2023-03-10T14:08:36.349975,6394531,2066,349,470,-1008,-617,-313,113,65,-127
24690,8010,0,2023-03-10T14:08:36.354446,6394535,2066,349,470,-1008,-617,-313,113,65,-127
24691,8011,0,2023-03-10T14:08:36.359483,6394541,2066,349,470,-1008,-617,-313,113,65,-127
24692,8012,0,2023-03-10T14:08:36.363838,6394545,2018,326,475,-994,-598,-280,113,65,-127
24693,8013,0,2023-03-10T14:08:36.367953,6394549,2018,326,475,-994,-598,-280,113,65,-127
24694,8014,0,2023-03-10T14:08:36.372376,6394554,2018,326,475,-994,-598,-280,113,65,-127
24695,8015,0,2023-03-10T14:08:36.376968,6394558,2018,326,475,-994,-598,-280,113,65,-127
24696,8016,0,2023-03-10T14:08:36.382118,6394563,2018,326,475,-994,-598,-280,113,65,-127
24697,8017,0,2023-03-10T14:08:36.386642,6394567,2059,347,463,-1014,-631,-310,113,65,-127
24698,8018,0,2023-03-10T14:08:36.391489,6394572,2059,347,463,-1014,-631,-310,113,65,-127
24699,8019,0,2023-03-10T14:08:36.396107,6394577,2059,347,463,-1014,-631,-310,113,65,-127
24700,8020,0,2023-03-10T14:08:36.401127,6394583,2059,347,463,-1014,-631,-310,113,65,-127
24701,8021,0,2023-03-10T14:08:36.405466,6394587,2020,326,470,-1001,-627,-267,117,61,-123
24702,8022,0,2023-03-10T14:08:36.410288,6394592,2020,326,470,-1001,-627,-267,117,61,-123
24703,8023,0,2023-03-10T14:08:36.414776,6394596,2020,326,470,-1001,-627,-267,117,61,-123
24704,8024,0,2023-03-10T14:08:36.419617,6394601,2020,326,470,-1001,-627,-267,117,61,-123
24705,8025,0,2023-03-10T14:08:36.424149,6394605,2037,343,472,-1006,-641,-307,117,61,-123
24706,8026,0,2023-03-10T14:08:36.429159,6394610,2037,343,472,-1006,-641,-307,117,61,-123
24707,8027,0,2023-03-10T14:08:36.433955,6394614,2037,343,472,-1006,-641,-307,117,61,-123
24708,8028,0,2023-03-10T14:08:36.439003,6394620,2037,343,472,-1006,-641,-307,117,61,-123
24709,8029,0,2023-03-10T14:08:36.443518,6394625,2050,337,472,-1017,-629,-284,117,61,-123
24710,8030,0,2023-03-10T14:08:36.447832,6394629,2050,337,472,-1017,-629,-284,117,61,-123
24711,8031,0,2023-03-10T14:08:36.452220,6394633,2050,337,472,-1017,-629,-284,117,61,-123
24712,8032,0,2023-03-10T14:08:36.456816,6394638,2050,337,472,-1017,-629,-284,117,61,-123
24713,8033,0,2023-03-10T14:08:36.462400,6394643,2050,337,472,-1017,-629,-284,117,61,-123
24714,8034,0,2023-03-10T14:08:36.467105,6394648,2040,337,471,-999,-640,-295,117,61,-123
24715,8035,0,2023-03-10T14:08:36.472097,6394653,2040,337,471,-999,-640,-295,117,61,-123
24716,8036,0,2023-03-10T14:08:36.476459,6394657,2040,337,471,-999,-640,-295,117,61,-123
24717,8037,0,2023-03-10T14:08:36.481184,6394661,2040,337,471,-999,-640,-295,117,61,-123
24718,8038,0,2023-03-10T14:08:36.485538,6394667,2030,327,461,-1015,-622,-286,117,61,-123
24719,8039,0,2023-03-10T14:08:36.490434,6394672,2030,327,461,-1015,-622,-286,117,61,-123
24720,8040,0,2023-03-10T14:08:36.495065,6394676,2030,327,461,-1015,-622,-286,117,61,-123
24721,8041,0,2023-03-10T14:08:36.499830,6394681,2030,327,461,-1015,-622,-286,117,61,-123
24722,8042,0,2023-03-10T14:08:36.504217,6394685,2030,335,468,-1002,-644,-297,117,61,-123
24723,8043,0,2023-03-10T14:08:36.509382,6394690,2030,335,468,-1002,-644,-297,117,61,-123
24724,8044,0,2023-03-10T14:08:36.513849,6394695,2030,335,468,-1002,-644,-297,117,61,-123
24725,8045,0,2023-03-10T14:08:36.519208,6394700,2030,335,468,-1002,-644,-297,117,61,-123
24726,8046,0,2023-03-10T14:08:36.523843,6394704,2052,346,462,-1010,-630,-293,117,61,-123
24727,8047,0,2023-03-10T14:08:36.529265,6394711,2052,346,462,-1010,-630,-293,117,61,-123
24728,8048,0,2023-03-10T14:08:36.533741,6394715,2052,346,462,-1010,-630,-293,117,61,-123
24729,8049,0,2023-03-10T14:08:36.537947,6394719,2052,346,462,-1010,-630,-293,117,61,-123
24730,8050,0,2023-03-10T14:08:36.542373,6394723,2052,346,462,-1010,-630,-293,117,61,-123
24731,8051,0,2023-03-10T14:08:36.546820,6394728,2041,336,474,-976,-633,-279,114,56,-124
24732,8052,0,2023-03-10T14:08:36.551801,6394733,2041,336,474,-976,-633,-279,114,56,-124
24733,8053,0,2023-03-10T14:08:36.556265,6394737,2041,336,474,-976,-633,-279,114,56,-124
24734,8054,0,2023-03-10T14:08:36.560851,6394741,2041,336,474,-976,-633,-279,114,56,-124
24735,8055,0,2023-03-10T14:08:36.565550,6394746,2028,329,456,-1015,-633,-298,114,56,-124
24736,8056,0,2023-03-10T14:08:36.570798,6394752,2028,329,456,-1015,-633,-298,114,56,-124
24737,8057,0,2023-03-10T14:08:36.575598,6394757,2028,329,456,-1015,-633,-298,114,56,-124
24738,8058,0,2023-03-10T14:08:36.580488,6394762,2028,329,456,-1015,-633,-298,114,56,-124
24739,8059,0,2023-03-10T14:08:36.584953,6394766,2049,338,466,-992,-633,-287,114,56,-124
24740,8060,0,2023-03-10T14:08:36.589721,6394771,2049,338,466,-992,-633,-287,114,56,-124
24741,8061,0,2023-03-10T14:08:36.594483,6394775,2049,338,466,-992,-633,-287,114,56,-124
24742,8062,0,2023-03-10T14:08:36.599392,6394780,2049,338,466,-992,-633,-287,114,56,-124
24743,8063,0,2023-03-10T14:08:36.603875,6394784,2059,347,462,-967,-628,-280,114,56,-124
24744,8064,0,2023-03-10T14:08:36.609111,6394790,2059,347,462,-967,-628,-280,114,56,-124
24745,8065,0,2023-03-10T14:08:36.613737,6394795,2059,347,462,-967,-628,-280,114,56,-124
24746,8066,0,2023-03-10T14:08:36.618944,6394800,2059,347,462,-967,-628,-280,114,56,-124
24747,8067,0,2023-03-10T14:08:36.623388,6394805,2036,331,462,-999,-628,-283,114,56,-124
24748,8068,0,2023-03-10T14:08:36.628227,6394809,2036,331,462,-999,-628,-283,114,56,-124
24749,8069,0,2023-03-10T14:08:36.632637,6394814,2036,331,462,-999,-628,-283,114,56,-124
24750,8070,0,2023-03-10T14:08:36.637591,6394818,2036,331,462,-999,-628,-283,114,56,-124
24751,8071,0,2023-03-10T14:08:36.642177,6394823,2036,331,462,-999,-628,-283,114,56,-124
24752,8072,0,2023-03-10T14:08:36.646800,6394827,2040,341,461,-1014,-611,-305,114,56,-124
24753,8073,0,2023-03-10T14:08:36.651782,6394832,2040,341,461,-1014,-611,-305,114,56,-124
24754,8074,0,2023-03-10T14:08:36.656206,6394838,2040,341,461,-1014,-611,-305,114,56,-124
24755,8075,0,2023-03-10T14:08:36.661058,6394842,2040,341,461,-1014,-611,-305,114,56,-124
24756,8076,0,2023-03-10T14:08:36.666208,6394847,2048,338,476,-1004,-699,-292,123,63,-127
24757,8077,0,2023-03-10T14:08:36.671360,6394852,2048,338,476,-1004,-699,-292,123,63,-127
24758,8078,0,2023-03-10T14:08:36.675923,6394857,2048,338,476,-1004,-699,-292,123,63,-127
24759,8079,0,2023-03-10T14:08:36.681047,6394862,2048,338,476,-1004,-699,-292,123,63,-127
24760,8080,0,2023-03-10T14:08:36.686311,6394867,2044,344,459,-1006,-626,-298,123,63,-127
24761,8081,0,2023-03-10T14:08:36.691476,6394872,2044,344,459,-1006,-626,-298,123,63,-127
24762,8082,0,2023-03-10T14:08:36.695951,6394876,2044,344,459,-1006,-626,-298,123,63,-127
24763,8083,0,2023-03-10T14:08:36.700992,6394882,2044,344,459,-1006,-626,-298,123,63,-127
24764,8084,0,2023-03-10T14:08:36.705403,6394887,2031,329,463,-986,-590,-270,123,63,-127
24765,8085,0,2023-03-10T14:08:36.710435,6394892,2031,329,463,-986,-590,-270,123,63,-127
24766,8086,0,2023-03-10T14:08:36.715285,6394896,2031,329,463,-986,-590,-270,123,63,-127
24767,8087,0,2023-03-10T14:08:36.720164,6394901,2031,329,463,-986,-590,-270,123,63,-127
24768,8088,0,2023-03-10T14:08:36.724841,6394905,2031,335,480,-997,-614,-302,123,63,-127
24769,8089,0,2023-03-10T14:08:36.730028,6394911,2031,335,480,-997,-614,-302,123,63,-127
24770,8090,0,2023-03-10T14:08:36.734450,6394915,2031,335,480,-997,-614,-302,123,63,-127
24771,8091,0,2023-03-10T14:08:36.739012,6394920,2031,335,480,-997,-614,-302,123,63,-127
24772,8092,0,2023-03-10T14:08:36.743381,6394925,2053,337,469,-1009,-644,-286,123,63,-127
24773,8093,0,2023-03-10T14:08:36.748872,6394930,2053,337,469,-1009,-644,-286,123,63,-127
24774,8094,0,2023-03-10T14:08:36.753133,6394934,2053,337,469,-1009,-644,-286,123,63,-127
24775,8095,0,2023-03-10T14:08:36.758193,6394939,2053,337,469,-1009,-644,-286,123,63,-127
24776,8096,0,2023-03-10T14:08:36.762682,6394944,2053,337,469,-1009,-644,-286,123,63,-127
24777,8097,0,2023-03-10T14:08:36.767106,6394948,2045,337,460,-988,-622,-298,123,63,-127
24778,8098,0,2023-03-10T14:08:36.771870,6394953,2045,337,460,-988,-622,-298,123,63,-127
24779,8099,0,2023-03-10T14:08:36.776223,6394957,2045,337,460,-988,-622,-298,123,63,-127
24780,8100,0,2023-03-10T14:08:36.780662,6394961,2045,337,460,-988,-622,-298,123,63,-127
24781,8101,0,2023-03-10T14:08:36.784994,6394967,2041,333,464,-1005,-619,-291,123,63,-127
24782,8102,0,2023-03-10T14:08:36.789909,6394971,2041,333,464,-1005,-619,-291,123,63,-127
24783,8103,0,2023-03-10T14:08:36.794294,6394976,2041,333,464,-1005,-619,-291,123,63,-127
24784,8104,0,2023-03-10T14:08:36.798738,6394980,2041,333,464,-1005,-619,-291,123,63,-127
24785,8105,0,2023-03-10T14:08:36.803225,6394984,2041,333,464,-1005,-619,-291,123,63,-127
24786,8106,0,2023-03-10T14:08:36.807518,6394989,2032,336,460,-989,-649,-304,134,58,-132
24787,8107,0,2023-03-10T14:08:36.812110,6394993,2032,336,460,-989,-649,-304,134,58,-132
24788,8108,0,2023-03-10T14:08:36.816617,6394997,2032,336,460,-989,-649,-304,134,58,-132
24789,8109,0,2023-03-10T14:08:36.821823,6395002,2032,336,460,-989,-649,-304,134,58,-132
24790,8110,0,2023-03-10T14:08:36.826168,6395008,2052,341,469,-1003,-602,-295,134,58,-132
24791,8111,0,2023-03-10T14:08:36.831073,6395013,2052,341,469,-1003,-602,-295,134,58,-132
24792,8112,0,2023-03-10T14:08:36.835609,6395017,2052,341,469,-1003,-602,-295,134,58,-132
24793,8113,0,2023-03-10T14:08:36.840359,6395022,2052,341,469,-1003,-602,-295,134,58,-132
24794,8114,0,2023-03-10T14:08:36.844903,6395026,2022,333,461,-972,-699,-272,134,58,-132
