,Unnamed: 0,imu,server_time,arduino_time,ax,ay,az,gx,gy,gz,mx,my,mz
25242,8562,0,2023-03-10T14:08:38.972627,6397154,2043,333,430,-1002,-647,-294,115,61,-131
25243,8563,0,2023-03-10T14:08:38.977840,6397159,2043,333,430,-1002,-647,-294,115,61,-131
25244,8564,0,2023-03-10T14:08:38.983322,6397164,2043,333,430,-1002,-647,-294,115,61,-131
25245,8565,0,2023-03-10T14:08:38.988594,6397169,2061,332,432,-979,-605,-273,117,51,-121
25246,8566,0,2023-03-10T14:08:38.993171,6397174,2061,332,432,-979,-605,-273,117,51,-121
25247,8567,0,2023-03-10T14:08:38.997686,6397178,2061,332,432,-979,-605,-273,117,51,-121
25248,8568,0,2023-03-10T14:08:39.002716,6397184,2061,332,432,-979,-605,-273,117,51,-121
25249,8569,0,2023-03-10T14:08:39.007524,6397189,2056,333,434,-986,-634,-290,117,51,-121
25250,8570,0,2023-03-10T14:08:39.012786,6397194,2056,333,434,-986,-634,-290,117,51,-121
25251,8571,0,2023-03-10T14:08:39.017717,6397199,2056,333,434,-986,-634,-290,117,51,-121
25252,8572,0,2023-03-10T14:08:39.022158,6397203,2056,333,434,-986,-634,-290,117,51,-121
25253,8573,0,2023-03-10T14:08:39.026541,6397208,2061,327,431,-1033,-623,-302,117,51,-121
25254,8574,0,2023-03-10T14:08:39.031927,6397213,2061,327,431,-1033,-623,-302,117,51,-121
25255,8575,0,2023-03-10T14:08:39.036399,6397217,2061,327,431,-1033,-623,-302,117,51,-121
25256,8576,0,2023-03-10T14:08:39.041167,6397222,2061,327,431,-1033,-623,-302,117,51,-121
25257,8577,0,2023-03-10T14:08:39.045590,6397227,2061,327,431,-1033,-623,-302,117,51,-121
25258,8578,0,2023-03-10T14:08:39.050450,6397232,2045,329,428,-994,-656,-293,117,51,-121
25259,8579,0,2023-03-10T14:08:39.055541,6397237,2045,329,428,-994,-656,-293,117,51,-121
25260,8580,0,2023-03-10T14:08:39.060743,6397242,2045,329,428,-994,-656,-293,117,51,-121
25261,8581,0,2023-03-10T14:08:39.065502,6397247,2045,329,428,-994,-656,-293,117,51,-121
25262,8582,0,2023-03-10T14:08:39.069984,6397251,2063,334,430,-1015,-609,-296,117,51,-121
25263,8583,0,2023-03-10T14:08:39.075329,6397256,2063,334,430,-1015,-609,-296,117,51,-121
25264,8584,0,2023-03-10T14:08:39.080543,6397261,2063,334,430,-1015,-609,-296,117,51,-121
25265,8585,0,2023-03-10T14:08:39.085100,6397266,2063,334,430,-1015,-609,-296,117,51,-121
25266,8586,0,2023-03-10T14:08:39.089467,6397271,2050,336,428,-992,-653,-293,117,51,-121
25267,8587,0,2023-03-10T14:08:39.094038,6397275,2050,336,428,-992,-653,-293,117,51,-121
25268,8588,0,2023-03-10T14:08:39.099771,6397281,2050,336,428,-992,-653,-293,117,51,-121
25269,8589,0,2023-03-10T14:08:39.104263,6397285,2050,336,428,-992,-653,-293,117,51,-121
25270,8590,0,2023-03-10T14:08:39.109294,6397290,2066,334,431,-997,-628,-293,124,52,-128
25271,8591,0,2023-03-10T14:08:39.114374,6397295,2066,334,431,-997,-628,-293,124,52,-128
25272,8592,0,2023-03-10T14:08:39.119627,6397300,2066,334,431,-997,-628,-293,124,52,-128
25273,8593,0,2023-03-10T14:08:39.123988,6397305,2066,334,431,-997,-628,-293,124,52,-128
25274,8594,0,2023-03-10T14:08:39.128426,6397309,2039,328,435,-990,-625,-282,124,52,-128
25275,8595,0,2023-03-10T14:08:39.132979,6397314,2039,328,435,-990,-625,-282,124,52,-128
25276,8596,0,2023-03-10T14:08:39.137718,6397319,2039,328,435,-990,-625,-282,124,52,-128
25277,8597,0,2023-03-10T14:08:39.142034,6397323,2039,328,435,-990,-625,-282,124,52,-128
25278,8598,0,2023-03-10T14:08:39.146499,6397328,2039,328,435,-990,-625,-282,124,52,-128
25279,8599,0,2023-03-10T14:08:39.151523,6397333,2066,334,439,-956,-642,-280,124,52,-128
25280,8600,0,2023-03-10T14:08:39.156691,6397338,2066,334,439,-956,-642,-280,124,52,-128
25281,8601,0,2023-03-10T14:08:39.161603,6397342,2066,334,439,-956,-642,-280,124,52,-128
25282,8602,0,2023-03-10T14:08:39.165993,6397347,2066,334,439,-956,-642,-280,124,52,-128
25283,8603,0,2023-03-10T14:08:39.170633,6397351,2063,334,426,-1001,-635,-300,124,52,-128
25284,8604,0,2023-03-10T14:08:39.175343,6397357,2063,334,426,-1001,-635,-300,124,52,-128
25285,8605,0,2023-03-10T14:08:39.180080,6397362,2063,334,426,-1001,-635,-300,124,52,-128
25286,8606,0,2023-03-10T14:08:39.184655,6397366,2063,334,426,-1001,-635,-300,124,52,-128
25287,8607,0,2023-03-10T14:08:39.189458,6397371,2050,326,432,-1014,-637,-287,124,52,-128
25288,8608,0,2023-03-10T14:08:39.194416,6397375,2050,326,432,-1014,-637,-287,124,52,-128
25289,8609,0,2023-03-10T14:08:39.199686,6397381,2050,326,432,-1014,-637,-287,124,52,-128
25290,8610,0,2023-03-10T14:08:39.204215,6397385,2050,326,432,-1014,-637,-287,124,52,-128
25291,8611,0,2023-03-10T14:08:39.208430,6397389,2051,332,426,-993,-659,-288,124,52,-128
25292,8612,0,2023-03-10T14:08:39.213300,6397394,2051,332,426,-993,-659,-288,124,52,-128
25293,8613,0,2023-03-10T14:08:39.217794,6397399,2051,332,426,-993,-659,-288,124,52,-128
25294,8614,0,2023-03-10T14:08:39.223092,6397404,2051,332,426,-993,-659,-288,124,52,-128
25295,8615,0,2023-03-10T14:08:39.227494,6397409,2064,335,431,-1011,-607,-299,124,52,-128
25296,8616,0,2023-03-10T14:08:39.232464,6397414,2064,335,431,-1011,-607,-299,124,52,-128
25297,8617,0,2023-03-10T14:08:39.236932,6397418,2064,335,431,-1011,-607,-299,124,52,-128
25298,8618,0,2023-03-10T14:08:39.241614,6397423,2064,335,431,-1011,-607,-299,124,52,-128
25299,8619,0,2023-03-10T14:08:39.245933,6397427,2064,335,431,-1011,-607,-299,124,52,-128
25300,8620,0,2023-03-10T14:08:39.250524,6397431,2048,336,440,-994,-654,-289,112,62,-126
25301,8621,0,2023-03-10T14:08:39.255337,6397436,2048,336,440,-994,-654,-289,112,62,-126
25302,8622,0,2023-03-10T14:08:39.260324,6397442,2048,336,440,-994,-654,-289,112,62,-126
25303,8623,0,2023-03-10T14:08:39.264527,6397446,2048,336,440,-994,-654,-289,112,62,-126
25304,8624,0,2023-03-10T14:08:39.268941,6397450,2072,342,426,-1020,-628,-305,112,62,-126
25305,8625,0,2023-03-10T14:08:39.273904,6397455,2072,342,426,-1020,-628,-305,112,62,-126
25306,8626,0,2023-03-10T14:08:39.278468,6397460,2072,342,426,-1020,-628,-305,112,62,-126
25307,8627,0,2023-03-10T14:08:39.283281,6397464,2072,342,426,-1020,-628,-305,112,62,-126
25308,8628,0,2023-03-10T14:08:39.287621,6397469,2036,323,432,-968,-614,-259,112,62,-126
25309,8629,0,2023-03-10T14:08:39.292403,6397473,2036,323,432,-968,-614,-259,112,62,-126
25310,8630,0,2023-03-10T14:08:39.296997,6397478,2036,323,432,-968,-614,-259,112,62,-126
25311,8631,0,2023-03-10T14:08:39.301867,6397483,2036,323,432,-968,-614,-259,112,62,-126
25312,8632,0,2023-03-10T14:08:39.306336,6397488,2036,323,432,-968,-614,-259,112,62,-126
25313,8633,0,2023-03-10T14:08:39.310699,6397492,2066,334,433,-962,-658,-287,112,62,-126
25314,8634,0,2023-03-10T14:08:39.315566,6397497,2066,334,433,-962,-658,-287,112,62,-126
25315,8635,0,2023-03-10T14:08:39.320493,6397502,2066,334,433,-962,-658,-287,112,62,-126
25316,8636,0,2023-03-10T14:08:39.324808,6397506,2066,334,433,-962,-658,-287,112,62,-126
25317,8637,0,2023-03-10T14:08:39.329388,6397510,2066,331,426,-1012,-621,-289,112,62,-126
25318,8638,0,2023-03-10T14:08:39.334427,6397515,2066,331,426,-1012,-621,-289,112,62,-126
25319,8639,0,2023-03-10T14:08:39.339368,6397520,2066,331,426,-1012,-621,-289,112,62,-126
25320,8640,0,2023-03-10T14:08:39.343843,6397524,2066,331,426,-1012,-621,-289,112,62,-126
25321,8641,0,2023-03-10T14:08:39.348829,6397530,2072,335,425,-995,-665,-301,112,62,-126
25322,8642,0,2023-03-10T14:08:39.354084,6397535,2072,335,425,-995,-665,-301,112,62,-126
25323,8643,0,2023-03-10T14:08:39.358805,6397540,2072,335,425,-995,-665,-301,112,62,-126
25324,8644,0,2023-03-10T14:08:39.363223,6397544,2072,335,425,-995,-665,-301,112,62,-126
25325,8645,0,2023-03-10T14:08:39.367706,6397549,2051,329,427,-996,-642,-292,122,58,-132
25326,8646,0,2023-03-10T14:08:39.372786,6397554,2051,329,427,-996,-642,-292,122,58,-132
25327,8647,0,2023-03-10T14:08:39.377075,6397558,2051,329,427,-996,-642,-292,122,58,-132
25328,8648,0,2023-03-10T14:08:39.381502,6397562,2051,329,427,-996,-642,-292,122,58,-132
25329,8649,0,2023-03-10T14:08:39.386159,6397568,2051,329,427,-996,-642,-292,122,58,-132
25330,8650,0,2023-03-10T14:08:39.390431,6397572,2055,337,433,-1009,-577,-299,122,58,-132
25331,8651,0,2023-03-10T14:08:39.395628,6397577,2055,337,433,-1009,-577,-299,122,58,-132
25332,8652,0,2023-03-10T14:08:39.400202,6397582,2055,337,433,-1009,-577,-299,122,58,-132
25333,8653,0,2023-03-10T14:08:39.404544,6397586,2055,337,433,-1009,-577,-299,122,58,-132
25334,8654,0,2023-03-10T14:08:39.408971,6397590,2079,338,433,-1007,-621,-312,122,58,-132
25335,8655,0,2023-03-10T14:08:39.413907,6397595,2079,338,433,-1007,-621,-312,122,58,-132
25336,8656,0,2023-03-10T14:08:39.418575,6397599,2079,338,433,-1007,-621,-312,122,58,-132
25337,8657,0,2023-03-10T14:08:39.423435,6397604,2079,338,433,-1007,-621,-312,122,58,-132
25338,8658,0,2023-03-10T14:08:39.428370,6397609,2047,328,431,-1009,-627,-272,122,58,-132
25339,8659,0,2023-03-10T14:08:39.433270,6397615,2047,328,431,-1009,-627,-272,122,58,-132
25340,8660,0,2023-03-10T14:08:39.437643,6397619,2047,328,431,-1009,-627,-272,122,58,-132
25341,8661,0,2023-03-10T14:08:39.442736,6397624,2047,328,431,-1009,-627,-272,122,58,-132
25342,8662,0,2023-03-10T14:08:39.447201,6397628,2069,329,422,-995,-623,-296,122,58,-132
25343,8663,0,2023-03-10T14:08:39.451941,6397633,2069,329,422,-995,-623,-296,122,58,-132
25344,8664,0,2023-03-10T14:08:39.456212,6397637,2069,329,422,-995,-623,-296,122,58,-132
25345,8665,0,2023-03-10T14:08:39.460550,6397641,2069,329,422,-995,-623,-296,122,58,-132
25346,8666,0,2023-03-10T14:08:39.465165,6397646,2069,329,422,-995,-623,-296,122,58,-132
25347,8667,0,2023-03-10T14:08:39.469727,6397650,2052,335,420,-980,-644,-277,122,58,-132
25348,8668,0,2023-03-10T14:08:39.474696,6397656,2052,335,420,-980,-644,-277,122,58,-132
25349,8669,0,2023-03-10T14:08:39.479638,6397661,2052,335,420,-980,-644,-277,122,58,-132
25350,8670,0,2023-03-10T14:08:39.484132,6397665,2052,335,420,-980,-644,-277,122,58,-132
25351,8671,0,2023-03-10T14:08:39.489426,6397671,2072,324,424,-979,-613,-285,122,58,-132
25352,8672,0,2023-03-10T14:08:39.494282,6397675,2072,324,424,-979,-613,-285,122,58,-132
25353,8673,0,2023-03-10T14:08:39.500124,6397680,2072,324,424,-979,-613,-285,122,58,-132
25354,8674,0,2023-03-10T14:08:39.504353,6397685,2072,324,424,-979,-613,-285,122,58,-132
25355,8675,0,2023-03-10T14:08:39.508760,6397690,2063,334,422,-995,-621,-296,124,54,-142
25356,8676,0,2023-03-10T14:08:39.513628,6397694,2063,334,422,-995,-621,-296,124,54,-142
25357,8677,0,2023-03-10T14:08:39.518273,6397700,2063,334,422,-995,-621,-296,124,54,-142
25358,8678,0,2023-03-10T14:08:39.523277,6397705,2063,334,422,-995,-621,-296,124,54,-142
25359,8679,0,2023-03-10T14:08:39.527442,6397709,2041,318,427,-999,-622,-273,124,54,-142
25360,8680,0,2023-03-10T14:08:39.531841,6397713,2041,318,427,-999,-622,-273,124,54,-142
25361,8681,0,2023-03-10T14:08:39.536390,6397718,2041,318,427,-999,-622,-273,124,54,-142
25362,8682,0,2023-03-10T14:08:39.541446,6397722,2041,318,427,-999,-622,-273,124,54,-142
25363,8683,0,2023-03-10T14:08:39.545866,6397727,2041,318,427,-999,-622,-273,124,54,-142
25364,8684,0,2023-03-10T14:08:39.550362,6397731,2072,338,432,-989,-626,-308,124,54,-142
25365,8685,0,2023-03-10T14:08:39.555207,6397736,2072,338,432,-989,-626,-308,124,54,-142
25366,8686,0,2023-03-10T14:08:39.560441,6397742,2072,338,432,-989,-626,-308,124,54,-142
25367,8687,0,2023-03-10T14:08:39.564920,6397746,2072,338,432,-989,-626,-308,124,54,-142
25368,8688,0,2023-03-10T14:08:39.569322,6397751,2068,334,423,-998,-642,-283,124,54,-142
25369,8689,0,2023-03-10T14:08:39.574299,6397755,2068,334,423,-998,-642,-283,124,54,-142
25370,8690,0,2023-03-10T14:08:39.579503,6397761,2068,334,423,-998,-642,-283,124,54,-142
25371,8691,0,2023-03-10T14:08:39.584091,6397765,2068,334,423,-998,-642,-283,124,54,-142
25372,8692,0,2023-03-10T14:08:39.588730,6397770,2054,337,419,-992,-626,-297,124,54,-142
25373,8693,0,2023-03-10T14:08:39.593589,6397774,2054,337,419,-992,-626,-297,124,54,-142
25374,8694,0,2023-03-10T14:08:39.598014,6397779,2054,337,419,-992,-626,-297,124,54,-142
25375,8695,0,2023-03-10T14:08:39.602915,6397784,2054,337,419,-992,-626,-297,124,54,-142
25376,8696,0,2023-03-10T14:08:39.607584,6397789,2063,327,425,-976,-631,-267,124,54,-142
25377,8697,0,2023-03-10T14:08:39.612534,6397794,2063,327,425,-976,-631,-267,124,54,-142
25378,8698,0,2023-03-10T14:08:39.617117,6397798,2063,327,425,-976,-631,-267,124,54,-142
25379,8699,0,2023-03-10T14:08:39.622356,6397803,2063,327,425,-976,-631,-267,124,54,-142
25380,8700,0,2023-03-10T14:08:39.627012,6397808,2063,327,425,-976,-631,-267,124,54,-142
25381,8701,0,2023-03-10T14:08:39.631593,6397813,2043,329,424,-964,-697,-274,109,57,-129
25382,8702,0,2023-03-10T14:08:39.636737,6397817,2043,329,424,-964,-697,-274,109,57,-129
25383,8703,0,2023-03-10T14:08:39.641677,6397822,2043,329,424,-964,-697,-274,109,57,-129
25384,8704,0,2023-03-10T14:08:39.646210,6397828,2043,329,424,-964,-697,-274,109,57,-129
25385,8705,0,2023-03-10T14:08:39.651098,6397832,2075,334,424,-1011,-608,-296,109,57,-129
25386,8706,0,2023-03-10T14:08:39.655852,6397837,2075,334,424,-1011,-608,-296,109,57,-129
25387,8707,0,2023-03-10T14:08:39.660145,6397841,2075,334,424,-1011,-608,-296,109,57,-129
25388,8708,0,2023-03-10T14:08:39.664726,6397846,2075,334,424,-1011,-608,-296,109,57,-129
25389,8709,0,2023-03-10T14:08:39.669175,6397850,2048,326,421,-985,-594,-291,109,57,-129
25390,8710,0,2023-03-10T14:08:39.674084,6397855,2048,326,421,-985,-594,-291,109,57,-129
25391,8711,0,2023-03-10T14:08:39.678874,6397860,2048,326,421,-985,-594,-291,109,57,-129
25392,8712,0,2023-03-10T14:08:39.683216,6397864,2048,326,421,-985,-594,-291,109,57,-129
25393,8713,0,2023-03-10T14:08:39.687573,6397869,2055,332,429,-995,-623,-297,109,57,-129
25394,8714,0,2023-03-10T14:08:39.692316,6397874,2055,332,429,-995,-623,-297,109,57,-129
25395,8715,0,2023-03-10T14:08:39.696745,6397878,2055,332,429,-995,-623,-297,109,57,-129
25396,8716,0,2023-03-10T14:08:39.701786,6397883,2055,332,429,-995,-623,-297,109,57,-129
25397,8717,0,2023-03-10T14:08:39.706293,6397887,2055,332,429,-995,-623,-297,109,57,-129
25398,8718,0,2023-03-10T14:08:39.710405,6397892,2067,328,420,-1009,-605,-289,109,57,-129
25399,8719,0,2023-03-10T14:08:39.715399,6397896,2067,328,420,-1009,-605,-289,109,57,-129
25400,8720,0,2023-03-10T14:08:39.720583,6397901,2067,328,420,-1009,-605,-289,109,57,-129
25401,8721,0,2023-03-10T14:08:39.724971,6397906,2067,328,420,-1009,-605,-289,109,57,-129
25402,8722,0,2023-03-10T14:08:39.729279,6397911,2058,332,429,-986,-644,-300,109,57,-129
25403,8723,0,2023-03-10T14:08:39.734523,6397916,2058,332,429,-986,-644,-300,109,57,-129
25404,8724,0,2023-03-10T14:08:39.739119,6397920,2058,332,429,-986,-644,-300,109,57,-129
25405,8725,0,2023-03-10T14:08:39.743556,6397925,2058,332,429,-986,-644,-300,109,57,-129
25406,8726,0,2023-03-10T14:08:39.747914,6397929,2070,330,422,-980,-635,-267,122,60,-132
25407,8727,0,2023-03-10T14:08:39.753171,6397934,2070,330,422,-980,-635,-267,122,60,-132
25408,8728,0,2023-03-10T14:08:39.757876,6397939,2070,330,422,-980,-635,-267,122,60,-132
25409,8729,0,2023-03-10T14:08:39.762198,6397943,2070,330,422,-980,-635,-267,122,60,-132
25410,8730,0,2023-03-10T14:08:39.766601,6397947,2070,330,422,-980,-635,-267,122,60,-132
25411,8731,0,2023-03-10T14:08:39.771071,6397953,2045,329,437,-985,-613,-297,122,60,-132
25412,8732,0,2023-03-10T14:08:39.776131,6397957,2045,329,437,-985,-613,-297,122,60,-132
25413,8733,0,2023-03-10T14:08:39.781178,6397963,2045,329,437,-985,-613,-297,122,60,-132
25414,8734,0,2023-03-10T14:08:39.785594,6397967,2045,329,437,-985,-613,-297,122,60,-132
25415,8735,0,2023-03-10T14:08:39.790820,6397972,2082,336,414,-1011,-660,-298,122,60,-132
25416,8736,0,2023-03-10T14:08:39.795988,6397977,2082,336,414,-1011,-660,-298,122,60,-132
25417,8737,0,2023-03-10T14:08:39.801472,6397982,2082,336,414,-1011,-660,-298,122,60,-132
25418,8738,0,2023-03-10T14:08:39.806264,6397987,2082,336,414,-1011,-660,-298,122,60,-132
25419,8739,0,2023-03-10T14:08:39.810723,6397991,2058,331,422,-988,-624,-286,122,60,-132
25420,8740,0,2023-03-10T14:08:39.815502,6397997,2058,331,422,-988,-624,-286,122,60,-132
25421,8741,0,2023-03-10T14:08:39.820670,6398002,2058,331,422,-988,-624,-286,122,60,-132
25422,8742,0,2023-03-10T14:08:39.825292,6398007,2058,331,422,-988,-624,-286,122,60,-132
25423,8743,0,2023-03-10T14:08:39.829784,6398011,2065,327,415,-1005,-624,-300,122,60,-132
25424,8744,0,2023-03-10T14:08:39.834956,6398016,2065,327,415,-1005,-624,-300,122,60,-132
25425,8745,0,2023-03-10T14:08:39.840114,6398021,2065,327,415,-1005,-624,-300,122,60,-132
25426,8746,0,2023-03-10T14:08:39.844804,6398026,2065,327,415,-1005,-624,-300,122,60,-132
25427,8747,0,2023-03-10T14:08:39.849048,6398030,2056,339,420,-979,-623,-289,122,60,-132
25428,8748,0,2023-03-10T14:08:39.854253,6398035,2056,339,420,-979,-623,-289,122,60,-132
25429,8749,0,2023-03-10T14:08:39.858633,6398040,2056,339,420,-979,-623,-289,122,60,-132
25430,8750,0,2023-03-10T14:08:39.863638,6398045,2056,339,420,-979,-623,-289,122,60,-132
25431,8751,0,2023-03-10T14:08:39.868064,6398049,2060,333,431,-959,-626,-270,122,60,-132
25432,8752,0,2023-03-10T14:08:39.873184,6398054,2060,333,431,-959,-626,-270,122,60,-132
25433,8753,0,2023-03-10T14:08:39.877436,6398059,2060,333,431,-959,-626,-270,122,60,-132
25434,8754,0,2023-03-10T14:08:39.882678,6398064,2060,333,431,-959,-626,-270,122,60,-132
25435,8755,0,2023-03-10T14:08:39.887330,6398068,2060,333,431,-959,-626,-270,122,60,-132
25436,8756,0,2023-03-10T14:08:39.892383,6398073,2060,333,431,-959,-626,-270,116,54,-132
25437,8757,0,2023-03-10T14:08:39.896882,6398077,2060,333,431,-959,-626,-270,116,54,-132
25438,8758,0,2023-03-10T14:08:39.901632,6398083,2060,333,431,-959,-626,-270,116,54,-132
25439,8759,0,2023-03-10T14:08:39.906232,6398088,2060,333,431,-959,-626,-270,116,54,-132
25440,8760,0,2023-03-10T14:08:39.911457,6398093,2053,326,414,-1013,-630,-285,116,54,-132
25441,8761,0,2023-03-10T14:08:39.916514,6398098,2053,326,414,-1013,-630,-285,116,54,-132
25442,8762,0,2023-03-10T14:08:39.921178,6398102,2053,326,414,-1013,-630,-285,116,54,-132
25443,8763,0,2023-03-10T14:08:39.925535,6398107,2053,326,414,-1013,-630,-285,116,54,-132
25444,8764,0,2023-03-10T14:08:39.930033,6398111,2055,326,421,-977,-652,-284,116,54,-132
25445,8765,0,2023-03-10T14:08:39.935297,6398116,2055,326,421,-977,-652,-284,116,54,-132
25446,8766,0,2023-03-10T14:08:39.940385,6398121,2055,326,421,-977,-652,-284,116,54,-132
25447,8767,0,2023-03-10T14:08:39.944804,6398126,2055,326,421,-977,-652,-284,116,54,-132
25448,8768,0,2023-03-10T14:08:39.949253,6398131,2075,339,415,-1009,-599,-299,116,54,-132
25449,8769,0,2023-03-10T14:08:39.954155,6398135,2075,339,415,-1009,-599,-299,116,54,-132
25450,8770,0,2023-03-10T14:08:39.958727,6398140,2075,339,415,-1009,-599,-299,116,54,-132
25451,8771,0,2023-03-10T14:08:39.963823,6398145,2075,339,415,-1009,-599,-299,116,54,-132
25452,8772,0,2023-03-10T14:08:39.968177,6398149,2051,328,419,-990,-629,-278,116,54,-132
25453,8773,0,2023-03-10T14:08:39.973236,6398154,2051,328,419,-990,-629,-278,116,54,-132
25454,8774,0,2023-03-10T14:08:39.977640,6398158,2051,328,419,-990,-629,-278,116,54,-132
25455,8775,0,2023-03-10T14:08:39.982517,6398163,2051,328,419,-990,-629,-278,116,54,-132
25456,8776,0,2023-03-10T14:08:39.987008,6398169,2051,328,419,-990,-629,-278,116,54,-132
25457,8777,0,2023-03-10T14:08:39.992081,6398174,2071,334,423,-1002,-608,-301,116,54,-132
25458,8778,0,2023-03-10T14:08:39.997290,6398178,2071,334,423,-1002,-608,-301,116,54,-132
25459,8779,0,2023-03-10T14:08:40.002340,6398184,2071,334,423,-1002,-608,-301,116,54,-132
25460,8780,0,2023-03-10T14:08:40.006861,6398188,2071,334,423,-1002,-608,-301,116,54,-132
25461,8781,0,2023-03-10T14:08:40.011389,6398192,2048,324,427,-987,-639,-289,108,60,-134
25462,8782,0,2023-03-10T14:08:40.016664,6398198,2048,324,427,-987,-639,-289,108,60,-134
25463,8783,0,2023-03-10T14:08:40.021646,6398202,2048,324,427,-987,-639,-289,108,60,-134
25464,8784,0,2023-03-10T14:08:40.026178,6398208,2048,324,427,-987,-639,-289,108,60,-134
25465,8785,0,2023-03-10T14:08:40.030497,6398212,2076,337,423,-994,-615,-305,108,60,-134
25466,8786,0,2023-03-10T14:08:40.035447,6398217,2076,337,423,-994,-615,-305,108,60,-134
25467,8787,0,2023-03-10T14:08:40.040206,6398222,2076,337,423,-994,-615,-305,108,60,-134
25468,8788,0,2023-03-10T14:08:40.044737,6398226,2076,337,423,-994,-615,-305,108,60,-134
25469,8789,0,2023-03-10T14:08:40.049874,6398231,2054,326,424,-958,-655,-261,108,60,-134
25470,8790,0,2023-03-10T14:08:40.054963,6398236,2054,326,424,-958,-655,-261,108,60,-134
25471,8791,0,2023-03-10T14:08:40.060061,6398241,2054,326,424,-958,-655,-261,108,60,-134
25472,8792,0,2023-03-10T14:08:40.064484,6398245,2054,326,424,-958,-655,-261,108,60,-134
25473,8793,0,2023-03-10T14:08:40.069495,6398251,2072,334,418,-982,-627,-297,108,60,-134
25474,8794,0,2023-03-10T14:08:40.074604,6398256,2072,334,418,-982,-627,-297,108,60,-134
25475,8795,0,2023-03-10T14:08:40.079494,6398261,2072,334,418,-982,-627,-297,108,60,-134
25476,8796,0,2023-03-10T14:08:40.084044,6398265,2072,334,418,-982,-627,-297,108,60,-134
25477,8797,0,2023-03-10T14:08:40.088400,6398270,2044,323,419,-1004,-618,-280,108,60,-134
25478,8798,0,2023-03-10T14:08:40.093183,6398274,2044,323,419,-1004,-618,-280,108,60,-134
25479,8799,0,2023-03-10T14:08:40.097600,6398279,2044,323,419,-1004,-618,-280,108,60,-134
25480,8800,0,2023-03-10T14:08:40.102008,6398283,2044,323,419,-1004,-618,-280,108,60,-134
25481,8801,0,2023-03-10T14:08:40.106640,6398287,2044,323,419,-1004,-618,-280,108,60,-134
25482,8802,0,2023-03-10T14:08:40.111127,6398292,2065,331,418,-976,-647,-298,108,60,-134
25483,8803,0,2023-03-10T14:08:40.116196,6398298,2065,331,418,-976,-647,-298,108,60,-134
25484,8804,0,2023-03-10T14:08:40.121183,6398303,2065,331,418,-976,-647,-298,108,60,-134
25485,8805,0,2023-03-10T14:08:40.125477,6398307,2065,331,418,-976,-647,-298,108,60,-134
25486,8806,0,2023-03-10T14:08:40.130048,6398311,2062,330,417,-1008,-610,-293,108,60,-134
25487,8807,0,2023-03-10T14:08:40.135036,6398316,2062,330,417,-1008,-610,-293,108,60,-134
25488,8808,0,2023-03-10T14:08:40.140028,6398321,2062,330,417,-1008,-610,-293,108,60,-134
25489,8809,0,2023-03-10T14:08:40.144746,6398325,2062,330,417,-1008,-610,-293,108,60,-134
25490,8810,0,2023-03-10T14:08:40.149753,6398331,2078,335,427,-993,-662,-287,121,55,-129
25491,8811,0,2023-03-10T14:08:40.154995,6398336,2078,335,427,-993,-662,-287,121,55,-129
25492,8812,0,2023-03-10T14:08:40.160181,6398342,2078,335,427,-993,-662,-287,121,55,-129
25493,8813,0,2023-03-10T14:08:40.164824,6398346,2078,335,427,-993,-662,-287,121,55,-129
25494,8814,0,2023-03-10T14:08:40.169317,6398351,2051,328,414,-999,-658,-283,121,55,-129
25495,8815,0,2023-03-10T14:08:40.174382,6398356,2051,328,414,-999,-658,-283,121,55,-129
25496,8816,0,2023-03-10T14:08:40.178829,6398360,2051,328,414,-999,-658,-283,121,55,-129
25497,8817,0,2023-03-10T14:08:40.183356,6398364,2051,328,414,-999,-658,-283,121,55,-129
25498,8818,0,2023-03-10T14:08:40.187852,6398369,2062,323,417,-993,-583,-278,121,55,-129
25499,8819,0,2023-03-10T14:08:40.193201,6398374,2062,323,417,-993,-583,-278,121,55,-129
25500,8820,0,2023-03-10T14:08:40.197650,6398379,2062,323,417,-993,-583,-278,121,55,-129
25501,8821,0,2023-03-10T14:08:40.202666,6398384,2062,323,417,-993,-583,-278,121,55,-129
25502,8822,0,2023-03-10T14:08:40.207088,6398389,2062,323,417,-993,-583,-278,121,55,-129
25503,8823,0,2023-03-10T14:08:40.211686,6398393,2091,342,418,-986,-617,-319,121,55,-129
25504,8824,0,2023-03-10T14:08:40.216953,6398398,2091,342,418,-986,-617,-319,121,55,-129
25505,8825,0,2023-03-10T14:08:40.221252,6398402,2091,342,418,-986,-617,-319,121,55,-129
25506,8826,0,2023-03-10T14:08:40.225702,6398407,2091,342,418,-986,-617,-319,121,55,-129
25507,8827,0,2023-03-10T14:08:40.230197,6398411,2044,321,411,-993,-629,-263,121,55,-129
25508,8828,0,2023-03-10T14:08:40.234888,6398416,2044,321,411,-993,-629,-263,121,55,-129
25509,8829,0,2023-03-10T14:08:40.239535,6398420,2044,321,411,-993,-629,-263,121,55,-129
25510,8830,0,2023-03-10T14:08:40.243919,6398426,2044,321,411,-993,-629,-263,121,55,-129
25511,8831,0,2023-03-10T14:08:40.248407,6398430,2081,332,413,-990,-612,-306,121,55,-129
25512,8832,0,2023-03-10T14:08:40.253142,6398435,2081,332,413,-990,-612,-306,121,55,-129
25513,8833,0,2023-03-10T14:08:40.257626,6398439,2081,332,413,-990,-612,-306,121,55,-129
25514,8834,0,2023-03-10T14:08:40.262665,6398444,2081,332,413,-990,-612,-306,121,55,-129
25515,8835,0,2023-03-10T14:08:40.267214,6398448,2081,332,413,-990,-612,-306,121,55,-129
25516,8836,0,2023-03-10T14:08:40.271752,6398453,2049,328,422,-995,-650,-278,121,61,-125
25517,8837,0,2023-03-10T14:08:40.276261,6398457,2049,328,422,-995,-650,-278,121,61,-125
25518,8838,0,2023-03-10T14:08:40.281155,6398462,2049,328,422,-995,-650,-278,121,61,-125
25519,8839,0,2023-03-10T14:08:40.285576,6398467,2049,328,422,-995,-650,-278,121,61,-125
25520,8840,0,2023-03-10T14:08:40.290062,6398472,2082,334,415,-1007,-625,-303,121,61,-125
25521,8841,0,2023-03-10T14:08:40.295211,6398477,2082,334,415,-1007,-625,-303,121,61,-125
25522,8842,0,2023-03-10T14:08:40.299771,6398481,2082,334,415,-1007,-625,-303,121,61,-125
25523,8843,0,2023-03-10T14:08:40.304161,6398485,2082,334,415,-1007,-625,-303,121,61,-125
25524,8844,0,2023-03-10T14:08:40.308657,6398490,2058,328,416,-969,-631,-280,121,61,-125
25525,8845,0,2023-03-10T14:08:40.314284,6398495,2058,328,416,-969,-631,-280,121,61,-125
25526,8846,0,2023-03-10T14:08:40.319260,6398500,2058,328,416,-969,-631,-280,121,61,-125
25527,8847,0,2023-03-10T14:08:40.323779,6398504,2058,328,416,-969,-631,-280,121,61,-125
25528,8848,0,2023-03-10T14:08:40.328436,6398510,2048,317,420,-970,-626,-275,121,61,-125
25529,8849,0,2023-03-10T14:08:40.333058,6398514,2048,317,420,-970,-626,-275,121,61,-125
25530,8850,0,2023-03-10T14:08:40.337693,6398519,2048,317,420,-970,-626,-275,121,61,-125
25531,8851,0,2023-03-10T14:08:40.342214,6398523,2048,317,420,-970,-626,-275,121,61,-125
25532,8852,0,2023-03-10T14:08:40.346499,6398528,2048,317,420,-970,-626,-275,121,61,-125
25533,8853,0,2023-03-10T14:08:40.350969,6398532,2078,337,420,-997,-635,-315,121,61,-125
25534,8854,0,2023-03-10T14:08:40.356000,6398537,2078,337,420,-997,-635,-315,121,61,-125
25535,8855,0,2023-03-10T14:08:40.361013,6398542,2078,337,420,-997,-635,-315,121,61,-125
25536,8856,0,2023-03-10T14:08:40.365406,6398546,2078,337,420,-997,-635,-315,121,61,-125
25537,8857,0,2023-03-10T14:08:40.369796,6398551,2072,325,410,-989,-651,-276,121,61,-125
25538,8858,0,2023-03-10T14:08:40.374558,6398556,2072,325,410,-989,-651,-276,121,61,-125
25539,8859,0,2023-03-10T14:08:40.379968,6398561,2072,325,410,-989,-651,-276,121,61,-125
25540,8860,0,2023-03-10T14:08:40.384646,6398566,2072,325,410,-989,-651,-276,121,61,-125
25541,8861,0,2023-03-10T14:08:40.389100,6398570,2068,340,411,-1000,-626,-293,121,61,-125
25542,8862,0,2023-03-10T14:08:40.393927,6398575,2068,340,411,-1000,-626,-293,121,61,-125
25543,8863,0,2023-03-10T14:08:40.398406,6398579,2068,340,411,-1000,-626,-293,121,61,-125
25544,8864,0,2023-03-10T14:08:40.403570,6398584,2068,340,411,-1000,-626,-293,121,61,-125
25545,8865,0,2023-03-10T14:08:40.407854,6398589,2068,340,411,-1000,-626,-293,121,61,-125
25546,8866,0,2023-03-10T14:08:40.412638,6398594,2057,325,424,-979,-606,-275,121,61,-125
25547,8867,0,2023-03-10T14:08:40.417801,6398599,2057,325,424,-979,-606,-275,121,61,-125
25548,8868,0,2023-03-10T14:08:40.422626,6398604,2057,325,424,-979,-606,-275,121,61,-125
25549,8869,0,2023-03-10T14:08:40.427093,6398608,2057,325,424,-979,-606,-275,121,61,-125
25550,8870,0,2023-03-10T14:08:40.431572,6398613,2066,335,421,-985,-637,-304,121,61,-125
25551,8871,0,2023-03-10T14:08:40.436571,6398618,2066,335,421,-985,-637,-304,121,61,-125
25552,8872,0,2023-03-10T14:08:40.441550,6398623,2066,335,421,-985,-637,-304,121,61,-125
25553,8873,0,2023-03-10T14:08:40.446071,6398627,2066,335,421,-985,-637,-304,121,61,-125
25554,8874,0,2023-03-10T14:08:40.450450,6398631,2073,333,409,-1012,-617,-287,121,61,-125
25555,8875,0,2023-03-10T14:08:40.455567,6398637,2073,333,409,-1012,-617,-287,121,61,-125
25556,8876,0,2023-03-10T14:08:40.460533,6398642,2073,333,409,-1012,-617,-287,121,61,-125
25557,8877,0,2023-03-10T14:08:40.465002,6398646,2073,333,409,-1012,-617,-287,121,61,-125
25558,8878,0,2023-03-10T14:08:40.469961,6398651,2070,327,415,-987,-629,-295,121,61,-125
25559,8879,0,2023-03-10T14:08:40.474917,6398656,2070,327,415,-987,-629,-295,121,61,-125
25560,8880,0,2023-03-10T14:08:40.479616,6398660,2070,327,415,-987,-629,-295,121,61,-125
25561,8881,0,2023-03-10T14:08:40.484058,6398665,2070,327,415,-987,-629,-295,121,61,-125
25562,8882,0,2023-03-10T14:08:40.488592,6398669,2054,331,412,-989,-616,-276,121,61,-125
25563,8883,0,2023-03-10T14:08:40.493409,6398674,2054,331,412,-989,-616,-276,121,61,-125
25564,8884,0,2023-03-10T14:08:40.497702,6398679,2054,331,412,-989,-616,-276,121,61,-125
25565,8885,0,2023-03-10T14:08:40.502631,6398684,2054,331,412,-989,-616,-276,121,61,-125
25566,8886,0,2023-03-10T14:08:40.507076,6398689,2054,331,412,-989,-616,-276,121,61,-125
25567,8887,0,2023-03-10T14:08:40.511702,6398693,2068,326,419,-956,-626,-278,121,61,-125
25568,8888,0,2023-03-10T14:08:40.516500,6398698,2068,326,419,-956,-626,-278,121,61,-125
25569,8889,0,2023-03-10T14:08:40.521638,6398703,2068,326,419,-956,-626,-278,121,61,-125
25570,8890,0,2023-03-10T14:08:40.526345,6398707,2068,326,419,-956,-626,-278,121,61,-125
25571,8891,0,2023-03-10T14:08:40.531034,6398712,2072,333,415,-999,-632,-305,123,63,-125
25572,8892,0,2023-03-10T14:08:40.535876,6398717,2072,333,415,-999,-632,-305,123,63,-125
25573,8893,0,2023-03-10T14:08:40.540690,6398722,2072,333,415,-999,-632,-305,123,63,-125
25574,8894,0,2023-03-10T14:08:40.545213,6398726,2072,333,415,-999,-632,-305,123,63,-125
25575,8895,0,2023-03-10T14:08:40.549717,6398731,2058,326,414,-1010,-628,-278,123,63,-125
25576,8896,0,2023-03-10T14:08:40.555385,6398736,2058,326,414,-1010,-628,-278,123,63,-125
25577,8897,0,2023-03-10T14:08:40.560413,6398741,2058,326,414,-1010,-628,-278,123,63,-125
25578,8898,0,2023-03-10T14:08:40.565068,6398746,2058,326,414,-1010,-628,-278,123,63,-125
25579,8899,0,2023-03-10T14:08:40.569540,6398750,2057,331,416,-976,-650,-290,123,63,-125
25580,8900,0,2023-03-10T14:08:40.574611,6398755,2057,331,416,-976,-650,-290,123,63,-125
25581,8901,0,2023-03-10T14:08:40.579003,6398760,2057,331,416,-976,-650,-290,123,63,-125
25582,8902,0,2023-03-10T14:08:40.583431,6398765,2057,331,416,-976,-650,-290,123,63,-125
25583,8903,0,2023-03-10T14:08:40.588003,6398770,2057,331,416,-976,-650,-290,123,63,-125
25584,8904,0,2023-03-10T14:08:40.593154,6398775,2075,335,411,-1007,-607,-291,123,63,-125
25585,8905,0,2023-03-10T14:08:40.597539,6398779,2075,335,411,-1007,-607,-291,123,63,-125
25586,8906,0,2023-03-10T14:08:40.602132,6398783,2075,335,411,-1007,-607,-291,123,63,-125
25587,8907,0,2023-03-10T14:08:40.606513,6398788,2075,335,411,-1007,-607,-291,123,63,-125
25588,8908,0,2023-03-10T14:08:40.611252,6398792,2062,328,415,-968,-632,-286,123,63,-125
25589,8909,0,2023-03-10T14:08:40.616224,6398797,2062,328,415,-968,-632,-286,123,63,-125
25590,8910,0,2023-03-10T14:08:40.621100,6398802,2062,328,415,-968,-632,-286,123,63,-125
25591,8911,0,2023-03-10T14:08:40.625500,6398807,2062,328,415,-968,-632,-286,123,63,-125
25592,8912,0,2023-03-10T14:08:40.629961,6398812,2074,332,408,-1001,-615,-288,123,63,-125
25593,8913,0,2023-03-10T14:08:40.635152,6398816,2074,332,408,-1001,-615,-288,123,63,-125
25594,8914,0,2023-03-10T14:08:40.640477,6398822,2074,332,408,-1001,-615,-288,123,63,-125
25595,8915,0,2023-03-10T14:08:40.645061,6398826,2074,332,408,-1001,-615,-288,123,63,-125
25596,8916,0,2023-03-10T14:08:40.649373,6398831,2050,327,415,-962,-640,-265,121,53,-135
25597,8917,0,2023-03-10T14:08:40.654222,6398835,2050,327,415,-962,-640,-265,121,53,-135
25598,8918,0,2023-03-10T14:08:40.658883,6398840,2050,327,415,-962,-640,-265,121,53,-135
25599,8919,0,2023-03-10T14:08:40.663867,6398845,2050,327,415,-962,-640,-265,121,53,-135
25600,8920,0,2023-03-10T14:08:40.668445,6398850,2050,327,415,-962,-640,-265,121,53,-135
25601,8921,0,2023-03-10T14:08:40.672794,6398854,2077,331,418,-980,-612,-283,121,53,-135
25602,8922,0,2023-03-10T14:08:40.677989,6398859,2077,331,418,-980,-612,-283,121,53,-135
25603,8923,0,2023-03-10T14:08:40.682944,6398864,2077,331,418,-980,-612,-283,121,53,-135
25604,8924,0,2023-03-10T14:08:40.687654,6398869,2077,331,418,-980,-612,-283,121,53,-135
25605,8925,0,2023-03-10T14:08:40.692450,6398873,2061,330,404,-1000,-659,-285,121,53,-135
25606,8926,0,2023-03-10T14:08:40.697636,6398879,2061,330,404,-1000,-659,-285,121,53,-135
25607,8927,0,2023-03-10T14:08:40.702392,6398883,2061,330,404,-1000,-659,-285,121,53,-135
25608,8928,0,2023-03-10T14:08:40.706753,6398888,2061,330,404,-1000,-659,-285,121,53,-135
25609,8929,0,2023-03-10T14:08:40.711161,6398893,2074,332,401,-978,-627,-287,121,53,-135
25610,8930,0,2023-03-10T14:08:40.716207,6398898,2074,332,401,-978,-627,-287,121,53,-135
25611,8931,0,2023-03-10T14:08:40.721192,6398903,2074,332,401,-978,-627,-287,121,53,-135
25612,8932,0,2023-03-10T14:08:40.725877,6398907,2074,332,401,-978,-627,-287,121,53,-135
25613,8933,0,2023-03-10T14:08:40.730458,6398912,2050,328,418,-994,-611,-289,121,53,-135
25614,8934,0,2023-03-10T14:08:40.735096,6398916,2050,328,418,-994,-611,-289,121,53,-135
25615,8935,0,2023-03-10T14:08:40.739870,6398921,2050,328,418,-994,-611,-289,121,53,-135
25616,8936,0,2023-03-10T14:08:40.744406,6398925,2050,328,418,-994,-611,-289,121,53,-135
25617,8937,0,2023-03-10T14:08:40.748728,6398930,2079,332,408,-1012,-645,-302,121,53,-135
25618,8938,0,2023-03-10T14:08:40.753692,6398935,2079,332,408,-1012,-645,-302,121,53,-135
25619,8939,0,2023-03-10T14:08:40.758146,6398940,2079,332,408,-1012,-645,-302,121,53,-135
25620,8940,0,2023-03-10T14:08:40.763270,6398945,2079,332,408,-1012,-645,-302,121,53,-135
25621,8941,0,2023-03-10T14:08:40.767698,6398949,2079,332,408,-1012,-645,-302,121,53,-135
25622,8942,0,2023-03-10T14:08:40.772717,6398954,2063,327,407,-993,-616,-285,121,53,-135
25623,8943,0,2023-03-10T14:08:40.777606,6398959,2063,327,407,-993,-616,-285,121,53,-135
25624,8944,0,2023-03-10T14:08:40.781892,6398963,2063,327,407,-993,-616,-285,121,53,-135
25625,8945,0,2023-03-10T14:08:40.786334,6398967,2063,327,407,-993,-616,-285,121,53,-135
25626,8946,0,2023-03-10T14:08:40.790821,6398971,2083,331,416,-990,-656,-291,121,59,-123
25627,8947,0,2023-03-10T14:08:40.795793,6398977,2083,331,416,-990,-656,-291,121,59,-123
25628,8948,0,2023-03-10T14:08:40.800908,6398982,2083,331,416,-990,-656,-291,121,59,-123
25629,8949,0,2023-03-10T14:08:40.805796,6398987,2083,331,416,-990,-656,-291,121,59,-123
25630,8950,0,2023-03-10T14:08:40.810198,6398992,2054,329,402,-976,-667,-273,121,59,-123
25631,8951,0,2023-03-10T14:08:40.814856,6398996,2054,329,402,-976,-667,-273,121,59,-123
25632,8952,0,2023-03-10T14:08:40.819907,6399001,2054,329,402,-976,-667,-273,121,59,-123
25633,8953,0,2023-03-10T14:08:40.824545,6399005,2054,329,402,-976,-667,-273,121,59,-123
25634,8954,0,2023-03-10T14:08:40.829176,6399010,2067,325,410,-978,-588,-279,121,59,-123
25635,8955,0,2023-03-10T14:08:40.834691,6399015,2067,325,410,-978,-588,-279,121,59,-123
25636,8956,0,2023-03-10T14:08:40.839177,6399021,2067,325,410,-978,-588,-279,121,59,-123
25637,8957,0,2023-03-10T14:08:40.844123,6399026,2067,325,410,-978,-588,-279,121,59,-123
25638,8958,0,2023-03-10T14:08:40.848676,6399030,2067,325,410,-978,-588,-279,121,59,-123
25639,8959,0,2023-03-10T14:08:40.853495,6399035,2088,340,406,-999,-611,-311,121,59,-123
25640,8960,0,2023-03-10T14:08:40.858860,6399040,2088,340,406,-999,-611,-311,121,59,-123
25641,8961,0,2023-03-10T14:08:40.863892,6399045,2088,340,406,-999,-611,-311,121,59,-123
25642,8962,0,2023-03-10T14:08:40.868416,6399049,2088,340,406,-999,-611,-311,121,59,-123
25643,8963,0,2023-03-10T14:08:40.873390,6399054,2045,318,399,-985,-630,-257,121,59,-123
25644,8964,0,2023-03-10T14:08:40.878610,6399059,2045,318,399,-985,-630,-257,121,59,-123
25645,8965,0,2023-03-10T14:08:40.883111,6399065,2045,318,399,-985,-630,-257,121,59,-123
25646,8966,0,2023-03-10T14:08:40.887509,6399069,2045,318,399,-985,-630,-257,121,59,-123
25647,8967,0,2023-03-10T14:08:40.892058,6399073,2086,332,402,-999,-612,-308,121,59,-123
25648,8968,0,2023-03-10T14:08:40.897079,6399078,2086,332,402,-999,-612,-308,121,59,-123
25649,8969,0,2023-03-10T14:08:40.902103,6399083,2086,332,402,-999,-612,-308,121,59,-123
25650,8970,0,2023-03-10T14:08:40.906418,6399088,2086,332,402,-999,-612,-308,121,59,-123
25651,8971,0,2023-03-10T14:08:40.910925,6399092,2054,323,413,-981,-648,-265,122,56,-126
25652,8972,0,2023-03-10T14:08:40.915712,6399096,2054,323,413,-981,-648,-265,122,56,-126
25653,8973,0,2023-03-10T14:08:40.920704,6399101,2054,323,413,-981,-648,-265,122,56,-126
25654,8974,0,2023-03-10T14:08:40.925023,6399107,2054,323,413,-981,-648,-265,122,56,-126
25655,8975,0,2023-03-10T14:08:40.930162,6399112,2077,332,419,-986,-611,-298,122,56,-126
25656,8976,0,2023-03-10T14:08:40.934513,6399116,2077,332,419,-986,-611,-298,122,56,-126
25657,8977,0,2023-03-10T14:08:40.939510,6399121,2077,332,419,-986,-611,-298,122,56,-126
25658,8978,0,2023-03-10T14:08:40.943896,6399125,2077,332,419,-986,-611,-298,122,56,-126
25659,8979,0,2023-03-10T14:08:40.948679,6399130,2077,332,419,-986,-611,-298,122,56,-126
25660,8980,0,2023-03-10T14:08:40.952950,6399134,2060,329,414,-1004,-632,-291,122,56,-126
25661,8981,0,2023-03-10T14:08:40.957965,6399139,2060,329,414,-1004,-632,-291,122,56,-126
25662,8982,0,2023-03-10T14:08:40.963075,6399144,2060,329,414,-1004,-632,-291,122,56,-126
25663,8983,0,2023-03-10T14:08:40.967506,6399149,2060,329,414,-1004,-632,-291,122,56,-126
25664,8984,0,2023-03-10T14:08:40.971980,6399154,2053,315,407,-987,-638,-279,122,56,-126
25665,8985,0,2023-03-10T14:08:40.976344,6399158,2053,315,407,-987,-638,-279,122,56,-126
25666,8986,0,2023-03-10T14:08:40.980528,6399162,2053,315,407,-987,-638,-279,122,56,-126
25667,8987,0,2023-03-10T14:08:40.984944,6399166,2053,315,407,-987,-638,-279,122,56,-126
25668,8988,0,2023-03-10T14:08:40.989317,6399171,2083,335,410,-991,-619,-308,122,56,-126
25669,8989,0,2023-03-10T14:08:40.994246,6399175,2083,335,410,-991,-619,-308,122,56,-126
25670,8990,0,2023-03-10T14:08:40.998516,6399180,2083,335,410,-991,-619,-308,122,56,-126
25671,8991,0,2023-03-10T14:08:41.003582,6399184,2083,335,410,-991,-619,-308,122,56,-126
25672,8992,0,2023-03-10T14:08:41.008115,6399190,2083,335,410,-991,-619,-308,122,56,-126
25673,8993,0,2023-03-10T14:08:41.012379,6399194,2079,324,406,-987,-639,-272,122,56,-126
25674,8994,0,2023-03-10T14:08:41.017561,6399199,2079,324,406,-987,-639,-272,122,56,-126
25675,8995,0,2023-03-10T14:08:41.021890,6399203,2079,324,406,-987,-639,-272,122,56,-126
25676,8996,0,2023-03-10T14:08:41.026442,6399208,2079,324,406,-987,-639,-272,122,56,-126
25677,8997,0,2023-03-10T14:08:41.031849,6399213,2058,338,398,-991,-625,-289,122,56,-126
25678,8998,0,2023-03-10T14:08:41.037180,6399218,2058,338,398,-991,-625,-289,122,56,-126
25679,8999,0,2023-03-10T14:08:41.043047,6399224,2058,338,398,-991,-625,-289,122,56,-126
25680,9000,0,2023-03-10T14:08:41.047641,6399228,2058,338,398,-991,-625,-289,122,56,-126
25681,9001,0,2023-03-10T14:08:41.051900,6399234,2075,320,417,-985,-609,-277,125,47,-129
25682,9002,0,2023-03-10T14:08:41.056812,6399238,2075,320,417,-985,-609,-277,125,47,-129
25683,9003,0,2023-03-10T14:08:41.061725,6399243,2075,320,417,-985,-609,-277,125,47,-129
25684,9004,0,2023-03-10T14:08:41.066585,6399248,2075,320,417,-985,-609,-277,125,47,-129
25685,9005,0,2023-03-10T14:08:41.071149,6399252,2056,331,407,-983,-648,-293,125,47,-129
25686,9006,0,2023-03-10T14:08:41.075882,6399257,2056,331,407,-983,-648,-293,125,47,-129
25687,9007,0,2023-03-10T14:08:41.081132,6399262,2056,331,407,-983,-648,-293,125,47,-129
25688,9008,0,2023-03-10T14:08:41.086283,6399267,2056,331,407,-983,-648,-293,125,47,-129
25689,9009,0,2023-03-10T14:08:41.090734,6399272,2080,330,410,-994,-617,-291,125,47,-129
25690,9010,0,2023-03-10T14:08:41.095709,6399277,2080,330,410,-994,-617,-291,125,47,-129
25691,9011,0,2023-03-10T14:08:41.100944,6399282,2080,330,410,-994,-617,-291,125,47,-129
25692,9012,0,2023-03-10T14:08:41.105623,6399287,2080,330,410,-994,-617,-291,125,47,-129
25693,9013,0,2023-03-10T14:08:41.109931,6399291,2057,327,405,-981,-619,-287,125,47,-129
25694,9014,0,2023-03-10T14:08:41.114757,6399296,2057,327,405,-981,-619,-287,125,47,-129
25695,9015,0,2023-03-10T14:08:41.119977,6399301,2057,327,405,-981,-619,-287,125,47,-129
25696,9016,0,2023-03-10T14:08:41.124401,6399305,2057,327,405,-981,-619,-287,125,47,-129
25697,9017,0,2023-03-10T14:08:41.128740,6399310,2057,327,405,-981,-619,-287,125,47,-129
25698,9018,0,2023-03-10T14:08:41.133207,6399314,2058,324,407,-993,-626,-279,125,47,-129
25699,9019,0,2023-03-10T14:08:41.137696,6399319,2058,324,407,-993,-626,-279,125,47,-129
25700,9020,0,2023-03-10T14:08:41.142960,6399324,2058,324,407,-993,-626,-279,125,47,-129
25701,9021,0,2023-03-10T14:08:41.147447,6399329,2058,324,407,-993,-626,-279,125,47,-129
25702,9022,0,2023-03-10T14:08:41.152463,6399334,2080,334,407,-966,-630,-288,125,47,-129
25703,9023,0,2023-03-10T14:08:41.157095,6399338,2080,334,407,-966,-630,-288,125,47,-129
25704,9024,0,2023-03-10T14:08:41.161930,6399343,2080,334,407,-966,-630,-288,125,47,-129
25705,9025,0,2023-03-10T14:08:41.166408,6399347,2080,334,407,-966,-630,-288,125,47,-129
25706,9026,0,2023-03-10T14:08:41.170880,6399352,2081,338,407,-983,-628,-284,115,51,-131
25707,9027,0,2023-03-10T14:08:41.176448,6399357,2081,338,407,-983,-628,-284,115,51,-131
25708,9028,0,2023-03-10T14:08:41.180958,6399363,2081,338,407,-983,-628,-284,115,51,-131
25709,9029,0,2023-03-10T14:08:41.185314,6399367,2081,338,407,-983,-628,-284,115,51,-131
25710,9030,0,2023-03-10T14:08:41.189699,6399371,2059,325,400,-985,-638,-276,115,51,-131
25711,9031,0,2023-03-10T14:08:41.194813,6399376,2059,325,400,-985,-638,-276,115,51,-131
25712,9032,0,2023-03-10T14:08:41.199734,6399381,2059,325,400,-985,-638,-276,115,51,-131
25713,9033,0,2023-03-10T14:08:41.204290,6399385,2059,325,400,-985,-638,-276,115,51,-131
25714,9034,0,2023-03-10T14:08:41.208917,6399390,2059,325,400,-985,-638,-276,115,51,-131
25715,9035,0,2023-03-10T14:08:41.213338,6399394,2085,324,416,-989,-607,-289,115,51,-131
25716,9036,0,2023-03-10T14:08:41.218371,6399399,2085,324,416,-989,-607,-289,115,51,-131
25717,9037,0,2023-03-10T14:08:41.223517,6399405,2085,324,416,-989,-607,-289,115,51,-131
25718,9038,0,2023-03-10T14:08:41.228225,6399410,2085,324,416,-989,-607,-289,115,51,-131
25719,9039,0,2023-03-10T14:08:41.232529,6399414,2055,323,395,-999,-663,-278,115,51,-131
25720,9040,0,2023-03-10T14:08:41.237646,6399419,2055,323,395,-999,-663,-278,115,51,-131
25721,9041,0,2023-03-10T14:08:41.242291,6399423,2055,323,395,-999,-663,-278,115,51,-131
25722,9042,0,2023-03-10T14:08:41.246693,6399428,2055,323,395,-999,-663,-278,115,51,-131
25723,9043,0,2023-03-10T14:08:41.251098,6399432,2088,334,404,-989,-618,-293,115,51,-131
25724,9044,0,2023-03-10T14:08:41.256053,6399437,2088,334,404,-989,-618,-293,115,51,-131
25725,9045,0,2023-03-10T14:08:41.261341,6399442,2088,334,404,-989,-618,-293,115,51,-131
25726,9046,0,2023-03-10T14:08:41.265908,6399448,2088,334,404,-989,-618,-293,115,51,-131
25727,9047,0,2023-03-10T14:08:41.270294,6399452,2059,323,400,-963,-635,-263,115,51,-131
25728,9048,0,2023-03-10T14:08:41.275365,6399457,2059,323,400,-963,-635,-263,115,51,-131
25729,9049,0,2023-03-10T14:08:41.280283,6399462,2059,323,400,-963,-635,-263,115,51,-131
25730,9050,0,2023-03-10T14:08:41.284703,6399466,2059,323,400,-963,-635,-263,115,51,-131
25731,9051,0,2023-03-10T14:08:41.289190,6399470,2059,323,400,-963,-635,-263,115,51,-131
25732,9052,0,2023-03-10T14:08:41.293707,6399475,2059,320,408,-1005,-620,-289,117,61,-135
25733,9053,0,2023-03-10T14:08:41.298917,6399480,2059,320,408,-1005,-620,-289,117,61,-135
25734,9054,0,2023-03-10T14:08:41.303379,6399484,2059,320,408,-1005,-620,-289,117,61,-135
25735,9055,0,2023-03-10T14:08:41.307767,6399490,2059,320,408,-1005,-620,-289,117,61,-135
25736,9056,0,2023-03-10T14:08:41.312278,6399494,2086,335,390,-1004,-649,-300,117,61,-135
25737,9057,0,2023-03-10T14:08:41.317612,6399499,2086,335,390,-1004,-649,-300,117,61,-135
25738,9058,0,2023-03-10T14:08:41.322510,6399504,2086,335,390,-1004,-649,-300,117,61,-135
25739,9059,0,2023-03-10T14:08:41.327007,6399508,2086,335,390,-1004,-649,-300,117,61,-135
25740,9060,0,2023-03-10T14:08:41.331370,6399513,2072,325,416,-949,-626,-265,117,61,-135
25741,9061,0,2023-03-10T14:08:41.336246,6399517,2072,325,416,-949,-626,-265,117,61,-135
25742,9062,0,2023-03-10T14:08:41.341365,6399522,2072,325,416,-949,-626,-265,117,61,-135
25743,9063,0,2023-03-10T14:08:41.345963,6399527,2072,325,416,-949,-626,-265,117,61,-135
25744,9064,0,2023-03-10T14:08:41.350321,6399532,2064,325,399,-999,-624,-289,117,61,-135
25745,9065,0,2023-03-10T14:08:41.355360,6399537,2064,325,399,-999,-624,-289,117,61,-135
25746,9066,0,2023-03-10T14:08:41.360080,6399542,2064,325,399,-999,-624,-289,117,61,-135
25747,9067,0,2023-03-10T14:08:41.364405,6399546,2064,325,399,-999,-624,-289,117,61,-135
25748,9068,0,2023-03-10T14:08:41.369049,6399550,2064,325,399,-999,-624,-289,117,61,-135
25749,9069,0,2023-03-10T14:08:41.373380,6399555,2060,325,408,-1008,-647,-299,117,61,-135
25750,9070,0,2023-03-10T14:08:41.378357,6399559,2060,325,408,-1008,-647,-299,117,61,-135
25751,9071,0,2023-03-10T14:08:41.383116,6399564,2060,325,408,-1008,-647,-299,117,61,-135
25752,9072,0,2023-03-10T14:08:41.387455,6399568,2060,325,408,-1008,-647,-299,117,61,-135
25753,9073,0,2023-03-10T14:08:41.391978,6399574,2079,326,398,-1010,-619,-295,117,61,-135
25754,9074,0,2023-03-10T14:08:41.396379,6399578,2079,326,398,-1010,-619,-295,117,61,-135
25755,9075,0,2023-03-10T14:08:41.401049,6399583,2079,326,398,-1010,-619,-295,117,61,-135
25756,9076,0,2023-03-10T14:08:41.405694,6399587,2079,326,398,-1010,-619,-295,117,61,-135
25757,9077,0,2023-03-10T14:08:41.410157,6399592,2066,331,402,-995,-636,-293,117,61,-135
25758,9078,0,2023-03-10T14:08:41.414517,6399596,2066,331,402,-995,-636,-293,117,61,-135
25759,9079,0,2023-03-10T14:08:41.418911,6399600,2066,331,402,-995,-636,-293,117,61,-135
25760,9080,0,2023-03-10T14:08:41.423820,6399605,2066,331,402,-995,-636,-293,117,61,-135
25761,9081,0,2023-03-10T14:08:41.428539,6399609,2066,331,402,-995,-636,-293,117,61,-135
25762,9082,0,2023-03-10T14:08:41.433064,6399614,2070,324,408,-981,-618,-277,124,62,-132
25763,9083,0,2023-03-10T14:08:41.437709,6399619,2070,324,408,-981,-618,-277,124,62,-132
25764,9084,0,2023-03-10T14:08:41.442730,6399624,2070,324,408,-981,-618,-277,124,62,-132
25765,9085,0,2023-03-10T14:08:41.447334,6399629,2070,324,408,-981,-618,-277,124,62,-132
25766,9086,0,2023-03-10T14:08:41.451672,6399633,2059,323,409,-995,-654,-291,124,62,-132
25767,9087,0,2023-03-10T14:08:41.456591,6399638,2059,323,409,-995,-654,-291,124,62,-132
25768,9088,0,2023-03-10T14:08:41.461109,6399642,2059,323,409,-995,-654,-291,124,62,-132
25769,9089,0,2023-03-10T14:08:41.465863,6399647,2059,323,409,-995,-654,-291,124,62,-132
25770,9090,0,2023-03-10T14:08:41.470387,6399651,2079,329,400,-1015,-617,-293,124,62,-132
25771,9091,0,2023-03-10T14:08:41.475253,6399656,2079,329,400,-1015,-617,-293,124,62,-132
25772,9092,0,2023-03-10T14:08:41.480407,6399662,2079,329,400,-1015,-617,-293,124,62,-132
25773,9093,0,2023-03-10T14:08:41.484946,6399667,2079,329,400,-1015,-617,-293,124,62,-132
25774,9094,0,2023-03-10T14:08:41.489324,6399671,2079,329,400,-1015,-617,-293,124,62,-132
25775,9095,0,2023-03-10T14:08:41.493473,6399675,2067,323,397,-982,-644,-294,124,62,-132
25776,9096,0,2023-03-10T14:08:41.498558,6399680,2067,323,397,-982,-644,-294,124,62,-132
25777,9097,0,2023-03-10T14:08:41.503810,6399685,2067,323,397,-982,-644,-294,124,62,-132
25778,9098,0,2023-03-10T14:08:41.508234,6399689,2067,323,397,-982,-644,-294,124,62,-132
25779,9099,0,2023-03-10T14:08:41.512404,6399693,2084,335,390,-995,-622,-290,124,62,-132
25780,9100,0,2023-03-10T14:08:41.517239,6399698,2084,335,390,-995,-622,-290,124,62,-132
25781,9101,0,2023-03-10T14:08:41.522460,6399704,2084,335,390,-995,-622,-290,124,62,-132
25782,9102,0,2023-03-10T14:08:41.527038,6399709,2084,335,390,-995,-622,-290,124,62,-132
25783,9103,0,2023-03-10T14:08:41.531878,6399713,2046,319,412,-960,-613,-258,124,62,-132
25784,9104,0,2023-03-10T14:08:41.536772,6399718,2046,319,412,-960,-613,-258,124,62,-132
25785,9105,0,2023-03-10T14:08:41.541725,6399723,2046,319,412,-960,-613,-258,124,62,-132
25786,9106,0,2023-03-10T14:08:41.546293,6399727,2046,319,412,-960,-613,-258,124,62,-132
25787,9107,0,2023-03-10T14:08:41.550992,6399732,2086,333,400,-1004,-642,-310,115,59,-129
25788,9108,0,2023-03-10T14:08:41.555213,6399736,2086,333,400,-1004,-642,-310,115,59,-129
25789,9109,0,2023-03-10T14:08:41.560241,6399741,2086,333,400,-1004,-642,-310,115,59,-129
25790,9110,0,2023-03-10T14:08:41.564866,6399746,2086,333,400,-1004,-642,-310,115,59,-129
25791,9111,0,2023-03-10T14:08:41.569202,6399751,2086,333,400,-1004,-642,-310,115,59,-129
25792,9112,0,2023-03-10T14:08:41.573906,6399755,2069,323,401,-1007,-624,-280,115,59,-129
25793,9113,0,2023-03-10T14:08:41.578904,6399760,2069,323,401,-1007,-624,-280,115,59,-129
25794,9114,0,2023-03-10T14:08:41.583647,6399765,2069,323,401,-1007,-624,-280,115,59,-129
25795,9115,0,2023-03-10T14:08:41.588056,6399769,2069,323,401,-1007,-624,-280,115,59,-129
25796,9116,0,2023-03-10T14:08:41.592459,6399774,2084,336,400,-994,-660,-314,115,59,-129
25797,9117,0,2023-03-10T14:08:41.597351,6399778,2084,336,400,-994,-660,-314,115,59,-129
25798,9118,0,2023-03-10T14:08:41.602337,6399783,2084,336,400,-994,-660,-314,115,59,-129
25799,9119,0,2023-03-10T14:08:41.606628,6399788,2084,336,400,-994,-660,-314,115,59,-129
25800,9120,0,2023-03-10T14:08:41.611990,6399794,2061,321,389,-987,-662,-264,115,59,-129
25801,9121,0,2023-03-10T14:08:41.616823,6399798,2061,321,389,-987,-662,-264,115,59,-129
25802,9122,0,2023-03-10T14:08:41.621201,6399803,2061,321,389,-987,-662,-264,115,59,-129
25803,9123,0,2023-03-10T14:08:41.625571,6399807,2061,321,389,-987,-662,-264,115,59,-129
25804,9124,0,2023-03-10T14:08:41.630530,6399811,2067,324,408,-973,-580,-290,115,59,-129
25805,9125,0,2023-03-10T14:08:41.635251,6399816,2067,324,408,-973,-580,-290,115,59,-129
25806,9126,0,2023-03-10T14:08:41.639684,6399821,2067,324,408,-973,-580,-290,115,59,-129
25807,9127,0,2023-03-10T14:08:41.644122,6399825,2067,324,408,-973,-580,-290,115,59,-129
25808,9128,0,2023-03-10T14:08:41.648619,6399830,2067,324,408,-973,-580,-290,115,59,-129
25809,9129,0,2023-03-10T14:08:41.653122,6399835,2097,333,391,-1022,-619,-315,115,59,-129
25810,9130,0,2023-03-10T14:08:41.657971,6399840,2097,333,391,-1022,-619,-315,115,59,-129
25811,9131,0,2023-03-10T14:08:41.662850,6399844,2097,333,391,-1022,-619,-315,115,59,-129
25812,9132,0,2023-03-10T14:08:41.667210,6399849,2097,333,391,-1022,-619,-315,115,59,-129
25813,9133,0,2023-03-10T14:08:41.671804,6399853,2044,317,392,-992,-659,-277,115,59,-129
25814,9134,0,2023-03-10T14:08:41.676584,6399858,2044,317,392,-992,-659,-277,115,59,-129
25815,9135,0,2023-03-10T14:08:41.680982,6399862,2044,317,392,-992,-659,-277,115,59,-129
25816,9136,0,2023-03-10T14:08:41.685406,6399866,2044,317,392,-992,-659,-277,115,59,-129
25817,9137,0,2023-03-10T14:08:41.689890,6399872,2044,317,392,-992,-659,-277,115,59,-129
25818,9138,0,2023-03-10T14:08:41.694457,6399876,2044,317,392,-992,-659,-277,119,53,-135
25819,9139,0,2023-03-10T14:08:41.699151,6399880,2044,317,392,-992,-659,-277,119,53,-135
25820,9140,0,2023-03-10T14:08:41.704052,6399886,2044,317,392,-992,-659,-277,119,53,-135
25821,9141,0,2023-03-10T14:08:41.708489,6399890,2044,317,392,-992,-659,-277,119,53,-135
25822,9142,0,2023-03-10T14:08:41.712786,6399894,2065,323,409,-959,-639,-262,119,53,-135
25823,9143,0,2023-03-10T14:08:41.717810,6399899,2065,323,409,-959,-639,-262,119,53,-135
25824,9144,0,2023-03-10T14:08:41.722617,6399904,2065,323,409,-959,-639,-262,119,53,-135
25825,9145,0,2023-03-10T14:08:41.727167,6399908,2065,323,409,-959,-639,-262,119,53,-135
25826,9146,0,2023-03-10T14:08:41.731486,6399912,2081,322,402,-984,-620,-298,119,53,-135
25827,9147,0,2023-03-10T14:08:41.736670,6399918,2081,322,402,-984,-620,-298,119,53,-135
25828,9148,0,2023-03-10T14:08:41.741617,6399923,2081,322,402,-984,-620,-298,119,53,-135
25829,9149,0,2023-03-10T14:08:41.745904,6399928,2081,322,402,-984,-620,-298,119,53,-135
25830,9150,0,2023-03-10T14:08:41.750085,6399932,2064,321,399,-1003,-622,-287,119,53,-135
25831,9151,0,2023-03-10T14:08:41.754447,6399936,2064,321,399,-1003,-622,-287,119,53,-135
25832,9152,0,2023-03-10T14:08:41.758826,6399940,2064,321,399,-1003,-622,-287,119,53,-135
25833,9153,0,2023-03-10T14:08:41.763875,6399945,2064,321,399,-1003,-622,-287,119,53,-135
25834,9154,0,2023-03-10T14:08:41.768179,6399949,2064,321,399,-1003,-622,-287,119,53,-135
25835,9155,0,2023-03-10T14:08:41.772834,6399954,2069,323,393,-984,-662,-289,119,53,-135
25836,9156,0,2023-03-10T14:08:41.777420,6399959,2069,323,393,-984,-662,-289,119,53,-135
25837,9157,0,2023-03-10T14:08:41.782457,6399964,2069,323,393,-984,-662,-289,119,53,-135
25838,9158,0,2023-03-10T14:08:41.787115,6399968,2069,323,393,-984,-662,-289,119,53,-135
25839,9159,0,2023-03-10T14:08:41.791477,6399973,2084,327,391,-998,-604,-287,119,53,-135
25840,9160,0,2023-03-10T14:08:41.796152,6399977,2084,327,391,-998,-604,-287,119,53,-135
25841,9161,0,2023-03-10T14:08:41.801688,6399983,2084,327,391,-998,-604,-287,119,53,-135
25842,9162,0,2023-03-10T14:08:41.805960,6399987,2084,327,391,-998,-604,-287,119,53,-135
25843,9163,0,2023-03-10T14:08:41.810732,6399992,2064,323,409,-947,-641,-263,126,60,-122
25844,9164,0,2023-03-10T14:08:41.815844,6399997,2064,323,409,-947,-641,-263,126,60,-122
25845,9165,0,2023-03-10T14:08:41.820789,6400003,2064,323,409,-947,-641,-263,126,60,-122
25846,9166,0,2023-03-10T14:08:41.825528,6400007,2064,323,409,-947,-641,-263,126,60,-122
25847,9167,0,2023-03-10T14:08:41.830020,6400011,2064,323,409,-947,-641,-263,126,60,-122
25848,9168,0,2023-03-10T14:08:41.834895,6400016,2079,331,398,-1007,-619,-301,126,60,-122
25849,9169,0,2023-03-10T14:08:41.839870,6400021,2079,331,398,-1007,-619,-301,126,60,-122
25850,9170,0,2023-03-10T14:08:41.844471,6400026,2079,331,398,-1007,-619,-301,126,60,-122
25851,9171,0,2023-03-10T14:08:41.848702,6400030,2079,331,398,-1007,-619,-301,126,60,-122
25852,9172,0,2023-03-10T14:08:41.853160,6400034,2057,321,397,-1001,-626,-286,126,60,-122
25853,9173,0,2023-03-10T14:08:41.857936,6400039,2057,321,397,-1001,-626,-286,126,60,-122
25854,9174,0,2023-03-10T14:08:41.863143,6400045,2057,321,397,-1001,-626,-286,126,60,-122
25855,9175,0,2023-03-10T14:08:41.867411,6400049,2057,321,397,-1001,-626,-286,126,60,-122
25856,9176,0,2023-03-10T14:08:41.871818,6400053,2088,335,396,-993,-640,-315,126,60,-122
25857,9177,0,2023-03-10T14:08:41.876632,6400058,2088,335,396,-993,-640,-315,126,60,-122
25858,9178,0,2023-03-10T14:08:41.881705,6400063,2088,335,396,-993,-640,-315,126,60,-122
25859,9179,0,2023-03-10T14:08:41.885985,6400067,2088,335,396,-993,-640,-315,126,60,-122
25860,9180,0,2023-03-10T14:08:41.890385,6400072,2075,328,389,-992,-631,-277,126,60,-122
25861,9181,0,2023-03-10T14:08:41.895225,6400076,2075,328,389,-992,-631,-277,126,60,-122
25862,9182,0,2023-03-10T14:08:41.900540,6400081,2075,328,389,-992,-631,-277,126,60,-122
25863,9183,0,2023-03-10T14:08:41.904916,6400087,2075,328,389,-992,-631,-277,126,60,-122
25864,9184,0,2023-03-10T14:08:41.909428,6400091,2075,328,389,-992,-631,-277,126,60,-122
25865,9185,0,2023-03-10T14:08:41.913856,6400095,2059,317,407,-965,-617,-270,126,60,-122
25866,9186,0,2023-03-10T14:08:41.918342,6400100,2059,317,407,-965,-617,-270,126,60,-122
25867,9187,0,2023-03-10T14:08:41.923186,6400105,2059,317,407,-965,-617,-270,126,60,-122
25868,9188,0,2023-03-10T14:08:41.927704,6400109,2059,317,407,-965,-617,-270,126,60,-122
25869,9189,0,2023-03-10T14:08:41.932732,6400114,2068,328,399,-1002,-658,-298,126,60,-122
25870,9190,0,2023-03-10T14:08:41.937586,6400119,2068,328,399,-1002,-658,-298,126,60,-122
25871,9191,0,2023-03-10T14:08:41.942128,6400123,2068,328,399,-1002,-658,-298,126,60,-122
25872,9192,0,2023-03-10T14:08:41.946554,6400128,2068,328,399,-1002,-658,-298,126,60,-122
25873,9193,0,2023-03-10T14:08:41.951178,6400133,2075,323,400,-1003,-618,-291,116,56,-134
25874,9194,0,2023-03-10T14:08:41.956185,6400138,2075,323,400,-1003,-618,-291,116,56,-134
25875,9195,0,2023-03-10T14:08:41.961085,6400143,2075,323,400,-1003,-618,-291,116,56,-134
25876,9196,0,2023-03-10T14:08:41.965522,6400147,2075,323,400,-1003,-618,-291,116,56,-134
25877,9197,0,2023-03-10T14:08:41.970099,6400151,2075,323,400,-1003,-618,-291,116,56,-134
25878,9198,0,2023-03-10T14:08:41.974964,6400156,2075,323,402,-981,-650,-290,116,56,-134
25879,9199,0,2023-03-10T14:08:41.980304,6400161,2075,323,402,-981,-650,-290,116,56,-134
25880,9200,0,2023-03-10T14:08:41.984827,6400166,2075,323,402,-981,-650,-290,116,56,-134
25881,9201,0,2023-03-10T14:08:41.989338,6400171,2075,323,402,-981,-650,-290,116,56,-134
25882,9202,0,2023-03-10T14:08:41.993807,6400176,2078,328,383,-1002,-623,-290,116,56,-134
25883,9203,0,2023-03-10T14:08:41.998869,6400180,2078,328,383,-1002,-623,-290,116,56,-134
25884,9204,0,2023-03-10T14:08:42.003819,6400185,2078,328,383,-1002,-623,-290,116,56,-134
25885,9205,0,2023-03-10T14:08:42.008340,6400190,2078,328,383,-1002,-623,-290,116,56,-134
25886,9206,0,2023-03-10T14:08:42.013195,6400195,2055,320,406,-969,-619,-276,116,56,-134
25887,9207,0,2023-03-10T14:08:42.018166,6400199,2055,320,406,-969,-619,-276,116,56,-134
25888,9208,0,2023-03-10T14:08:42.023214,6400204,2055,320,406,-969,-619,-276,116,56,-134
25889,9209,0,2023-03-10T14:08:42.027358,6400208,2055,320,406,-969,-619,-276,116,56,-134
25890,9210,0,2023-03-10T14:08:42.032023,6400212,2093,336,398,-994,-648,-305,116,56,-134
25891,9211,0,2023-03-10T14:08:42.037006,6400219,2093,336,398,-994,-648,-305,116,56,-134
25892,9212,0,2023-03-10T14:08:42.041540,6400223,2093,336,398,-994,-648,-305,116,56,-134
25893,9213,0,2023-03-10T14:08:42.045908,6400227,2093,336,398,-994,-648,-305,116,56,-134
25894,9214,0,2023-03-10T14:08:42.050287,6400232,2093,336,398,-994,-648,-305,116,56,-134
25895,9215,0,2023-03-10T14:08:42.054820,6400236,2067,325,397,-998,-615,-272,116,56,-134
25896,9216,0,2023-03-10T14:08:42.059755,6400241,2067,325,397,-998,-615,-272,116,56,-134
25897,9217,0,2023-03-10T14:08:42.064764,6400246,2067,325,397,-998,-615,-272,116,56,-134
25898,9218,0,2023-03-10T14:08:42.069020,6400250,2067,325,397,-998,-615,-272,116,56,-134
25899,9219,0,2023-03-10T14:08:42.073403,6400254,2092,326,399,-977,-653,-298,114,60,-130
25900,9220,0,2023-03-10T14:08:42.078310,6400260,2092,326,399,-977,-653,-298,114,60,-130
25901,9221,0,2023-03-10T14:08:42.083342,6400265,2092,326,399,-977,-653,-298,114,60,-130
25902,9222,0,2023-03-10T14:08:42.087892,6400269,2092,326,399,-977,-653,-298,114,60,-130
25903,9223,0,2023-03-10T14:08:42.092445,6400274,2059,322,388,-987,-660,-274,114,60,-130
25904,9224,0,2023-03-10T14:08:42.097817,6400279,2059,322,388,-987,-660,-274,114,60,-130
25905,9225,0,2023-03-10T14:08:42.102335,6400283,2059,322,388,-987,-660,-274,114,60,-130
25906,9226,0,2023-03-10T14:08:42.106586,6400288,2059,322,388,-987,-660,-274,114,60,-130
25907,9227,0,2023-03-10T14:08:42.111812,6400293,2073,324,394,-980,-582,-297,114,60,-130
25908,9228,0,2023-03-10T14:08:42.117057,6400299,2073,324,394,-980,-582,-297,114,60,-130
25909,9229,0,2023-03-10T14:08:42.122260,6400304,2073,324,394,-980,-582,-297,114,60,-130
25910,9230,0,2023-03-10T14:08:42.126734,6400308,2073,324,394,-980,-582,-297,114,60,-130
25911,9231,0,2023-03-10T14:08:42.131442,6400313,2096,336,395,-989,-610,-303,114,60,-130
25912,9232,0,2023-03-10T14:08:42.137532,6400319,2096,336,395,-989,-610,-303,114,60,-130
25913,9233,0,2023-03-10T14:08:42.142936,6400324,2096,336,395,-989,-610,-303,114,60,-130
25914,9234,0,2023-03-10T14:08:42.147869,6400329,2096,336,395,-989,-610,-303,114,60,-130
25915,9235,0,2023-03-10T14:08:42.152460,6400333,2047,314,390,-994,-627,-266,114,60,-130
25916,9236,0,2023-03-10T14:08:42.158061,6400338,2047,314,390,-994,-627,-266,114,60,-130
25917,9237,0,2023-03-10T14:08:42.163699,6400345,2047,314,390,-994,-627,-266,114,60,-130
25918,9238,0,2023-03-10T14:08:42.168902,6400350,2047,314,390,-994,-627,-266,114,60,-130
25919,9239,0,2023-03-10T14:08:42.173318,6400355,2095,331,395,-1000,-601,-309,114,60,-130
25920,9240,0,2023-03-10T14:08:42.178360,6400360,2095,331,395,-1000,-601,-309,114,60,-130
25921,9241,0,2023-03-10T14:08:42.183508,6400365,2095,331,395,-1000,-601,-309,114,60,-130
25922,9242,0,2023-03-10T14:08:42.187934,6400369,2095,331,395,-1000,-601,-309,114,60,-130
25923,9243,0,2023-03-10T14:08:42.192249,6400373,2054,314,393,-954,-646,-254,114,62,-122
25924,9244,0,2023-03-10T14:08:42.197521,6400378,2054,314,393,-954,-646,-254,114,62,-122
25925,9245,0,2023-03-10T14:08:42.203161,6400385,2054,314,393,-954,-646,-254,114,62,-122
25926,9246,0,2023-03-10T14:08:42.207692,6400389,2054,314,393,-954,-646,-254,114,62,-122
25927,9247,0,2023-03-10T14:08:42.212188,6400394,2094,330,391,-1006,-622,-307,114,62,-122
25928,9248,0,2023-03-10T14:08:42.217485,6400399,2094,330,391,-1006,-622,-307,114,62,-122
25929,9249,0,2023-03-10T14:08:42.221869,6400403,2094,330,391,-1006,-622,-307,114,62,-122
25930,9250,0,2023-03-10T14:08:42.226237,6400408,2094,330,391,-1006,-622,-307,114,62,-122
25931,9251,0,2023-03-10T14:08:42.231240,6400412,2066,320,386,-994,-638,-281,114,62,-122
25932,9252,0,2023-03-10T14:08:42.235985,6400417,2066,320,386,-994,-638,-281,114,62,-122
25933,9253,0,2023-03-10T14:08:42.241269,6400422,2066,320,386,-994,-638,-281,114,62,-122
25934,9254,0,2023-03-10T14:08:42.245949,6400428,2066,320,386,-994,-638,-281,114,62,-122
25935,9255,0,2023-03-10T14:08:42.250287,6400432,2066,320,386,-994,-638,-281,114,62,-122
25936,9256,0,2023-03-10T14:08:42.255696,6400437,2067,328,396,-986,-615,-294,114,62,-122
25937,9257,0,2023-03-10T14:08:42.261260,6400443,2067,328,396,-986,-615,-294,114,62,-122
25938,9258,0,2023-03-10T14:08:42.265632,6400447,2067,328,396,-986,-615,-294,114,62,-122
25939,9259,0,2023-03-10T14:08:42.269901,6400451,2067,328,396,-986,-615,-294,114,62,-122
25940,9260,0,2023-03-10T14:08:42.274388,6400456,2093,335,396,-980,-629,-282,114,62,-122
25941,9261,0,2023-03-10T14:08:42.279683,6400460,2093,335,396,-980,-629,-282,114,62,-122
25942,9262,0,2023-03-10T14:08:42.284790,6400466,2093,335,396,-980,-629,-282,114,62,-122
25943,9263,0,2023-03-10T14:08:42.289423,6400471,2093,335,396,-980,-629,-282,114,62,-122
25944,9264,0,2023-03-10T14:08:42.293979,6400476,2064,321,408,-955,-617,-261,114,62,-122
25945,9265,0,2023-03-10T14:08:42.299048,6400480,2064,321,408,-955,-617,-261,114,62,-122
25946,9266,0,2023-03-10T14:08:42.304186,6400485,2064,321,408,-955,-617,-261,114,62,-122
25947,9267,0,2023-03-10T14:08:42.308900,6400490,2064,321,408,-955,-617,-261,114,62,-122
25948,9268,0,2023-03-10T14:08:42.314084,6400495,2070,316,392,-1021,-619,-298,114,62,-122
25949,9269,0,2023-03-10T14:08:42.319509,6400500,2070,316,392,-1021,-619,-298,114,62,-122
25950,9270,0,2023-03-10T14:08:42.324245,6400505,2070,316,392,-1021,-619,-298,114,62,-122
25951,9271,0,2023-03-10T14:08:42.328839,6400510,2070,316,392,-1021,-619,-298,114,62,-122
25952,9272,0,2023-03-10T14:08:42.333580,6400515,2073,324,387,-984,-666,-288,119,51,-137
25953,9273,0,2023-03-10T14:08:42.338602,6400520,2073,324,387,-984,-666,-288,119,51,-137
25954,9274,0,2023-03-10T14:08:42.343581,6400525,2073,324,387,-984,-666,-288,119,51,-137
25955,9275,0,2023-03-10T14:08:42.348208,6400530,2073,324,387,-984,-666,-288,119,51,-137
25956,9276,0,2023-03-10T14:08:42.352726,6400534,2077,323,401,-951,-608,-274,119,51,-137
25957,9277,0,2023-03-10T14:08:42.358011,6400539,2077,323,401,-951,-608,-274,119,51,-137
25958,9278,0,2023-03-10T14:08:42.363356,6400544,2077,323,401,-951,-608,-274,119,51,-137
25959,9279,0,2023-03-10T14:08:42.367855,6400549,2077,323,401,-951,-608,-274,119,51,-137
25960,9280,0,2023-03-10T14:08:42.372181,6400553,2073,323,393,-988,-628,-295,119,51,-137
25961,9281,0,2023-03-10T14:08:42.377084,6400559,2073,323,393,-988,-628,-295,119,51,-137
25962,9282,0,2023-03-10T14:08:42.382220,6400564,2073,323,393,-988,-628,-295,119,51,-137
25963,9283,0,2023-03-10T14:08:42.386831,6400568,2073,323,393,-988,-628,-295,119,51,-137
25964,9284,0,2023-03-10T14:08:42.392041,6400573,2080,329,384,-1011,-608,-301,119,51,-137
25965,9285,0,2023-03-10T14:08:42.397406,6400579,2080,329,384,-1011,-608,-301,119,51,-137
25966,9286,0,2023-03-10T14:08:42.402498,6400583,2080,329,384,-1011,-608,-301,119,51,-137
25967,9287,0,2023-03-10T14:08:42.407046,6400588,2080,329,384,-1011,-608,-301,119,51,-137
25968,9288,0,2023-03-10T14:08:42.411672,6400592,2063,319,399,-954,-639,-273,119,51,-137
25969,9289,0,2023-03-10T14:08:42.416886,6400599,2063,319,399,-954,-639,-273,119,51,-137
25970,9290,0,2023-03-10T14:08:42.421535,6400603,2063,319,399,-954,-639,-273,119,51,-137
25971,9291,0,2023-03-10T14:08:42.426006,6400608,2063,319,399,-954,-639,-273,119,51,-137
25972,9292,0,2023-03-10T14:08:42.430283,6400612,2063,319,399,-954,-639,-273,119,51,-137
25973,9293,0,2023-03-10T14:08:42.435615,6400617,2088,328,396,-1002,-599,-299,119,51,-137
25974,9294,0,2023-03-10T14:08:42.441328,6400623,2088,328,396,-1002,-599,-299,119,51,-137
25975,9295,0,2023-03-10T14:08:42.445932,6400627,2088,328,396,-1002,-599,-299,119,51,-137
25976,9296,0,2023-03-10T14:08:42.450483,6400631,2088,328,396,-1002,-599,-299,119,51,-137
25977,9297,0,2023-03-10T14:08:42.455726,6400636,2074,322,389,-1003,-691,-288,118,60,-130
25978,9298,0,2023-03-10T14:08:42.461026,6400643,2074,322,389,-1003,-691,-288,118,60,-130
25979,9299,0,2023-03-10T14:08:42.465757,6400647,2074,322,389,-1003,-691,-288,118,60,-130
25980,9300,0,2023-03-10T14:08:42.470456,6400652,2074,322,389,-1003,-691,-288,118,60,-130
25981,9301,0,2023-03-10T14:08:42.475609,6400657,2084,324,380,-997,-638,-292,118,60,-130
25982,9302,0,2023-03-10T14:08:42.481348,6400662,2084,324,380,-997,-638,-292,118,60,-130
25983,9303,0,2023-03-10T14:08:42.485988,6400667,2084,324,380,-997,-638,-292,118,60,-130
25984,9304,0,2023-03-10T14:08:42.490530,6400671,2084,324,380,-997,-638,-292,118,60,-130
25985,9305,0,2023-03-10T14:08:42.495046,6400676,2065,325,392,-988,-572,-286,118,60,-130
25986,9306,0,2023-03-10T14:08:42.499503,6400680,2065,325,392,-988,-572,-286,118,60,-130
25987,9307,0,2023-03-10T14:08:42.503962,6400686,2065,325,392,-988,-572,-286,118,60,-130
25988,9308,0,2023-03-10T14:08:42.508292,6400690,2065,325,392,-988,-572,-286,118,60,-130
25989,9309,0,2023-03-10T14:08:42.512915,6400694,2088,329,390,-948,-634,-286,118,60,-130
25990,9310,0,2023-03-10T14:08:42.518423,6400700,2088,329,390,-948,-634,-286,118,60,-130
25991,9311,0,2023-03-10T14:08:42.523659,6400705,2088,329,390,-948,-634,-286,118,60,-130
25992,9312,0,2023-03-10T14:08:42.528254,6400709,2088,329,390,-948,-634,-286,118,60,-130
25993,9313,0,2023-03-10T14:08:42.532882,6400714,2074,317,389,-996,-616,-281,118,60,-130
25994,9314,0,2023-03-10T14:08:42.537728,6400718,2074,317,389,-996,-616,-281,118,60,-130
25995,9315,0,2023-03-10T14:08:42.543024,6400724,2074,317,389,-996,-616,-281,118,60,-130
25996,9316,0,2023-03-10T14:08:42.547855,6400729,2074,317,389,-996,-616,-281,118,60,-130
25997,9317,0,2023-03-10T14:08:42.553359,6400735,2085,321,376,-1005,-627,-302,118,60,-130
25998,9318,0,2023-03-10T14:08:42.558547,6400740,2085,321,376,-1005,-627,-302,118,60,-130
25999,9319,0,2023-03-10T14:08:42.563699,6400745,2085,321,376,-1005,-627,-302,118,60,-130
26000,9320,0,2023-03-10T14:08:42.568220,6400749,2085,321,376,-1005,-627,-302,118,60,-130
26001,9321,0,2023-03-10T14:08:42.573131,6400754,2070,320,390,-986,-630,-278,118,60,-130
26002,9322,0,2023-03-10T14:08:42.577953,6400759,2070,320,390,-986,-630,-278,118,60,-130
26003,9323,0,2023-03-10T14:08:42.582845,6400763,2070,320,390,-986,-630,-278,118,60,-130
26004,9324,0,2023-03-10T14:08:42.587514,6400769,2070,320,390,-986,-630,-278,118,60,-130
26005,9325,0,2023-03-10T14:08:42.592427,6400774,2082,328,393,-995,-627,-301,113,63,-143
26006,9326,0,2023-03-10T14:08:42.597578,6400779,2082,328,393,-995,-627,-301,113,63,-143
26007,9327,0,2023-03-10T14:08:42.602549,6400784,2082,328,393,-995,-627,-301,113,63,-143
26008,9328,0,2023-03-10T14:08:42.607007,6400788,2082,328,393,-995,-627,-301,113,63,-143
26009,9329,0,2023-03-10T14:08:42.611494,6400793,2091,327,388,-984,-630,-296,113,63,-143
26010,9330,0,2023-03-10T14:08:42.616522,6400798,2091,327,388,-984,-630,-296,113,63,-143
26011,9331,0,2023-03-10T14:08:42.621656,6400802,2091,327,388,-984,-630,-296,113,63,-143
26012,9332,0,2023-03-10T14:08:42.626266,6400807,2091,327,388,-984,-630,-296,113,63,-143
26013,9333,0,2023-03-10T14:08:42.630684,6400812,2091,327,388,-984,-630,-296,113,63,-143
26014,9334,0,2023-03-10T14:08:42.635553,6400817,2060,320,386,-992,-623,-283,113,63,-143
26015,9335,0,2023-03-10T14:08:42.640810,6400822,2060,320,386,-992,-623,-283,113,63,-143
26016,9336,0,2023-03-10T14:08:42.645230,6400827,2060,320,386,-992,-623,-283,113,63,-143
26017,9337,0,2023-03-10T14:08:42.649623,6400831,2060,320,386,-992,-623,-283,113,63,-143
26018,9338,0,2023-03-10T14:08:42.653923,6400835,2084,324,389,-993,-617,-287,113,63,-143
26019,9339,0,2023-03-10T14:08:42.658791,6400840,2084,324,389,-993,-617,-287,113,63,-143
26020,9340,0,2023-03-10T14:08:42.663979,6400845,2084,324,389,-993,-617,-287,113,63,-143
26021,9341,0,2023-03-10T14:08:42.668622,6400849,2084,324,389,-993,-617,-287,113,63,-143
26022,9342,0,2023-03-10T14:08:42.673678,6400856,2090,328,385,-990,-654,-291,113,63,-143
26023,9343,0,2023-03-10T14:08:42.679403,6400861,2090,328,385,-990,-654,-291,113,63,-143
26024,9344,0,2023-03-10T14:08:42.684424,6400866,2090,328,385,-990,-654,-291,113,63,-143
26025,9345,0,2023-03-10T14:08:42.689353,6400870,2090,328,385,-990,-654,-291,113,63,-143
26026,9346,0,2023-03-10T14:08:42.694512,6400876,2090,328,385,-990,-654,-291,113,63,-143
26027,9347,0,2023-03-10T14:08:42.699285,6400880,2090,328,385,-990,-654,-291,113,63,-143
26028,9348,0,2023-03-10T14:08:42.704419,6400886,2090,328,385,-990,-654,-291,113,63,-143
26029,9349,0,2023-03-10T14:08:42.708949,6400890,2090,328,385,-990,-654,-291,113,63,-143
26030,9350,0,2023-03-10T14:08:42.713480,6400894,2090,328,385,-990,-654,-291,117,49,-127
26031,9351,0,2023-03-10T14:08:42.717784,6400900,2090,328,385,-990,-654,-291,117,49,-127
26032,9352,0,2023-03-10T14:08:42.722973,6400904,2090,328,385,-990,-654,-291,117,49,-127
26033,9353,0,2023-03-10T14:08:42.727473,6400909,2090,328,385,-990,-654,-291,117,49,-127
26034,9354,0,2023-03-10T14:08:42.732986,6400914,2071,324,384,-1002,-639,-294,117,49,-127
26035,9355,0,2023-03-10T14:08:42.738431,6400920,2071,324,384,-1002,-639,-294,117,49,-127
26036,9356,0,2023-03-10T14:08:42.743307,6400924,2071,324,384,-1002,-639,-294,117,49,-127
26037,9357,0,2023-03-10T14:08:42.748356,6400929,2071,324,384,-1002,-639,-294,117,49,-127
26038,9358,0,2023-03-10T14:08:42.753089,6400934,2089,327,388,-999,-625,-305,117,49,-127
26039,9359,0,2023-03-10T14:08:42.758146,6400940,2089,327,388,-999,-625,-305,117,49,-127
26040,9360,0,2023-03-10T14:08:42.763383,6400945,2089,327,388,-999,-625,-305,117,49,-127
26041,9361,0,2023-03-10T14:08:42.768130,6400950,2089,327,388,-999,-625,-305,117,49,-127
26042,9362,0,2023-03-10T14:08:42.772301,6400954,2088,327,383,-995,-632,-308,117,49,-127
26043,9363,0,2023-03-10T14:08:42.777241,6400959,2088,327,383,-995,-632,-308,117,49,-127
26044,9364,0,2023-03-10T14:08:42.782697,6400964,2088,327,383,-995,-632,-308,117,49,-127
26045,9365,0,2023-03-10T14:08:42.787202,6400968,2088,327,383,-995,-632,-308,117,49,-127
26046,9366,0,2023-03-10T14:08:42.791760,6400973,2061,320,390,-998,-617,-272,117,49,-127
26047,9367,0,2023-03-10T14:08:42.797268,6400978,2061,320,390,-998,-617,-272,117,49,-127
26048,9368,0,2023-03-10T14:08:42.801722,6400983,2061,320,390,-998,-617,-272,117,49,-127
26049,9369,0,2023-03-10T14:08:42.806102,6400988,2061,320,390,-998,-617,-272,117,49,-127
26050,9370,0,2023-03-10T14:08:42.810797,6400992,2061,320,390,-998,-617,-272,117,49,-127
26051,9371,0,2023-03-10T14:08:42.815295,6400997,2076,323,388,-982,-622,-295,117,49,-127
26052,9372,0,2023-03-10T14:08:42.820740,6401002,2076,323,388,-982,-622,-295,117,49,-127
26053,9373,0,2023-03-10T14:08:42.825434,6401007,2076,323,388,-982,-622,-295,117,49,-127
26054,9374,0,2023-03-10T14:08:42.830403,6401011,2076,323,388,-982,-622,-295,117,49,-127
26055,9375,0,2023-03-10T14:08:42.834912,6401016,2095,327,384,-981,-639,-292,117,49,-127
26056,9376,0,2023-03-10T14:08:42.840105,6401021,2095,327,384,-981,-639,-292,117,49,-127
26057,9377,0,2023-03-10T14:08:42.845057,6401027,2095,327,384,-981,-639,-292,117,49,-127
26058,9378,0,2023-03-10T14:08:42.849620,6401031,2095,327,384,-981,-639,-292,117,49,-127
26059,9379,0,2023-03-10T14:08:42.854185,6401036,2067,319,393,-942,-624,-251,117,53,-133
26060,9380,0,2023-03-10T14:08:42.859585,6401041,2067,319,393,-942,-624,-251,117,53,-133
26061,9381,0,2023-03-10T14:08:42.864865,6401046,2067,319,393,-942,-624,-251,117,53,-133
26062,9382,0,2023-03-10T14:08:42.869362,6401051,2067,319,393,-942,-624,-251,117,53,-133
26063,9383,0,2023-03-10T14:08:42.874745,6401056,2103,323,387,-992,-657,-292,117,53,-133
26064,9384,0,2023-03-10T14:08:42.879764,6401061,2103,323,387,-992,-657,-292,117,53,-133
26065,9385,0,2023-03-10T14:08:42.885007,6401067,2103,323,387,-992,-657,-292,117,53,-133
26066,9386,0,2023-03-10T14:08:42.889463,6401071,2103,323,387,-992,-657,-292,117,53,-133
26067,9387,0,2023-03-10T14:08:42.893934,6401075,2060,318,364,-1003,-693,-285,117,53,-133
26068,9388,0,2023-03-10T14:08:42.899253,6401081,2060,318,364,-1003,-693,-285,117,53,-133
26069,9389,0,2023-03-10T14:08:42.903932,6401085,2060,318,364,-1003,-693,-285,117,53,-133
26070,9390,0,2023-03-10T14:08:42.908632,6401090,2060,318,364,-1003,-693,-285,117,53,-133
26071,9391,0,2023-03-10T14:08:42.913137,6401094,2087,320,381,-983,-587,-297,117,53,-133
26072,9392,0,2023-03-10T14:08:42.918006,6401099,2087,320,381,-983,-587,-297,117,53,-133
26073,9393,0,2023-03-10T14:08:42.923050,6401104,2087,320,381,-983,-587,-297,117,53,-133
26074,9394,0,2023-03-10T14:08:42.927413,6401108,2087,320,381,-983,-587,-297,117,53,-133
26075,9395,0,2023-03-10T14:08:42.931932,6401114,2087,320,381,-983,-587,-297,117,53,-133
26076,9396,0,2023-03-10T14:08:42.936354,6401118,2087,320,381,-983,-587,-297,117,53,-133
26077,9397,0,2023-03-10T14:08:42.941554,6401123,2087,320,381,-983,-587,-297,117,53,-133
26078,9398,0,2023-03-10T14:08:42.946039,6401128,2087,320,381,-983,-587,-297,117,53,-133
26079,9399,0,2023-03-10T14:08:42.950488,6401132,2087,320,381,-983,-587,-297,117,53,-133
26080,9400,0,2023-03-10T14:08:42.955363,6401136,2054,313,385,-991,-623,-270,117,53,-133
26081,9401,0,2023-03-10T14:08:42.960985,6401142,2054,313,385,-991,-623,-270,117,53,-133
26082,9402,0,2023-03-10T14:08:42.965275,6401146,2054,313,385,-991,-623,-270,117,53,-133
26083,9403,0,2023-03-10T14:08:42.969919,6401152,2054,313,385,-991,-623,-270,117,53,-133
26084,9404,0,2023-03-10T14:08:42.974432,6401156,2100,329,388,-1003,-609,-308,103,59,-131
26085,9405,0,2023-03-10T14:08:42.979602,6401161,2100,329,388,-1003,-609,-308,103,59,-131
26086,9406,0,2023-03-10T14:08:42.984525,6401166,2100,329,388,-1003,-609,-308,103,59,-131
26087,9407,0,2023-03-10T14:08:42.989016,6401170,2100,329,388,-1003,-609,-308,103,59,-131
26088,9408,0,2023-03-10T14:08:42.993289,6401175,2059,311,389,-982,-657,-268,103,59,-131
26089,9409,0,2023-03-10T14:08:42.998570,6401180,2059,311,389,-982,-657,-268,103,59,-131
26090,9410,0,2023-03-10T14:08:43.003435,6401184,2059,311,389,-982,-657,-268,103,59,-131
26091,9411,0,2023-03-10T14:08:43.008342,6401189,2059,311,389,-982,-657,-268,103,59,-131
26092,9412,0,2023-03-10T14:08:43.012809,6401195,2102,324,371,-994,-630,-294,103,59,-131
26093,9413,0,2023-03-10T14:08:43.018039,6401200,2102,324,371,-994,-630,-294,103,59,-131
26094,9414,0,2023-03-10T14:08:43.022914,6401205,2102,324,371,-994,-630,-294,103,59,-131
26095,9415,0,2023-03-10T14:08:43.027254,6401209,2102,324,371,-994,-630,-294,103,59,-131
26096,9416,0,2023-03-10T14:08:43.032165,6401213,2071,316,373,-986,-639,-277,103,59,-131
26097,9417,0,2023-03-10T14:08:43.037043,6401218,2071,316,373,-986,-639,-277,103,59,-131
26098,9418,0,2023-03-10T14:08:43.042270,6401223,2071,316,373,-986,-639,-277,103,59,-131
26099,9419,0,2023-03-10T14:08:43.046541,6401228,2071,316,373,-986,-639,-277,103,59,-131
26100,9420,0,2023-03-10T14:08:43.051055,6401232,2071,316,373,-986,-639,-277,103,59,-131
26101,9421,0,2023-03-10T14:08:43.055469,6401236,2088,327,374,-984,-605,-283,103,59,-131
26102,9422,0,2023-03-10T14:08:43.061028,6401243,2088,327,374,-984,-605,-283,103,59,-131
26103,9423,0,2023-03-10T14:08:43.065495,6401247,2088,327,374,-984,-605,-283,103,59,-131
26104,9424,0,2023-03-10T14:08:43.069737,6401251,2088,327,374,-984,-605,-283,103,59,-131
26105,9425,0,2023-03-10T14:08:43.074194,6401256,2085,323,384,-947,-641,-278,103,59,-131
26106,9426,0,2023-03-10T14:08:43.079113,6401260,2085,323,384,-947,-641,-278,103,59,-131
26107,9427,0,2023-03-10T14:08:43.084236,6401266,2085,323,384,-947,-641,-278,103,59,-131
26108,9428,0,2023-03-10T14:08:43.088645,6401270,2085,323,384,-947,-641,-278,103,59,-131
26109,9429,0,2023-03-10T14:08:43.093127,6401274,2071,323,382,-1002,-624,-297,118,58,-126
26110,9430,0,2023-03-10T14:08:43.098071,6401280,2071,323,382,-1002,-624,-297,118,58,-126
26111,9431,0,2023-03-10T14:08:43.102969,6401285,2071,323,382,-1002,-624,-297,118,58,-126
26112,9432,0,2023-03-10T14:08:43.107283,6401289,2071,323,382,-1002,-624,-297,118,58,-126
26113,9433,0,2023-03-10T14:08:43.111778,6401293,2071,323,382,-1002,-624,-297,118,58,-126
26114,9434,0,2023-03-10T14:08:43.116192,6401298,2091,322,381,-1009,-643,-304,118,58,-126
26115,9435,0,2023-03-10T14:08:43.121433,6401303,2091,322,381,-1009,-643,-304,118,58,-126
26116,9436,0,2023-03-10T14:08:43.126349,6401307,2091,322,381,-1009,-643,-304,118,58,-126
26117,9437,0,2023-03-10T14:08:43.131471,6401312,2091,322,381,-1009,-643,-304,118,58,-126
26118,9438,0,2023-03-10T14:08:43.136441,6401317,2070,324,382,-980,-632,-280,118,58,-126
26119,9439,0,2023-03-10T14:08:43.142287,6401324,2070,324,382,-980,-632,-280,118,58,-126
26120,9440,0,2023-03-10T14:08:43.147729,6401330,2070,324,382,-980,-632,-280,118,58,-126
26121,9441,0,2023-03-10T14:08:43.152154,6401334,2093,327,385,-1009,-640,-305,118,58,-126
26122,9442,0,2023-03-10T14:08:43.156508,6401338,2093,327,385,-1009,-640,-305,118,58,-126
26123,9443,0,2023-03-10T14:08:43.161385,6401343,2093,327,385,-1009,-640,-305,118,58,-126
26124,9444,0,2023-03-10T14:08:43.165912,6401347,2093,327,385,-1009,-640,-305,118,58,-126
26125,9445,0,2023-03-10T14:08:43.170222,6401351,2093,327,385,-1009,-640,-305,118,58,-126
26126,9446,0,2023-03-10T14:08:43.175231,6401356,2074,326,383,-971,-626,-272,118,58,-126
26127,9447,0,2023-03-10T14:08:43.180468,6401361,2074,326,383,-971,-626,-272,118,58,-126
26128,9448,0,2023-03-10T14:08:43.185321,6401367,2074,326,383,-971,-626,-272,118,58,-126
26129,9449,0,2023-03-10T14:08:43.190301,6401372,2074,326,383,-971,-626,-272,118,58,-126
26130,9450,0,2023-03-10T14:08:43.194992,6401377,2077,319,390,-969,-609,-276,118,58,-126
26131,9451,0,2023-03-10T14:08:43.199930,6401381,2077,319,390,-969,-609,-276,118,58,-126
26132,9452,0,2023-03-10T14:08:43.205154,6401387,2077,319,390,-969,-609,-276,118,58,-126
26133,9453,0,2023-03-10T14:08:43.209700,6401391,2077,319,390,-969,-609,-276,118,58,-126
26134,9454,0,2023-03-10T14:08:43.214767,6401395,2074,324,375,-1000,-631,-293,118,58,-126
26135,9455,0,2023-03-10T14:08:43.219593,6401401,2074,324,375,-1000,-631,-293,118,58,-126
26136,9456,0,2023-03-10T14:08:43.224806,6401406,2074,324,375,-1000,-631,-293,118,58,-126
26137,9457,0,2023-03-10T14:08:43.229409,6401411,2074,324,375,-1000,-631,-293,118,58,-126
26138,9458,0,2023-03-10T14:08:43.234115,6401416,2090,324,382,-994,-637,-283,116,52,-124
26139,9459,0,2023-03-10T14:08:43.239158,6401421,2090,324,382,-994,-637,-283,116,52,-124
26140,9460,0,2023-03-10T14:08:43.243526,6401425,2090,324,382,-994,-637,-283,116,52,-124
26141,9461,0,2023-03-10T14:08:43.248031,6401429,2090,324,382,-994,-637,-283,116,52,-124
26142,9462,0,2023-03-10T14:08:43.252311,6401434,2087,320,372,-981,-643,-296,116,52,-124
26143,9463,0,2023-03-10T14:08:43.256472,6401438,2087,320,372,-981,-643,-296,116,52,-124
26144,9464,0,2023-03-10T14:08:43.261356,6401442,2087,320,372,-981,-643,-296,116,52,-124
26145,9465,0,2023-03-10T14:08:43.265659,6401447,2087,320,372,-981,-643,-296,116,52,-124
26146,9466,0,2023-03-10T14:08:43.270254,6401452,2087,320,372,-981,-643,-296,116,52,-124
26147,9467,0,2023-03-10T14:08:43.274540,6401456,2072,314,377,-1002,-613,-288,116,52,-124
26148,9468,0,2023-03-10T14:08:43.279543,6401461,2072,314,377,-1002,-613,-288,116,52,-124
26149,9469,0,2023-03-10T14:08:43.284626,6401466,2072,314,377,-1002,-613,-288,116,52,-124
26150,9470,0,2023-03-10T14:08:43.289264,6401470,2072,314,377,-1002,-613,-288,116,52,-124
26151,9471,0,2023-03-10T14:08:43.294075,6401475,2079,320,384,-955,-653,-279,116,52,-124
26152,9472,0,2023-03-10T14:08:43.299099,6401480,2079,320,384,-955,-653,-279,116,52,-124
26153,9473,0,2023-03-10T14:08:43.303796,6401485,2079,320,384,-955,-653,-279,116,52,-124
26154,9474,0,2023-03-10T14:08:43.308152,6401489,2079,320,384,-955,-653,-279,116,52,-124
26155,9475,0,2023-03-10T14:08:43.312727,6401495,2084,320,387,-993,-617,-289,116,52,-124
26156,9476,0,2023-03-10T14:08:43.317889,6401499,2084,320,387,-993,-617,-289,116,52,-124
26157,9477,0,2023-03-10T14:08:43.323079,6401505,2084,320,387,-993,-617,-289,116,52,-124
26158,9478,0,2023-03-10T14:08:43.328000,6401509,2084,320,387,-993,-617,-289,116,52,-124
26159,9479,0,2023-03-10T14:08:43.332373,6401514,2074,317,371,-1007,-659,-298,116,52,-124
26160,9480,0,2023-03-10T14:08:43.337369,6401518,2074,317,371,-1007,-659,-298,116,52,-124
26161,9481,0,2023-03-10T14:08:43.342059,6401523,2074,317,371,-1007,-659,-298,116,52,-124
26162,9482,0,2023-03-10T14:08:43.346406,6401527,2074,317,371,-1007,-659,-298,116,52,-124
26163,9483,0,2023-03-10T14:08:43.350913,6401532,2074,317,371,-1007,-659,-298,116,52,-124
26164,9484,0,2023-03-10T14:08:43.355268,6401537,2088,312,382,-992,-617,-290,117,55,-133
26165,9485,0,2023-03-10T14:08:43.359979,6401542,2088,312,382,-992,-617,-290,117,55,-133
26166,9486,0,2023-03-10T14:08:43.365015,6401547,2088,312,382,-992,-617,-290,117,55,-133
26167,9487,0,2023-03-10T14:08:43.369595,6401551,2088,312,382,-992,-617,-290,117,55,-133
26168,9488,0,2023-03-10T14:08:43.374029,6401556,2070,315,376,-989,-656,-287,117,55,-133
26169,9489,0,2023-03-10T14:08:43.379032,6401560,2070,315,376,-989,-656,-287,117,55,-133
26170,9490,0,2023-03-10T14:08:43.383841,6401565,2070,315,376,-989,-656,-287,117,55,-133
26171,9491,0,2023-03-10T14:08:43.388193,6401569,2070,315,376,-989,-656,-287,117,55,-133
26172,9492,0,2023-03-10T14:08:43.392809,6401574,2094,326,375,-995,-602,-288,117,55,-133
26173,9493,0,2023-03-10T14:08:43.398159,6401580,2094,326,375,-995,-602,-288,117,55,-133
26174,9494,0,2023-03-10T14:08:43.403096,6401585,2094,326,375,-995,-602,-288,117,55,-133
26175,9495,0,2023-03-10T14:08:43.408045,6401589,2094,326,375,-995,-602,-288,117,55,-133
26176,9496,0,2023-03-10T14:08:43.412397,6401594,2076,319,387,-958,-635,-271,117,55,-133
26177,9497,0,2023-03-10T14:08:43.417314,6401599,2076,319,387,-958,-635,-271,117,55,-133
26178,9498,0,2023-03-10T14:08:43.422225,6401604,2076,319,387,-958,-635,-271,117,55,-133
26179,9499,0,2023-03-10T14:08:43.426631,6401608,2076,319,387,-958,-635,-271,117,55,-133
26180,9500,0,2023-03-10T14:08:43.430967,6401612,2076,319,387,-958,-635,-271,117,55,-133
26181,9501,0,2023-03-10T14:08:43.435449,6401617,2087,322,372,-1010,-621,-306,117,55,-133
26182,9502,0,2023-03-10T14:08:43.439930,6401622,2087,322,372,-1010,-621,-306,117,55,-133
26183,9503,0,2023-03-10T14:08:43.444266,6401626,2087,322,372,-1010,-621,-306,117,55,-133
26184,9504,0,2023-03-10T14:08:43.448717,6401630,2087,322,372,-1010,-621,-306,117,55,-133
26185,9505,0,2023-03-10T14:08:43.453270,6401635,2070,316,378,-1019,-635,-280,117,55,-133
26186,9506,0,2023-03-10T14:08:43.458286,6401640,2070,316,378,-1019,-635,-280,117,55,-133
26187,9507,0,2023-03-10T14:08:43.463293,6401645,2070,316,378,-1019,-635,-280,117,55,-133
26188,9508,0,2023-03-10T14:08:43.467769,6401649,2070,316,378,-1019,-635,-280,117,55,-133
26189,9509,0,2023-03-10T14:08:43.472152,6401653,2070,316,378,-1019,-635,-280,117,55,-133
26190,9510,0,2023-03-10T14:08:43.476745,6401658,2100,328,371,-984,-651,-307,117,55,-133
26191,9511,0,2023-03-10T14:08:43.482008,6401664,2100,328,371,-984,-651,-307,117,55,-133
26192,9512,0,2023-03-10T14:08:43.486296,6401668,2100,328,371,-984,-651,-307,117,55,-133
26193,9513,0,2023-03-10T14:08:43.490719,6401672,2100,328,371,-984,-651,-307,117,55,-133
26194,9514,0,2023-03-10T14:08:43.495345,6401677,2079,322,376,-1003,-622,-290,120,58,-124
26195,9515,0,2023-03-10T14:08:43.500170,6401682,2079,322,376,-1003,-622,-290,120,58,-124
26196,9516,0,2023-03-10T14:08:43.504676,6401686,2079,322,376,-1003,-622,-290,120,58,-124
26197,9517,0,2023-03-10T14:08:43.508975,6401690,2079,322,376,-1003,-622,-290,120,58,-124
26198,9518,0,2023-03-10T14:08:43.513471,6401695,2070,322,380,-977,-609,-270,120,58,-124
26199,9519,0,2023-03-10T14:08:43.518320,6401699,2070,322,380,-977,-609,-270,120,58,-124
26200,9520,0,2023-03-10T14:08:43.523280,6401704,2070,322,380,-977,-609,-270,120,58,-124
26201,9521,0,2023-03-10T14:08:43.527644,6401710,2070,322,380,-977,-609,-270,120,58,-124
26202,9522,0,2023-03-10T14:08:43.532053,6401714,2070,322,380,-977,-609,-270,120,58,-124
26203,9523,0,2023-03-10T14:08:43.536345,6401718,2075,319,382,-977,-638,-285,120,58,-124
26204,9524,0,2023-03-10T14:08:43.541613,6401723,2075,319,382,-977,-638,-285,120,58,-124
26205,9525,0,2023-03-10T14:08:43.546161,6401727,2075,319,382,-977,-638,-285,120,58,-124
26206,9526,0,2023-03-10T14:08:43.550607,6401732,2075,319,382,-977,-638,-285,120,58,-124
26207,9527,0,2023-03-10T14:08:43.555053,6401736,2086,322,380,-1011,-615,-296,120,58,-124
26208,9528,0,2023-03-10T14:08:43.560846,6401742,2086,322,380,-1011,-615,-296,120,58,-124
26209,9529,0,2023-03-10T14:08:43.565105,6401746,2086,322,380,-1011,-615,-296,120,58,-124
26210,9530,0,2023-03-10T14:08:43.569590,6401751,2086,322,380,-1011,-615,-296,120,58,-124
26211,9531,0,2023-03-10T14:08:43.574411,6401756,2084,322,373,-985,-699,-287,120,58,-124
26212,9532,0,2023-03-10T14:08:43.579695,6401761,2084,322,373,-985,-699,-287,120,58,-124
26213,9533,0,2023-03-10T14:08:43.584799,6401766,2084,322,373,-985,-699,-287,120,58,-124
26214,9534,0,2023-03-10T14:08:43.589195,6401771,2084,322,373,-985,-699,-287,120,58,-124
26215,9535,0,2023-03-10T14:08:43.593605,6401775,2089,321,367,-987,-641,-285,120,58,-124
26216,9536,0,2023-03-10T14:08:43.598571,6401780,2089,321,367,-987,-641,-285,120,58,-124
26217,9537,0,2023-03-10T14:08:43.603646,6401785,2089,321,367,-987,-641,-285,120,58,-124
26218,9538,0,2023-03-10T14:08:43.607971,6401789,2089,321,367,-987,-641,-285,120,58,-124
26219,9539,0,2023-03-10T14:08:43.612394,6401794,2069,317,381,-1002,-575,-287,120,58,-124
26220,9540,0,2023-03-10T14:08:43.617251,6401799,2069,317,381,-1002,-575,-287,114,54,-136
26221,9541,0,2023-03-10T14:08:43.622130,6401804,2069,317,381,-1002,-575,-287,114,54,-136
26222,9542,0,2023-03-10T14:08:43.626526,6401808,2069,317,381,-1002,-575,-287,114,54,-136
26223,9543,0,2023-03-10T14:08:43.630980,6401812,2069,317,381,-1002,-575,-287,114,54,-136
26224,9544,0,2023-03-10T14:08:43.635615,6401817,2103,326,385,-968,-623,-291,114,54,-136
26225,9545,0,2023-03-10T14:08:43.640899,6401822,2103,326,385,-968,-623,-291,114,54,-136
26226,9546,0,2023-03-10T14:08:43.645554,6401827,2103,326,385,-968,-623,-291,114,54,-136
26227,9547,0,2023-03-10T14:08:43.650070,6401831,2103,326,385,-968,-623,-291,114,54,-136
26228,9548,0,2023-03-10T14:08:43.654458,6401836,2070,314,374,-991,-626,-288,114,54,-136
26229,9549,0,2023-03-10T14:08:43.659397,6401841,2070,314,374,-991,-626,-288,114,54,-136
26230,9550,0,2023-03-10T14:08:43.664536,6401846,2070,314,374,-991,-626,-288,114,54,-136
26231,9551,0,2023-03-10T14:08:43.668888,6401850,2070,314,374,-991,-626,-288,114,54,-136
26232,9552,0,2023-03-10T14:08:43.673372,6401855,2090,317,374,-999,-614,-298,114,54,-136
26233,9553,0,2023-03-10T14:08:43.678422,6401860,2090,317,374,-999,-614,-298,114,54,-136
26234,9554,0,2023-03-10T14:08:43.683535,6401865,2090,317,374,-999,-614,-298,114,54,-136
26235,9555,0,2023-03-10T14:08:43.688032,6401869,2090,317,374,-999,-614,-298,114,54,-136
26236,9556,0,2023-03-10T14:08:43.692409,6401873,2075,316,374,-984,-635,-292,114,54,-136
26237,9557,0,2023-03-10T14:08:43.697254,6401879,2075,316,374,-984,-635,-292,114,54,-136
26238,9558,0,2023-03-10T14:08:43.702156,6401884,2075,316,374,-984,-635,-292,114,54,-136
26239,9559,0,2023-03-10T14:08:43.706420,6401888,2075,316,374,-984,-635,-292,114,54,-136
26240,9560,0,2023-03-10T14:08:43.710913,6401892,2075,316,374,-984,-635,-292,114,54,-136
26241,9561,0,2023-03-10T14:08:43.715079,6401897,2098,322,370,-990,-623,-297,114,54,-136
26242,9562,0,2023-03-10T14:08:43.720012,6401901,2098,322,370,-990,-623,-297,114,54,-136
26243,9563,0,2023-03-10T14:08:43.725190,6401906,2098,322,370,-990,-623,-297,114,54,-136
26244,9564,0,2023-03-10T14:08:43.729962,6401911,2098,322,370,-990,-623,-297,114,54,-136
26245,9565,0,2023-03-10T14:08:43.734457,6401915,2084,319,369,-985,-629,-295,117,53,-137
26246,9566,0,2023-03-10T14:08:43.739018,6401921,2084,319,369,-985,-629,-295,117,53,-137
26247,9567,0,2023-03-10T14:08:43.743919,6401926,2084,319,369,-985,-629,-295,117,53,-137
26248,9568,0,2023-03-10T14:08:43.748187,6401930,2084,319,369,-985,-629,-295,117,53,-137
26249,9569,0,2023-03-10T14:08:43.752666,6401934,2084,319,369,-985,-629,-295,117,53,-137
26250,9570,0,2023-03-10T14:08:43.757606,6401939,2068,313,377,-1005,-598,-287,117,53,-137
26251,9571,0,2023-03-10T14:08:43.762780,6401944,2068,313,377,-1005,-598,-287,117,53,-137
26252,9572,0,2023-03-10T14:08:43.767523,6401949,2068,313,377,-1005,-598,-287,117,53,-137
26253,9573,0,2023-03-10T14:08:43.772280,6401953,2068,313,377,-1005,-598,-287,117,53,-137
26254,9574,0,2023-03-10T14:08:43.776624,6401958,2087,316,368,-984,-657,-287,117,53,-137
26255,9575,0,2023-03-10T14:08:43.782060,6401964,2087,316,368,-984,-657,-287,117,53,-137
26256,9576,0,2023-03-10T14:08:43.786615,6401968,2087,316,368,-984,-657,-287,117,53,-137
26257,9577,0,2023-03-10T14:08:43.791067,6401973,2087,316,368,-984,-657,-287,117,53,-137
26258,9578,0,2023-03-10T14:08:43.795642,6401977,2086,317,381,-1002,-606,-306,117,53,-137
26259,9579,0,2023-03-10T14:08:43.801239,6401983,2086,317,381,-1002,-606,-306,117,53,-137
26260,9580,0,2023-03-10T14:08:43.805638,6401987,2086,317,381,-1002,-606,-306,117,53,-137
26261,9581,0,2023-03-10T14:08:43.810086,6401991,2086,317,381,-1002,-606,-306,117,53,-137
26262,9582,0,2023-03-10T14:08:43.814451,6401996,2086,323,369,-975,-633,-282,117,53,-137
26263,9583,0,2023-03-10T14:08:43.819420,6402000,2086,323,369,-975,-633,-282,117,53,-137
26264,9584,0,2023-03-10T14:08:43.824766,6402006,2086,323,369,-975,-633,-282,117,53,-137
26265,9585,0,2023-03-10T14:08:43.829513,6402011,2086,323,369,-975,-633,-282,117,53,-137
26266,9586,0,2023-03-10T14:08:43.834608,6402016,2079,311,383,-956,-609,-283,117,53,-137
26267,9587,0,2023-03-10T14:08:43.839291,6402021,2079,311,383,-956,-609,-283,117,53,-137
26268,9588,0,2023-03-10T14:08:43.844374,6402026,2079,311,383,-956,-609,-283,117,53,-137
26269,9589,0,2023-03-10T14:08:43.848737,6402030,2079,311,383,-956,-609,-283,117,53,-137
26270,9590,0,2023-03-10T14:08:43.853315,6402034,2074,314,368,-1010,-664,-292,117,53,-137
26271,9591,0,2023-03-10T14:08:43.858163,6402039,2074,314,368,-1010,-664,-292,117,53,-137
26272,9592,0,2023-03-10T14:08:43.863303,6402044,2074,314,368,-1010,-664,-292,117,53,-137
26273,9593,0,2023-03-10T14:08:43.867680,6402050,2074,314,368,-1010,-664,-292,117,53,-137
26274,9594,0,2023-03-10T14:08:43.871984,6402054,2074,314,368,-1010,-664,-292,117,53,-137
26275,9595,0,2023-03-10T14:08:43.877125,6402059,2097,328,370,-1012,-621,-308,119,49,-139
26276,9596,0,2023-03-10T14:08:43.882512,6402064,2097,328,370,-1012,-621,-308,119,49,-139
26277,9597,0,2023-03-10T14:08:43.887285,6402069,2097,328,370,-1012,-621,-308,119,49,-139
26278,9598,0,2023-03-10T14:08:43.891699,6402073,2097,328,370,-1012,-621,-308,119,49,-139
26279,9599,0,2023-03-10T14:08:43.896366,6402078,2084,316,376,-989,-683,-284,119,49,-139
26280,9600,0,2023-03-10T14:08:43.901952,6402083,2084,316,376,-989,-683,-284,119,49,-139
26281,9601,0,2023-03-10T14:08:43.906512,6402087,2084,316,376,-989,-683,-284,119,49,-139
26282,9602,0,2023-03-10T14:08:43.911126,6402093,2084,316,376,-989,-683,-284,119,49,-139
26283,9603,0,2023-03-10T14:08:43.915479,6402097,2091,329,364,-1013,-638,-311,119,49,-139
26284,9604,0,2023-03-10T14:08:43.920625,6402102,2091,329,364,-1013,-638,-311,119,49,-139
26285,9605,0,2023-03-10T14:08:43.925922,6402107,2091,329,364,-1013,-638,-311,119,49,-139
26286,9606,0,2023-03-10T14:08:43.930414,6402112,2091,329,364,-1013,-638,-311,119,49,-139
26287,9607,0,2023-03-10T14:08:43.935332,6402117,2067,312,384,-989,-581,-270,119,49,-139
26288,9608,0,2023-03-10T14:08:43.940479,6402122,2067,312,384,-989,-581,-270,119,49,-139
26289,9609,0,2023-03-10T14:08:43.945367,6402126,2067,312,384,-989,-581,-270,119,49,-139
26290,9610,0,2023-03-10T14:08:43.949853,6402131,2067,312,384,-989,-581,-270,119,49,-139
26291,9611,0,2023-03-10T14:08:43.954379,6402136,2108,330,376,-997,-635,-319,119,49,-139
26292,9612,0,2023-03-10T14:08:43.959552,6402141,2108,330,376,-997,-635,-319,119,49,-139
26293,9613,0,2023-03-10T14:08:43.964064,6402146,2108,330,376,-997,-635,-319,119,49,-139
26294,9614,0,2023-03-10T14:08:43.968381,6402150,2108,330,376,-997,-635,-319,119,49,-139
26295,9615,0,2023-03-10T14:08:43.973112,6402154,2108,330,376,-997,-635,-319,119,49,-139
26296,9616,0,2023-03-10T14:08:43.977460,6402159,2071,312,366,-1018,-641,-273,119,49,-139
26297,9617,0,2023-03-10T14:08:43.982987,6402164,2071,312,366,-1018,-641,-273,119,49,-139
26298,9618,0,2023-03-10T14:08:43.987681,6402169,2071,312,366,-1018,-641,-273,119,49,-139
26299,9619,0,2023-03-10T14:08:43.991899,6402173,2071,312,366,-1018,-641,-273,119,49,-139
26300,9620,0,2023-03-10T14:08:43.996523,6402178,2087,321,375,-995,-618,-310,124,58,-138
26301,9621,0,2023-03-10T14:08:44.001699,6402183,2087,321,375,-995,-618,-310,124,58,-138
26302,9622,0,2023-03-10T14:08:44.006113,6402188,2087,321,375,-995,-618,-310,124,58,-138
26303,9623,0,2023-03-10T14:08:44.010703,6402192,2087,321,375,-995,-618,-310,124,58,-138
26304,9624,0,2023-03-10T14:08:44.015631,6402197,2078,322,373,-996,-638,-288,124,58,-138
26305,9625,0,2023-03-10T14:08:44.020272,6402201,2078,322,373,-996,-638,-288,124,58,-138
26306,9626,0,2023-03-10T14:08:44.025086,6402206,2078,322,373,-996,-638,-288,124,58,-138
26307,9627,0,2023-03-10T14:08:44.029731,6402211,2078,322,373,-996,-638,-288,124,58,-138
26308,9628,0,2023-03-10T14:08:44.034258,6402215,2095,325,370,-996,-627,-300,124,58,-138
26309,9629,0,2023-03-10T14:08:44.039303,6402221,2095,325,370,-996,-627,-300,124,58,-138
26310,9630,0,2023-03-10T14:08:44.044428,6402226,2095,325,370,-996,-627,-300,124,58,-138
26311,9631,0,2023-03-10T14:08:44.048927,6402231,2095,325,370,-996,-627,-300,124,58,-138
26312,9632,0,2023-03-10T14:08:44.053505,6402235,2095,324,364,-1006,-628,-300,124,58,-138
26313,9633,0,2023-03-10T14:08:44.058612,6402240,2095,324,364,-1006,-628,-300,124,58,-138
26314,9634,0,2023-03-10T14:08:44.063104,6402244,2095,324,364,-1006,-628,-300,124,58,-138
26315,9635,0,2023-03-10T14:08:44.067594,6402249,2095,324,364,-1006,-628,-300,124,58,-138
26316,9636,0,2023-03-10T14:08:44.071953,6402253,2095,324,364,-1006,-628,-300,124,58,-138
26317,9637,0,2023-03-10T14:08:44.076264,6402257,2068,311,372,-989,-618,-273,124,58,-138
26318,9638,0,2023-03-10T14:08:44.081668,6402264,2068,311,372,-989,-618,-273,124,58,-138
26319,9639,0,2023-03-10T14:08:44.086168,6402268,2068,311,372,-989,-618,-273,124,58,-138
26320,9640,0,2023-03-10T14:08:44.090651,6402272,2068,311,372,-989,-618,-273,124,58,-138
26321,9641,0,2023-03-10T14:08:44.095855,6402277,2086,322,382,-951,-638,-286,124,58,-138
26322,9642,0,2023-03-10T14:08:44.101357,6402283,2086,322,382,-951,-638,-286,124,58,-138
26323,9643,0,2023-03-10T14:08:44.105811,6402287,2086,322,382,-951,-638,-286,124,58,-138
26324,9644,0,2023-03-10T14:08:44.110241,6402291,2086,322,382,-951,-638,-286,124,58,-138
26325,9645,0,2023-03-10T14:08:44.114735,6402296,2093,321,368,-999,-637,-297,124,58,-138
26326,9646,0,2023-03-10T14:08:44.119755,6402301,2093,321,368,-999,-637,-297,124,58,-138
26327,9647,0,2023-03-10T14:08:44.124974,6402307,2093,321,368,-999,-637,-297,124,58,-138
26328,9648,0,2023-03-10T14:08:44.129683,6402311,2093,321,368,-999,-637,-297,124,58,-138
26329,9649,0,2023-03-10T14:08:44.135004,6402317,2092,323,362,-998,-636,-299,112,52,-128
26330,9650,0,2023-03-10T14:08:44.140066,6402322,2092,323,362,-998,-636,-299,112,52,-128
26331,9651,0,2023-03-10T14:08:44.144299,6402326,2092,323,362,-998,-636,-299,112,52,-128
26332,9652,0,2023-03-10T14:08:44.148574,6402330,2092,323,362,-998,-636,-299,112,52,-128
26333,9653,0,2023-03-10T14:08:44.153086,6402334,2092,323,362,-998,-636,-299,112,52,-128
26334,9654,0,2023-03-10T14:08:44.157619,6402339,2069,311,372,-979,-616,-289,112,52,-128
26335,9655,0,2023-03-10T14:08:44.163125,6402344,2069,311,372,-979,-616,-289,112,52,-128
26336,9656,0,2023-03-10T14:08:44.167502,6402349,2069,311,372,-979,-616,-289,112,52,-128
26337,9657,0,2023-03-10T14:08:44.171973,6402354,2069,311,372,-979,-616,-289,112,52,-128
26338,9658,0,2023-03-10T14:08:44.176451,6402358,2090,325,365,-1003,-615,-316,112,52,-128
26339,9659,0,2023-03-10T14:08:44.181883,6402363,2090,325,365,-1003,-615,-316,112,52,-128
26340,9660,0,2023-03-10T14:08:44.186356,6402368,2090,325,365,-1003,-615,-316,112,52,-128
26341,9661,0,2023-03-10T14:08:44.190798,6402372,2090,325,365,-1003,-615,-316,112,52,-128
26342,9662,0,2023-03-10T14:08:44.195165,6402376,2097,322,371,-988,-627,-282,112,52,-128
26343,9663,0,2023-03-10T14:08:44.199993,6402381,2097,322,371,-988,-627,-282,112,52,-128
26344,9664,0,2023-03-10T14:08:44.205040,6402386,2097,322,371,-988,-627,-282,112,52,-128
26345,9665,0,2023-03-10T14:08:44.209404,6402391,2097,322,371,-988,-627,-282,112,52,-128
26346,9666,0,2023-03-10T14:08:44.214443,6402396,2084,320,374,-981,-622,-290,112,52,-128
26347,9667,0,2023-03-10T14:08:44.219684,6402401,2084,320,374,-981,-622,-290,112,52,-128
26348,9668,0,2023-03-10T14:08:44.224708,6402406,2084,320,374,-981,-622,-290,112,52,-128
26349,9669,0,2023-03-10T14:08:44.229317,6402411,2084,320,374,-981,-622,-290,112,52,-128
26350,9670,0,2023-03-10T14:08:44.233786,6402415,2089,316,371,-1020,-635,-301,112,52,-128
26351,9671,0,2023-03-10T14:08:44.239009,6402420,2089,316,371,-1020,-635,-301,112,52,-128
26352,9672,0,2023-03-10T14:08:44.244083,6402425,2089,316,371,-1020,-635,-301,112,52,-128
26353,9673,0,2023-03-10T14:08:44.248647,6402430,2089,316,371,-1020,-635,-301,112,52,-128
26354,9674,0,2023-03-10T14:08:44.253281,6402435,2089,316,371,-1020,-635,-301,112,52,-128
26355,9675,0,2023-03-10T14:08:44.257915,6402440,2083,319,359,-997,-657,-292,119,49,-133
26356,9676,0,2023-03-10T14:08:44.263200,6402445,2083,319,359,-997,-657,-292,119,49,-133
26357,9677,0,2023-03-10T14:08:44.268570,6402450,2083,319,359,-997,-657,-292,119,49,-133
26358,9678,0,2023-03-10T14:08:44.272825,6402454,2083,319,359,-997,-657,-292,119,49,-133
26359,9679,0,2023-03-10T14:08:44.277064,6402458,2098,321,364,-981,-633,-301,119,49,-133
26360,9680,0,2023-03-10T14:08:44.282463,6402464,2098,321,364,-981,-633,-301,119,49,-133
26361,9681,0,2023-03-10T14:08:44.286983,6402468,2098,321,364,-981,-633,-301,119,49,-133
26362,9682,0,2023-03-10T14:08:44.291451,6402472,2098,321,364,-981,-633,-301,119,49,-133
26363,9683,0,2023-03-10T14:08:44.295866,6402478,2091,325,354,-1003,-624,-306,119,49,-133
26364,9684,0,2023-03-10T14:08:44.301530,6402483,2091,325,354,-1003,-624,-306,119,49,-133
26365,9685,0,2023-03-10T14:08:44.305882,6402488,2091,325,354,-1003,-624,-306,119,49,-133
26366,9686,0,2023-03-10T14:08:44.310172,6402492,2091,325,354,-1003,-624,-306,119,49,-133
26367,9687,0,2023-03-10T14:08:44.314514,6402496,2068,304,375,-960,-606,-267,119,49,-133
26368,9688,0,2023-03-10T14:08:44.319766,6402501,2068,304,375,-960,-606,-267,119,49,-133
26369,9689,0,2023-03-10T14:08:44.324980,6402506,2068,304,375,-960,-606,-267,119,49,-133
26370,9690,0,2023-03-10T14:08:44.329377,6402510,2068,304,375,-960,-606,-267,119,49,-133
26371,9691,0,2023-03-10T14:08:44.333828,6402515,2086,322,368,-981,-662,-293,119,49,-133
26372,9692,0,2023-03-10T14:08:44.339179,6402521,2086,322,368,-981,-662,-293,119,49,-133
26373,9693,0,2023-03-10T14:08:44.344153,6402526,2086,322,368,-981,-662,-293,119,49,-133
26374,9694,0,2023-03-10T14:08:44.348374,6402530,2086,322,368,-981,-662,-293,119,49,-133
26375,9695,0,2023-03-10T14:08:44.352725,6402534,2086,322,368,-981,-662,-293,119,49,-133
26376,9696,0,2023-03-10T14:08:44.357314,6402539,2087,318,367,-1021,-613,-289,119,49,-133
26377,9697,0,2023-03-10T14:08:44.362574,6402544,2087,318,367,-1021,-613,-289,119,49,-133
26378,9698,0,2023-03-10T14:08:44.366902,6402548,2087,318,367,-1021,-613,-289,119,49,-133
26379,9699,0,2023-03-10T14:08:44.371179,6402552,2087,318,367,-1021,-613,-289,119,49,-133
26380,9700,0,2023-03-10T14:08:44.375838,6402557,2090,316,352,-995,-696,-291,119,49,-133
26381,9701,0,2023-03-10T14:08:44.381088,6402563,2090,316,352,-995,-696,-291,119,49,-133
26382,9702,0,2023-03-10T14:08:44.386313,6402568,2090,316,352,-995,-696,-291,119,49,-133
26383,9703,0,2023-03-10T14:08:44.391058,6402573,2090,316,352,-995,-696,-291,119,49,-133
26384,9704,0,2023-03-10T14:08:44.395334,6402577,2090,316,356,-1000,-638,-304,120,54,-136
26385,9705,0,2023-03-10T14:08:44.399737,6402581,2090,316,356,-1000,-638,-304,120,54,-136
26386,9706,0,2023-03-10T14:08:44.404903,6402586,2090,316,356,-1000,-638,-304,120,54,-136
26387,9707,0,2023-03-10T14:08:44.409593,6402591,2090,316,356,-1000,-638,-304,120,54,-136
26388,9708,0,2023-03-10T14:08:44.414175,6402595,2077,316,361,-983,-571,-288,120,54,-136
26389,9709,0,2023-03-10T14:08:44.419119,6402600,2077,316,361,-983,-571,-288,120,54,-136
26390,9710,0,2023-03-10T14:08:44.423884,6402606,2077,316,361,-983,-571,-288,120,54,-136
26391,9711,0,2023-03-10T14:08:44.428323,6402610,2077,316,361,-983,-571,-288,120,54,-136
26392,9712,0,2023-03-10T14:08:44.432659,6402614,2077,316,361,-983,-571,-288,120,54,-136
26393,9713,0,2023-03-10T14:08:44.436985,6402619,2113,331,372,-956,-640,-295,120,54,-136
26394,9714,0,2023-03-10T14:08:44.442560,6402624,2113,331,372,-956,-640,-295,120,54,-136
26395,9715,0,2023-03-10T14:08:44.446975,6402628,2113,331,372,-956,-640,-295,120,54,-136
26396,9716,0,2023-03-10T14:08:44.451342,6402632,2113,331,372,-956,-640,-295,120,54,-136
26397,9717,0,2023-03-10T14:08:44.455995,6402637,2063,310,367,-1016,-655,-281,120,54,-136
26398,9718,0,2023-03-10T14:08:44.461062,6402642,2063,310,367,-1016,-655,-281,120,54,-136
26399,9719,0,2023-03-10T14:08:44.465549,6402647,2063,310,367,-1016,-655,-281,120,54,-136
26400,9720,0,2023-03-10T14:08:44.469953,6402652,2063,310,367,-1016,-655,-281,120,54,-136
26401,9721,0,2023-03-10T14:08:44.474369,6402656,2089,323,357,-1018,-609,-318,120,54,-136
26402,9722,0,2023-03-10T14:08:44.479034,6402661,2089,323,357,-1018,-609,-318,120,54,-136
26403,9723,0,2023-03-10T14:08:44.483427,6402665,2089,323,357,-1018,-609,-318,120,54,-136
26404,9724,0,2023-03-10T14:08:44.487981,6402669,2089,323,357,-1018,-609,-318,120,54,-136
26405,9725,0,2023-03-10T14:08:44.492288,6402674,2089,323,357,-1018,-609,-318,120,54,-136
26406,9726,0,2023-03-10T14:08:44.496728,6402678,2093,319,366,-987,-613,-301,120,54,-136
26407,9727,0,2023-03-10T14:08:44.501315,6402682,2093,319,366,-987,-613,-301,120,54,-136
26408,9728,0,2023-03-10T14:08:44.505554,6402688,2093,319,366,-987,-613,-301,120,54,-136
26409,9729,0,2023-03-10T14:08:44.510131,6402692,2093,319,366,-987,-613,-301,120,54,-136
26410,9730,0,2023-03-10T14:08:44.514467,6402696,2095,321,357,-1019,-646,-299,124,54,-136
26411,9731,0,2023-03-10T14:08:44.519477,6402701,2095,321,357,-1019,-646,-299,124,54,-136
26412,9732,0,2023-03-10T14:08:44.524570,6402706,2095,321,357,-1019,-646,-299,124,54,-136
26413,9733,0,2023-03-10T14:08:44.528951,6402710,2095,321,357,-1019,-646,-299,124,54,-136
26414,9734,0,2023-03-10T14:08:44.533467,6402715,2095,321,357,-1019,-646,-299,124,54,-136
26415,9735,0,2023-03-10T14:08:44.537931,6402719,2088,323,365,-980,-606,-271,124,54,-136
26416,9736,0,2023-03-10T14:08:44.543235,6402724,2088,323,365,-980,-606,-271,124,54,-136
26417,9737,0,2023-03-10T14:08:44.547553,6402729,2088,323,365,-980,-606,-271,124,54,-136
26418,9738,0,2023-03-10T14:08:44.551951,6402734,2088,323,365,-980,-606,-271,124,54,-136
26419,9739,0,2023-03-10T14:08:44.557098,6402739,2089,321,382,-970,-622,-276,124,54,-136
26420,9740,0,2023-03-10T14:08:44.562726,6402744,2089,321,382,-970,-622,-276,124,54,-136
26421,9741,0,2023-03-10T14:08:44.567172,6402749,2089,321,382,-970,-622,-276,124,54,-136
26422,9742,0,2023-03-10T14:08:44.571454,6402753,2089,321,382,-970,-622,-276,124,54,-136
26423,9743,0,2023-03-10T14:08:44.576238,6402757,2080,321,363,-1032,-640,-295,124,54,-136
26424,9744,0,2023-03-10T14:08:44.581574,6402763,2080,321,363,-1032,-640,-295,124,54,-136
26425,9745,0,2023-03-10T14:08:44.586102,6402767,2080,321,363,-1032,-640,-295,124,54,-136
26426,9746,0,2023-03-10T14:08:44.590410,6402771,2080,321,363,-1032,-640,-295,124,54,-136
26427,9747,0,2023-03-10T14:08:44.594961,6402777,2098,316,364,-1000,-645,-294,124,54,-136
26428,9748,0,2023-03-10T14:08:44.599364,6402781,2098,316,364,-1000,-645,-294,124,54,-136
26429,9749,0,2023-03-10T14:08:44.604394,6402786,2098,316,364,-1000,-645,-294,124,54,-136
26430,9750,0,2023-03-10T14:08:44.608725,6402790,2098,316,364,-1000,-645,-294,124,54,-136
26431,9751,0,2023-03-10T14:08:44.613574,6402795,2098,316,364,-1000,-645,-294,124,54,-136
26432,9752,0,2023-03-10T14:08:44.618260,6402799,2088,317,357,-984,-630,-293,124,54,-136
26433,9753,0,2023-03-10T14:08:44.623964,6402805,2088,317,357,-984,-630,-293,124,54,-136
26434,9754,0,2023-03-10T14:08:44.628458,6402810,2088,317,357,-984,-630,-293,124,54,-136
26435,9755,0,2023-03-10T14:08:44.633053,6402814,2088,317,357,-984,-630,-293,124,54,-136
26436,9756,0,2023-03-10T14:08:44.637668,6402819,2093,322,361,-1005,-615,-291,113,51,-133
26437,9757,0,2023-03-10T14:08:44.642619,6402824,2093,322,361,-1005,-615,-291,113,51,-133
26438,9758,0,2023-03-10T14:08:44.647025,6402829,2093,322,361,-1005,-615,-291,113,51,-133
26439,9759,0,2023-03-10T14:08:44.651683,6402833,2093,322,361,-1005,-615,-291,113,51,-133
26440,9760,0,2023-03-10T14:08:44.656568,6402838,2081,316,367,-955,-632,-273,113,51,-133
26441,9761,0,2023-03-10T14:08:44.661537,6402843,2081,316,367,-955,-632,-273,113,51,-133
26442,9762,0,2023-03-10T14:08:44.666159,6402847,2081,316,367,-955,-632,-273,113,51,-133
26443,9763,0,2023-03-10T14:08:44.670692,6402852,2081,316,367,-955,-632,-273,113,51,-133
26444,9764,0,2023-03-10T14:08:44.675273,6402856,2095,318,375,-994,-622,-296,113,51,-133
26445,9765,0,2023-03-10T14:08:44.680210,6402862,2095,318,375,-994,-622,-296,113,51,-133
26446,9766,0,2023-03-10T14:08:44.685447,6402867,2095,318,375,-994,-622,-296,113,51,-133
26447,9767,0,2023-03-10T14:08:44.690008,6402872,2095,318,375,-994,-622,-296,113,51,-133
26448,9768,0,2023-03-10T14:08:44.694969,6402876,2098,324,348,-1034,-652,-313,113,51,-133
26449,9769,0,2023-03-10T14:08:44.699800,6402881,2098,324,348,-1034,-652,-313,113,51,-133
26450,9770,0,2023-03-10T14:08:44.704527,6402886,2098,324,348,-1034,-652,-313,113,51,-133
26451,9771,0,2023-03-10T14:08:44.708773,6402890,2098,324,348,-1034,-652,-313,113,51,-133
26452,9772,0,2023-03-10T14:08:44.713808,6402895,2098,324,348,-1034,-652,-313,113,51,-133
26453,9773,0,2023-03-10T14:08:44.718268,6402899,2070,302,363,-996,-627,-276,113,51,-133
26454,9774,0,2023-03-10T14:08:44.723593,6402905,2070,302,363,-996,-627,-276,113,51,-133
26455,9775,0,2023-03-10T14:08:44.727878,6402910,2070,302,363,-996,-627,-276,113,51,-133
26456,9776,0,2023-03-10T14:08:44.732560,6402914,2070,302,363,-996,-627,-276,113,51,-133
26457,9777,0,2023-03-10T14:08:44.737160,6402919,2099,320,354,-997,-618,-315,113,51,-133
26458,9778,0,2023-03-10T14:08:44.742462,6402924,2099,320,354,-997,-618,-315,113,51,-133
26459,9779,0,2023-03-10T14:08:44.747104,6402928,2099,320,354,-997,-618,-315,113,51,-133
26460,9780,0,2023-03-10T14:08:44.751599,6402933,2099,320,354,-997,-618,-315,113,51,-133
26461,9781,0,2023-03-10T14:08:44.756007,6402937,2103,324,359,-986,-642,-291,113,51,-133
26462,9782,0,2023-03-10T14:08:44.761556,6402944,2103,324,359,-986,-642,-291,113,51,-133
26463,9783,0,2023-03-10T14:08:44.765664,6402948,2103,324,359,-986,-642,-291,113,51,-133
26464,9784,0,2023-03-10T14:08:44.770198,6402952,2103,324,359,-986,-642,-291,113,51,-133
26465,9785,0,2023-03-10T14:08:44.774866,6402956,2075,314,363,-962,-624,-274,117,57,-141
26466,9786,0,2023-03-10T14:08:44.780077,6402961,2075,314,363,-962,-624,-274,117,57,-141
26467,9787,0,2023-03-10T14:08:44.785117,6402966,2075,314,363,-962,-624,-274,117,57,-141
26468,9788,0,2023-03-10T14:08:44.789883,6402971,2075,314,363,-962,-624,-274,117,57,-141
26469,9789,0,2023-03-10T14:08:44.795059,6402976,2098,321,373,-1018,-624,-308,117,57,-141
26470,9790,0,2023-03-10T14:08:44.799719,6402981,2098,321,373,-1018,-624,-308,117,57,-141
26471,9791,0,2023-03-10T14:08:44.804713,6402987,2098,321,373,-1018,-624,-308,117,57,-141
26472,9792,0,2023-03-10T14:08:44.809311,6402991,2098,321,373,-1018,-624,-308,117,57,-141
26473,9793,0,2023-03-10T14:08:44.814601,6402996,2077,316,349,-1010,-654,-290,117,57,-141
26474,9794,0,2023-03-10T14:08:44.819561,6403001,2077,316,349,-1010,-654,-290,117,57,-141
26475,9795,0,2023-03-10T14:08:44.824638,6403006,2077,316,349,-1010,-654,-290,117,57,-141
26476,9796,0,2023-03-10T14:08:44.828983,6403010,2077,316,349,-1010,-654,-290,117,57,-141
26477,9797,0,2023-03-10T14:08:44.833527,6403015,2077,316,349,-1010,-654,-290,117,57,-141
26478,9798,0,2023-03-10T14:08:44.838105,6403019,2101,314,366,-983,-619,-291,117,57,-141
26479,9799,0,2023-03-10T14:08:44.843490,6403025,2101,314,366,-983,-619,-291,117,57,-141
26480,9800,0,2023-03-10T14:08:44.847899,6403030,2101,314,366,-983,-619,-291,117,57,-141
26481,9801,0,2023-03-10T14:08:44.852461,6403034,2101,314,366,-983,-619,-291,117,57,-141
26482,9802,0,2023-03-10T14:08:44.857005,6403039,2098,325,345,-1012,-638,-304,117,57,-141
26483,9803,0,2023-03-10T14:08:44.862615,6403044,2098,325,345,-1012,-638,-304,117,57,-141
26484,9804,0,2023-03-10T14:08:44.867048,6403049,2098,325,345,-1012,-638,-304,117,57,-141
26485,9805,0,2023-03-10T14:08:44.871386,6403053,2098,325,345,-1012,-638,-304,117,57,-141
26486,9806,0,2023-03-10T14:08:44.875764,6403057,2069,304,363,-978,-603,-261,117,57,-141
26487,9807,0,2023-03-10T14:08:44.880821,6403062,2069,304,363,-978,-603,-261,117,57,-141
26488,9808,0,2023-03-10T14:08:44.885707,6403067,2069,304,363,-978,-603,-261,117,57,-141
26489,9809,0,2023-03-10T14:08:44.890082,6403072,2069,304,363,-978,-603,-261,117,57,-141
26490,9810,0,2023-03-10T14:08:44.894554,6403076,2092,318,363,-967,-653,-297,110,54,-140
26491,9811,0,2023-03-10T14:08:44.899355,6403081,2092,318,363,-967,-653,-297,110,54,-140
26492,9812,0,2023-03-10T14:08:44.904290,6403086,2092,318,363,-967,-653,-297,110,54,-140
26493,9813,0,2023-03-10T14:08:44.908748,6403090,2092,318,363,-967,-653,-297,110,54,-140
26494,9814,0,2023-03-10T14:08:44.913243,6403095,2092,318,363,-967,-653,-297,110,54,-140
26495,9815,0,2023-03-10T14:08:44.918074,6403099,2092,312,364,-1028,-615,-298,110,54,-140
26496,9816,0,2023-03-10T14:08:44.923263,6403104,2092,312,364,-1028,-615,-298,110,54,-140
26497,9817,0,2023-03-10T14:08:44.927721,6403109,2092,312,364,-1028,-615,-298,110,54,-140
26498,9818,0,2023-03-10T14:08:44.932225,6403113,2092,312,364,-1028,-615,-298,110,54,-140
26499,9819,0,2023-03-10T14:08:44.937107,6403119,2088,319,349,-1001,-653,-302,110,54,-140
26500,9820,0,2023-03-10T14:08:44.942546,6403124,2088,319,349,-1001,-653,-302,110,54,-140
26501,9821,0,2023-03-10T14:08:44.946774,6403128,2088,319,349,-1001,-653,-302,110,54,-140
26502,9822,0,2023-03-10T14:08:44.951175,6403133,2088,319,349,-1001,-653,-302,110,54,-140
26503,9823,0,2023-03-10T14:08:44.955485,6403137,2088,319,349,-1001,-653,-302,110,54,-140
26504,9824,0,2023-03-10T14:08:44.959903,6403141,2088,319,349,-1001,-653,-302,110,54,-140
26505,9825,0,2023-03-10T14:08:44.964992,6403146,2088,319,349,-1001,-653,-302,110,54,-140
26506,9826,0,2023-03-10T14:08:44.969264,6403150,2088,319,349,-1001,-653,-302,110,54,-140
26507,9827,0,2023-03-10T14:08:44.973763,6403155,2088,319,349,-1001,-653,-302,110,54,-140
26508,9828,0,2023-03-10T14:08:44.978679,6403160,2076,313,349,-992,-628,-290,110,54,-140
26509,9829,0,2023-03-10T14:08:44.984674,6403166,2076,313,349,-992,-628,-290,110,54,-140
26510,9830,0,2023-03-10T14:08:44.989106,6403171,2076,313,349,-992,-628,-290,110,54,-140
26511,9831,0,2023-03-10T14:08:44.994329,6403176,2094,317,370,-958,-609,-273,110,54,-140
26512,9832,0,2023-03-10T14:08:44.999478,6403181,2094,317,370,-958,-609,-273,110,54,-140
26513,9833,0,2023-03-10T14:08:45.004502,6403186,2094,317,370,-958,-609,-273,110,54,-140
26514,9834,0,2023-03-10T14:08:45.009035,6403190,2094,317,370,-958,-609,-273,110,54,-140
26515,9835,0,2023-03-10T14:08:45.014465,6403195,2094,317,370,-958,-609,-273,110,54,-140
26516,9836,0,2023-03-10T14:08:45.018979,6403201,2087,316,365,-993,-655,-285,110,54,-140
26517,9837,0,2023-03-10T14:08:45.024275,6403206,2087,316,365,-993,-655,-285,110,54,-140
26518,9838,0,2023-03-10T14:08:45.028724,6403210,2087,316,365,-993,-655,-285,110,54,-140
26519,9839,0,2023-03-10T14:08:45.033235,6403215,2087,316,365,-993,-655,-285,110,54,-140
26520,9840,0,2023-03-10T14:08:45.037540,6403219,2087,312,353,-1023,-641,-297,112,52,-144
26521,9841,0,2023-03-10T14:08:45.043066,6403224,2087,312,353,-1023,-641,-297,112,52,-144
26522,9842,0,2023-03-10T14:08:45.047598,6403229,2087,312,353,-1023,-641,-297,112,52,-144
26523,9843,0,2023-03-10T14:08:45.052116,6403233,2087,312,353,-1023,-641,-297,112,52,-144
26524,9844,0,2023-03-10T14:08:45.056347,6403237,2081,313,359,-992,-631,-281,112,52,-144
26525,9845,0,2023-03-10T14:08:45.061768,6403244,2081,313,359,-992,-631,-281,112,52,-144
26526,9846,0,2023-03-10T14:08:45.066362,6403248,2081,313,359,-992,-631,-281,112,52,-144
26527,9847,0,2023-03-10T14:08:45.070890,6403253,2081,313,359,-992,-631,-281,112,52,-144
26528,9848,0,2023-03-10T14:08:45.075210,6403257,2112,323,347,-997,-652,-311,112,52,-144
26529,9849,0,2023-03-10T14:08:45.080236,6403262,2112,323,347,-997,-652,-311,112,52,-144
26530,9850,0,2023-03-10T14:08:45.085296,6403267,2112,323,347,-997,-652,-311,112,52,-144
26531,9851,0,2023-03-10T14:08:45.089829,6403271,2112,323,347,-997,-652,-311,112,52,-144
26532,9852,0,2023-03-10T14:08:45.095069,6403276,2085,318,347,-995,-614,-277,112,52,-144
26533,9853,0,2023-03-10T14:08:45.099895,6403281,2085,318,347,-995,-614,-277,112,52,-144
26534,9854,0,2023-03-10T14:08:45.104619,6403286,2085,318,347,-995,-614,-277,112,52,-144
26535,9855,0,2023-03-10T14:08:45.109149,6403291,2085,318,347,-995,-614,-277,112,52,-144
26536,9856,0,2023-03-10T14:08:45.113537,6403295,2085,318,347,-995,-614,-277,112,52,-144
26537,9857,0,2023-03-10T14:08:45.117931,6403299,2102,317,366,-953,-639,-278,112,52,-144
26538,9858,0,2023-03-10T14:08:45.123330,6403305,2102,317,366,-953,-639,-278,112,52,-144
26539,9859,0,2023-03-10T14:08:45.128090,6403309,2102,317,366,-953,-639,-278,112,52,-144
26540,9860,0,2023-03-10T14:08:45.132558,6403314,2102,317,366,-953,-639,-278,112,52,-144
26541,9861,0,2023-03-10T14:08:45.137357,6403318,2072,312,346,-1006,-682,-279,112,52,-144
26542,9862,0,2023-03-10T14:08:45.142402,6403323,2072,312,346,-1006,-682,-279,112,52,-144
26543,9863,0,2023-03-10T14:08:45.146811,6403329,2072,312,346,-1006,-682,-279,112,52,-144
26544,9864,0,2023-03-10T14:08:45.151601,6403333,2072,312,346,-1006,-682,-279,112,52,-144
26545,9865,0,2023-03-10T14:08:45.156494,6403338,2103,317,352,-1017,-600,-299,130,50,-138
26546,9866,0,2023-03-10T14:08:45.161882,6403343,2103,317,352,-1017,-600,-299,130,50,-138
26547,9867,0,2023-03-10T14:08:45.166189,6403348,2103,317,352,-1017,-600,-299,130,50,-138
26548,9868,0,2023-03-10T14:08:45.170753,6403352,2103,317,352,-1017,-600,-299,130,50,-138
26549,9869,0,2023-03-10T14:08:45.175059,6403356,2106,315,352,-981,-607,-296,130,50,-138
26550,9870,0,2023-03-10T14:08:45.180006,6403361,2106,315,352,-981,-607,-296,130,50,-138
26551,9871,0,2023-03-10T14:08:45.184886,6403366,2106,315,352,-981,-607,-296,130,50,-138
26552,9872,0,2023-03-10T14:08:45.189201,6403371,2106,315,352,-981,-607,-296,130,50,-138
26553,9873,0,2023-03-10T14:08:45.194039,6403376,2106,315,352,-981,-607,-296,130,50,-138
26554,9874,0,2023-03-10T14:08:45.198525,6403380,2069,313,343,-998,-632,-277,130,50,-138
26555,9875,0,2023-03-10T14:08:45.202990,6403385,2069,313,343,-998,-632,-277,130,50,-138
26556,9876,0,2023-03-10T14:08:45.207251,6403389,2069,313,343,-998,-632,-277,130,50,-138
26557,9877,0,2023-03-10T14:08:45.211748,6403393,2069,313,343,-998,-632,-277,130,50,-138
26558,9878,0,2023-03-10T14:08:45.216317,6403398,2101,312,365,-972,-594,-295,130,50,-138
26559,9879,0,2023-03-10T14:08:45.222189,6403403,2101,312,365,-972,-594,-295,130,50,-138
26560,9880,0,2023-03-10T14:08:45.226682,6403408,2101,312,365,-972,-594,-295,130,50,-138
26561,9881,0,2023-03-10T14:08:45.231103,6403412,2101,312,365,-972,-594,-295,130,50,-138
26562,9882,0,2023-03-10T14:08:45.235413,6403417,2064,310,362,-968,-690,-282,130,50,-138
26563,9883,0,2023-03-10T14:08:45.240518,6403422,2064,310,362,-968,-690,-282,130,50,-138
26564,9884,0,2023-03-10T14:08:45.245896,6403427,2064,310,362,-968,-690,-282,130,50,-138
26565,9885,0,2023-03-10T14:08:45.250508,6403432,2064,310,362,-968,-690,-282,130,50,-138
26566,9886,0,2023-03-10T14:08:45.254923,6403436,2108,322,344,-1032,-621,-308,130,50,-138
26567,9887,0,2023-03-10T14:08:45.260434,6403441,2108,322,344,-1032,-621,-308,130,50,-138
26568,9888,0,2023-03-10T14:08:45.265895,6403447,2108,322,344,-1032,-621,-308,130,50,-138
26569,9889,0,2023-03-10T14:08:45.270396,6403451,2108,322,344,-1032,-621,-308,130,50,-138
26570,9890,0,2023-03-10T14:08:45.274976,6403457,2079,312,357,-995,-591,-288,130,50,-138
26571,9891,0,2023-03-10T14:08:45.280120,6403462,2079,312,357,-995,-591,-288,130,50,-138
26572,9892,0,2023-03-10T14:08:45.284429,6403466,2079,312,357,-995,-591,-288,130,50,-138
26573,9893,0,2023-03-10T14:08:45.288835,6403470,2079,312,357,-995,-591,-288,130,50,-138
26574,9894,0,2023-03-10T14:08:45.293493,6403475,2079,312,357,-995,-591,-288,130,50,-138
26575,9895,0,2023-03-10T14:08:45.298569,6403480,2079,312,357,-995,-591,-288,112,46,-128
26576,9896,0,2023-03-10T14:08:45.303689,6403485,2079,312,357,-995,-591,-288,112,46,-128
26577,9897,0,2023-03-10T14:08:45.308151,6403489,2079,312,357,-995,-591,-288,112,46,-128
26578,9898,0,2023-03-10T14:08:45.312422,6403494,2079,312,357,-995,-591,-288,112,46,-128
26579,9899,0,2023-03-10T14:08:45.317098,6403499,2105,321,336,-1013,-633,-306,112,46,-128
26580,9900,0,2023-03-10T14:08:45.322512,6403504,2105,321,336,-1013,-633,-306,112,46,-128
26581,9901,0,2023-03-10T14:08:45.327043,6403509,2105,321,336,-1013,-633,-306,112,46,-128
26582,9902,0,2023-03-10T14:08:45.331504,6403513,2105,321,336,-1013,-633,-306,112,46,-128
26583,9903,0,2023-03-10T14:08:45.336111,6403517,2074,308,357,-980,-596,-287,112,46,-128
26584,9904,0,2023-03-10T14:08:45.341182,6403523,2074,308,357,-980,-596,-287,112,46,-128
26585,9905,0,2023-03-10T14:08:45.346047,6403527,2074,308,357,-980,-596,-287,112,46,-128
26586,9906,0,2023-03-10T14:08:45.350443,6403532,2074,308,357,-980,-596,-287,112,46,-128
26587,9907,0,2023-03-10T14:08:45.354856,6403536,2095,315,352,-1013,-610,-312,112,46,-128
26588,9908,0,2023-03-10T14:08:45.359843,6403542,2095,315,352,-1013,-610,-312,112,46,-128
26589,9909,0,2023-03-10T14:08:45.364207,6403546,2095,315,352,-1013,-610,-312,112,46,-128
26590,9910,0,2023-03-10T14:08:45.368704,6403550,2095,315,352,-1013,-610,-312,112,46,-128
26591,9911,0,2023-03-10T14:08:45.373132,6403555,2095,315,352,-1013,-610,-312,112,46,-128
26592,9912,0,2023-03-10T14:08:45.377461,6403559,2074,304,356,-990,-647,-276,112,46,-128
26593,9913,0,2023-03-10T14:08:45.382824,6403564,2074,304,356,-990,-647,-276,112,46,-128
26594,9914,0,2023-03-10T14:08:45.387231,6403569,2074,304,356,-990,-647,-276,112,46,-128
26595,9915,0,2023-03-10T14:08:45.391881,6403573,2074,304,356,-990,-647,-276,112,46,-128
26596,9916,0,2023-03-10T14:08:45.396483,6403577,2103,319,341,-992,-619,-299,112,46,-128
26597,9917,0,2023-03-10T14:08:45.401624,6403584,2103,319,341,-992,-619,-299,112,46,-128
26598,9918,0,2023-03-10T14:08:45.406243,6403588,2103,319,341,-992,-619,-299,112,46,-128
26599,9919,0,2023-03-10T14:08:45.410687,6403592,2103,319,341,-992,-619,-299,112,46,-128
