,Unnamed: 0,imu,server_time,arduino_time,ax,ay,az,gx,gy,gz,mx,my,mz
10500,1394,0,2023-03-01T18:50:46.509299,1636028,1185,1936,-71,-813,-506,-284,-46,166,-284
10501,1395,0,2023-03-01T18:50:46.515278,1636034,1185,1936,-71,-813,-506,-284,-46,166,-284
10502,1396,0,2023-03-01T18:50:46.520291,1636039,1185,1936,-71,-813,-506,-284,-46,166,-284
10503,1397,0,2023-03-01T18:50:46.525059,1636044,1185,1936,-71,-813,-506,-284,-46,166,-284
10504,1398,0,2023-03-01T18:50:46.530131,1636049,1183,1937,-71,-820,-508,-281,-46,166,-284
10505,1399,0,2023-03-01T18:50:46.536432,1636056,1183,1937,-71,-820,-508,-281,-46,166,-284
10506,1400,0,2023-03-01T18:50:46.541476,1636061,1183,1937,-71,-820,-508,-281,-46,166,-284
10507,1401,0,2023-03-01T18:50:46.546579,1636065,1183,1937,-71,-820,-508,-281,-46,166,-284
10508,1402,0,2023-03-01T18:50:46.552392,1636072,1183,1937,-70,-815,-503,-279,-61,171,-281
10509,1403,0,2023-03-01T18:50:46.558720,1636078,1183,1937,-70,-815,-503,-279,-61,171,-281
10510,1404,0,2023-03-01T18:50:46.563270,1636082,1183,1937,-70,-815,-503,-279,-61,171,-281
10511,1405,0,2023-03-01T18:50:46.568136,1636087,1186,1937,-68,-808,-508,-292,-61,171,-281
10512,1406,0,2023-03-01T18:50:46.574193,1636093,1186,1937,-68,-808,-508,-292,-61,171,-281
10513,1407,0,2023-03-01T18:50:46.579670,1636099,1186,1937,-68,-808,-508,-292,-61,171,-281
10514,1408,0,2023-03-01T18:50:46.584226,1636104,1186,1937,-68,-808,-508,-292,-61,171,-281
10515,1409,0,2023-03-01T18:50:46.588920,1636108,1183,1937,-74,-808,-517,-285,-61,171,-281
10516,1410,0,2023-03-01T18:50:46.594649,1636114,1183,1937,-74,-808,-517,-285,-61,171,-281
10517,1411,0,2023-03-01T18:50:46.599420,1636118,1183,1937,-74,-808,-517,-285,-61,171,-281
10518,1412,0,2023-03-01T18:50:46.604186,1636123,1183,1937,-74,-808,-517,-285,-61,171,-281
10519,1413,0,2023-03-01T18:50:46.609219,1636128,1186,1938,-71,-799,-492,-291,-61,171,-281
10520,1414,0,2023-03-01T18:50:46.615470,1636134,1186,1938,-71,-799,-492,-291,-61,171,-281
10521,1415,0,2023-03-01T18:50:46.620157,1636140,1186,1938,-71,-799,-492,-291,-61,171,-281
10522,1416,0,2023-03-01T18:50:46.624733,1636144,1186,1938,-71,-799,-492,-291,-61,171,-281
10523,1417,0,2023-03-01T18:50:46.629418,1636149,1185,1937,-75,-789,-498,-284,-61,171,-281
10524,1418,0,2023-03-01T18:50:46.634877,1636154,1185,1937,-75,-789,-498,-284,-61,171,-281
10525,1419,0,2023-03-01T18:50:46.639735,1636159,1185,1937,-75,-789,-498,-284,-61,171,-281
10526,1420,0,2023-03-01T18:50:46.644406,1636164,1185,1937,-75,-789,-498,-284,-61,171,-281
10527,1421,0,2023-03-01T18:50:46.649213,1636168,1184,1935,-80,-803,-505,-273,-61,171,-281
10528,1422,0,2023-03-01T18:50:46.656162,1636175,1184,1935,-80,-803,-505,-273,-61,171,-281
10529,1423,0,2023-03-01T18:50:46.660764,1636179,1184,1935,-80,-803,-505,-273,-61,171,-281
10530,1424,0,2023-03-01T18:50:46.666643,1636185,1184,1935,-80,-803,-505,-273,-61,171,-281
10531,1425,0,2023-03-01T18:50:46.671918,1636191,1183,1935,-80,-806,-495,-276,-56,162,-282
10532,1426,0,2023-03-01T18:50:46.677595,1636197,1183,1935,-80,-806,-495,-276,-56,162,-282
10533,1427,0,2023-03-01T18:50:46.682202,1636201,1183,1935,-80,-806,-495,-276,-56,162,-282
10534,1428,0,2023-03-01T18:50:46.687112,1636206,1185,1939,-74,-798,-503,-273,-56,162,-282
10535,1429,0,2023-03-01T18:50:46.693193,1636212,1185,1939,-74,-798,-503,-273,-56,162,-282
10536,1430,0,2023-03-01T18:50:46.698719,1636217,1185,1939,-74,-798,-503,-273,-56,162,-282
10537,1431,0,2023-03-01T18:50:46.703426,1636222,1185,1939,-74,-798,-503,-273,-56,162,-282
10538,1432,0,2023-03-01T18:50:46.708243,1636228,1190,1939,-73,-806,-496,-281,-56,162,-282
10539,1433,0,2023-03-01T18:50:46.714026,1636233,1190,1939,-73,-806,-496,-281,-56,162,-282
10540,1434,0,2023-03-01T18:50:46.718751,1636238,1190,1939,-73,-806,-496,-281,-56,162,-282
10541,1435,0,2023-03-01T18:50:46.723433,1636243,1190,1939,-73,-806,-496,-281,-56,162,-282
10542,1436,0,2023-03-01T18:50:46.728029,1636247,1185,1936,-86,-802,-520,-274,-56,162,-282
10543,1437,0,2023-03-01T18:50:46.733820,1636253,1185,1936,-86,-802,-520,-274,-56,162,-282
10544,1438,0,2023-03-01T18:50:46.738534,1636257,1185,1936,-86,-802,-520,-274,-56,162,-282
10545,1439,0,2023-03-01T18:50:46.743103,1636262,1185,1936,-86,-802,-520,-274,-56,162,-282
10546,1440,0,2023-03-01T18:50:46.747875,1636267,1184,1939,-81,-803,-503,-286,-56,162,-282
10547,1441,0,2023-03-01T18:50:46.754188,1636274,1184,1939,-81,-803,-503,-286,-56,162,-282
10548,1442,0,2023-03-01T18:50:46.758853,1636278,1184,1939,-81,-803,-503,-286,-56,162,-282
10549,1443,0,2023-03-01T18:50:46.764097,1636283,1184,1939,-81,-803,-503,-286,-56,162,-282
10550,1444,0,2023-03-01T18:50:46.768961,1636288,1183,1935,-88,-801,-508,-284,-56,162,-282
10551,1445,0,2023-03-01T18:50:46.774692,1636294,1183,1935,-88,-801,-508,-284,-56,162,-282
10552,1446,0,2023-03-01T18:50:46.780436,1636299,1183,1935,-88,-801,-508,-284,-56,162,-282
10553,1447,0,2023-03-01T18:50:46.785108,1636304,1183,1935,-88,-801,-508,-284,-56,162,-282
10554,1448,0,2023-03-01T18:50:46.789995,1636308,1180,1939,-90,-810,-503,-279,-56,162,-282
10555,1449,0,2023-03-01T18:50:46.796479,1636316,1180,1939,-90,-810,-503,-279,-56,162,-282
10556,1450,0,2023-03-01T18:50:46.802164,1636321,1180,1939,-90,-810,-503,-279,-56,162,-282
10557,1451,0,2023-03-01T18:50:46.807189,1636326,1180,1939,-90,-810,-503,-279,-56,162,-282
10558,1452,0,2023-03-01T18:50:46.812517,1636332,1186,1937,-84,-799,-500,-288,-52,154,-272
10559,1453,0,2023-03-01T18:50:46.818145,1636337,1186,1937,-84,-799,-500,-288,-52,154,-272
10560,1454,0,2023-03-01T18:50:46.822735,1636341,1186,1937,-84,-799,-500,-288,-52,154,-272
10561,1455,0,2023-03-01T18:50:46.827808,1636346,1190,1941,-82,-800,-501,-286,-52,154,-272
10562,1456,0,2023-03-01T18:50:46.833343,1636353,1190,1941,-82,-800,-501,-286,-52,154,-272
10563,1457,0,2023-03-01T18:50:46.838165,1636357,1190,1941,-82,-800,-501,-286,-52,154,-272
10564,1458,0,2023-03-01T18:50:46.842675,1636362,1190,1941,-82,-800,-501,-286,-52,154,-272
10565,1459,0,2023-03-01T18:50:46.847556,1636367,1189,1937,-83,-792,-499,-286,-52,154,-272
10566,1460,0,2023-03-01T18:50:46.853379,1636372,1189,1937,-83,-792,-499,-286,-52,154,-272
10567,1461,0,2023-03-01T18:50:46.858185,1636377,1189,1937,-83,-792,-499,-286,-52,154,-272
10568,1462,0,2023-03-01T18:50:46.863339,1636382,1189,1937,-83,-792,-499,-286,-52,154,-272
10569,1463,0,2023-03-01T18:50:46.868030,1636387,1185,1939,-83,-799,-514,-284,-52,154,-272
10570,1464,0,2023-03-01T18:50:46.873959,1636392,1185,1939,-83,-799,-514,-284,-52,154,-272
10571,1465,0,2023-03-01T18:50:46.879580,1636399,1185,1939,-83,-799,-514,-284,-52,154,-272
10572,1466,0,2023-03-01T18:50:46.884472,1636404,1185,1939,-83,-799,-514,-284,-52,154,-272
10573,1467,0,2023-03-01T18:50:46.889390,1636409,1186,1935,-89,-795,-497,-289,-52,154,-272
10574,1468,0,2023-03-01T18:50:46.895345,1636414,1186,1935,-89,-795,-497,-289,-52,154,-272
10575,1469,0,2023-03-01T18:50:46.901086,1636420,1186,1935,-89,-795,-497,-289,-52,154,-272
10576,1470,0,2023-03-01T18:50:46.906245,1636425,1186,1935,-89,-795,-497,-289,-52,154,-272
10577,1471,0,2023-03-01T18:50:46.911276,1636430,1188,1941,-88,-795,-506,-283,-52,154,-272
10578,1472,0,2023-03-01T18:50:46.917447,1636436,1188,1941,-88,-795,-506,-283,-52,154,-272
10579,1473,0,2023-03-01T18:50:46.923055,1636442,1188,1941,-88,-795,-506,-283,-52,154,-272
10580,1474,0,2023-03-01T18:50:46.928267,1636447,1186,1939,-94,-802,-510,-279,-54,164,-274
10581,1475,0,2023-03-01T18:50:46.934474,1636454,1186,1939,-94,-802,-510,-279,-54,164,-274
10582,1476,0,2023-03-01T18:50:46.939488,1636458,1186,1939,-94,-802,-510,-279,-54,164,-274
10583,1477,0,2023-03-01T18:50:46.944467,1636463,1186,1939,-94,-802,-510,-279,-54,164,-274
10584,1478,0,2023-03-01T18:50:46.949460,1636468,1189,1943,-86,-798,-487,-283,-54,164,-274
10585,1479,0,2023-03-01T18:50:46.955440,1636474,1189,1943,-86,-798,-487,-283,-54,164,-274
10586,1480,0,2023-03-01T18:50:46.960403,1636480,1189,1943,-86,-798,-487,-283,-54,164,-274
10587,1481,0,2023-03-01T18:50:46.965540,1636485,1189,1943,-86,-798,-487,-283,-54,164,-274
10588,1482,0,2023-03-01T18:50:46.970445,1636490,1185,1937,-95,-802,-510,-280,-54,164,-274
10589,1483,0,2023-03-01T18:50:46.977329,1636496,1185,1937,-95,-802,-510,-280,-54,164,-274
10590,1484,0,2023-03-01T18:50:46.982603,1636502,1185,1937,-95,-802,-510,-280,-54,164,-274
10591,1485,0,2023-03-01T18:50:46.987578,1636506,1190,1943,-95,-822,-505,-285,-54,164,-274
10592,1486,0,2023-03-01T18:50:46.993304,1636512,1190,1943,-95,-822,-505,-285,-54,164,-274
10593,1487,0,2023-03-01T18:50:46.998545,1636517,1190,1943,-95,-822,-505,-285,-54,164,-274
10594,1488,0,2023-03-01T18:50:47.003495,1636523,1190,1943,-95,-822,-505,-285,-54,164,-274
10595,1489,0,2023-03-01T18:50:47.008086,1636528,1187,1943,-92,-808,-500,-281,-54,164,-274
10596,1490,0,2023-03-01T18:50:47.013675,1636533,1187,1943,-92,-808,-500,-281,-54,164,-274
10597,1491,0,2023-03-01T18:50:47.019109,1636538,1187,1943,-92,-808,-500,-281,-54,164,-274
10598,1492,0,2023-03-01T18:50:47.024343,1636543,1187,1943,-92,-808,-500,-281,-54,164,-274
10599,1493,0,2023-03-01T18:50:47.029382,1636548,1188,1933,-98,-799,-496,-279,-54,164,-274
10600,1494,0,2023-03-01T18:50:47.035830,1636554,1188,1933,-98,-799,-496,-279,-54,164,-274
10601,1495,0,2023-03-01T18:50:47.040423,1636559,1188,1933,-98,-799,-496,-279,-54,164,-274
10602,1496,0,2023-03-01T18:50:47.045528,1636564,1188,1933,-98,-799,-496,-279,-54,164,-274
10603,1497,0,2023-03-01T18:50:47.050369,1636570,1188,1938,-97,-805,-490,-282,-54,164,-274
10604,1498,0,2023-03-01T18:50:47.056189,1636575,1188,1938,-97,-805,-490,-282,-54,164,-274
10605,1499,0,2023-03-01T18:50:47.061065,1636580,1188,1938,-97,-805,-490,-282,-54,164,-274
10606,1500,0,2023-03-01T18:50:47.066178,1636585,1188,1938,-97,-805,-490,-282,-54,164,-274
10607,1501,0,2023-03-01T18:50:47.071961,1636591,1186,1939,-92,-802,-502,-286,-57,161,-275
10608,1502,0,2023-03-01T18:50:47.078214,1636597,1186,1939,-92,-802,-502,-286,-57,161,-275
10609,1503,0,2023-03-01T18:50:47.083019,1636602,1186,1939,-92,-802,-502,-286,-57,161,-275
10610,1504,0,2023-03-01T18:50:47.088129,1636608,1188,1938,-97,-814,-500,-283,-57,161,-275
10611,1505,0,2023-03-01T18:50:47.095220,1636615,1188,1938,-97,-814,-500,-283,-57,161,-275
10612,1506,0,2023-03-01T18:50:47.101176,1636620,1188,1938,-97,-814,-500,-283,-57,161,-275
10613,1507,0,2023-03-01T18:50:47.105974,1636625,1188,1938,-97,-814,-500,-283,-57,161,-275
10614,1508,0,2023-03-01T18:50:47.111358,1636630,1189,1938,-99,-787,-494,-291,-57,161,-275
10615,1509,0,2023-03-01T18:50:47.117303,1636636,1189,1938,-99,-787,-494,-291,-57,161,-275
10616,1510,0,2023-03-01T18:50:47.122489,1636641,1189,1938,-99,-787,-494,-291,-57,161,-275
10617,1511,0,2023-03-01T18:50:47.127708,1636646,1189,1940,-99,-807,-500,-283,-57,161,-275
10618,1512,0,2023-03-01T18:50:47.133913,1636653,1189,1940,-99,-807,-500,-283,-57,161,-275
10619,1513,0,2023-03-01T18:50:47.138519,1636658,1189,1940,-99,-807,-500,-283,-57,161,-275
10620,1514,0,2023-03-01T18:50:47.143505,1636663,1189,1940,-99,-807,-500,-283,-57,161,-275
10621,1515,0,2023-03-01T18:50:47.148029,1636667,1189,1942,-102,-803,-505,-287,-57,161,-275
10622,1516,0,2023-03-01T18:50:47.154038,1636673,1189,1942,-102,-803,-505,-287,-57,161,-275
10623,1517,0,2023-03-01T18:50:47.159696,1636678,1189,1942,-102,-803,-505,-287,-57,161,-275
10624,1518,0,2023-03-01T18:50:47.165079,1636683,1189,1942,-102,-803,-505,-287,-57,161,-275
10625,1519,0,2023-03-01T18:50:47.170179,1636689,1188,1939,-103,-802,-501,-279,-57,161,-275
10626,1520,0,2023-03-01T18:50:47.175916,1636695,1188,1939,-103,-802,-501,-279,-57,161,-275
10627,1521,0,2023-03-01T18:50:47.180784,1636700,1188,1939,-103,-802,-501,-279,-57,161,-275
10628,1522,0,2023-03-01T18:50:47.185880,1636705,1188,1939,-103,-802,-501,-279,-57,161,-275
10629,1523,0,2023-03-01T18:50:47.191477,1636710,1191,1941,-95,-796,-492,-288,-48,168,-280
10630,1524,0,2023-03-01T18:50:47.197357,1636717,1191,1941,-95,-796,-492,-288,-48,168,-280
10631,1525,0,2023-03-01T18:50:47.202538,1636721,1191,1941,-95,-796,-492,-288,-48,168,-280
10632,1526,0,2023-03-01T18:50:47.207890,1636727,1191,1940,-104,-794,-502,-278,-48,168,-280
10633,1527,0,2023-03-01T18:50:47.214021,1636732,1191,1940,-104,-794,-502,-278,-48,168,-280
10634,1528,0,2023-03-01T18:50:47.219906,1636739,1191,1940,-104,-794,-502,-278,-48,168,-280
10635,1529,0,2023-03-01T18:50:47.225258,1636745,1191,1940,-104,-794,-502,-278,-48,168,-280
10636,1530,0,2023-03-01T18:50:47.229993,1636749,1188,1943,-98,-804,-495,-286,-48,168,-280
10637,1531,0,2023-03-01T18:50:47.235695,1636755,1188,1943,-98,-804,-495,-286,-48,168,-280
10638,1532,0,2023-03-01T18:50:47.240283,1636759,1188,1943,-98,-804,-495,-286,-48,168,-280
10639,1533,0,2023-03-01T18:50:47.245352,1636764,1188,1943,-98,-804,-495,-286,-48,168,-280
10640,1534,0,2023-03-01T18:50:47.250090,1636769,1186,1941,-104,-786,-501,-285,-48,168,-280
10641,1535,0,2023-03-01T18:50:47.256031,1636775,1186,1941,-104,-786,-501,-285,-48,168,-280
10642,1536,0,2023-03-01T18:50:47.261337,1636781,1186,1941,-104,-786,-501,-285,-48,168,-280
10643,1537,0,2023-03-01T18:50:47.266050,1636785,1186,1941,-104,-786,-501,-285,-48,168,-280
10644,1538,0,2023-03-01T18:50:47.272201,1636792,1189,1937,-100,-806,-494,-274,-48,168,-280
10645,1539,0,2023-03-01T18:50:47.278098,1636797,1189,1937,-100,-806,-494,-274,-48,168,-280
10646,1540,0,2023-03-01T18:50:47.283004,1636802,1189,1937,-100,-806,-494,-274,-48,168,-280
10647,1541,0,2023-03-01T18:50:47.287671,1636807,1189,1937,-100,-806,-494,-274,-48,168,-280
10648,1542,0,2023-03-01T18:50:47.293070,1636812,1188,1938,-105,-796,-492,-286,-48,168,-280
10649,1543,0,2023-03-01T18:50:47.298789,1636818,1188,1938,-105,-796,-492,-286,-48,168,-280
10650,1544,0,2023-03-01T18:50:47.303683,1636823,1188,1938,-105,-796,-492,-286,-48,168,-280
10651,1545,0,2023-03-01T18:50:47.308516,1636828,1188,1939,-107,-802,-502,-280,-48,168,-280
10652,1546,0,2023-03-01T18:50:47.314185,1636834,1188,1939,-107,-802,-502,-280,-48,168,-280
10653,1547,0,2023-03-01T18:50:47.319258,1636838,1188,1939,-107,-802,-502,-280,-48,168,-280
10654,1548,0,2023-03-01T18:50:47.323868,1636843,1188,1939,-107,-802,-502,-280,-48,168,-280
10655,1549,0,2023-03-01T18:50:47.328987,1636848,1188,1940,-107,-804,-485,-276,-58,164,-282
10656,1550,0,2023-03-01T18:50:47.335470,1636854,1188,1940,-107,-804,-485,-276,-58,164,-282
10657,1551,0,2023-03-01T18:50:47.341473,1636860,1188,1940,-107,-804,-485,-276,-58,164,-282
10658,1552,0,2023-03-01T18:50:47.346364,1636866,1188,1940,-107,-804,-485,-276,-58,164,-282
10659,1553,0,2023-03-01T18:50:47.351780,1636871,1189,1940,-115,-785,-500,-281,-58,164,-282
10660,1554,0,2023-03-01T18:50:47.357648,1636877,1189,1940,-115,-785,-500,-281,-58,164,-282
10661,1555,0,2023-03-01T18:50:47.362534,1636882,1189,1940,-115,-785,-500,-281,-58,164,-282
10662,1556,0,2023-03-01T18:50:47.367256,1636886,1189,1940,-115,-785,-500,-281,-58,164,-282
10663,1557,0,2023-03-01T18:50:47.372952,1636892,1195,1932,-100,-773,-477,-272,-58,164,-282
10664,1558,0,2023-03-01T18:50:47.378921,1636897,1195,1932,-100,-773,-477,-272,-58,164,-282
10665,1559,0,2023-03-01T18:50:47.383870,1636902,1195,1932,-100,-773,-477,-272,-58,164,-282
10666,1560,0,2023-03-01T18:50:47.388627,1636908,1188,1944,-114,-779,-496,-281,-58,164,-282
10667,1561,0,2023-03-01T18:50:47.394510,1636914,1188,1944,-114,-779,-496,-281,-58,164,-282
10668,1562,0,2023-03-01T18:50:47.399331,1636919,1188,1944,-114,-779,-496,-281,-58,164,-282
10669,1563,0,2023-03-01T18:50:47.404205,1636923,1188,1944,-114,-779,-496,-281,-58,164,-282
10670,1564,0,2023-03-01T18:50:47.408818,1636928,1188,1941,-110,-799,-492,-280,-58,164,-282
10671,1565,0,2023-03-01T18:50:47.415060,1636934,1188,1941,-110,-799,-492,-280,-58,164,-282
10672,1566,0,2023-03-01T18:50:47.420599,1636939,1188,1941,-110,-799,-492,-280,-58,164,-282
10673,1567,0,2023-03-01T18:50:47.425897,1636944,1188,1941,-110,-799,-492,-280,-58,164,-282
10674,1568,0,2023-03-01T18:50:47.430601,1636950,1188,1935,-117,-797,-504,-282,-58,164,-282
10675,1569,0,2023-03-01T18:50:47.437187,1636956,1188,1935,-117,-797,-504,-282,-58,164,-282
10676,1570,0,2023-03-01T18:50:47.443044,1636961,1188,1935,-117,-797,-504,-282,-58,164,-282
10677,1571,0,2023-03-01T18:50:47.448304,1636967,1189,1940,-111,-785,-494,-281,-55,164,-282
10678,1572,0,2023-03-01T18:50:47.455271,1636974,1189,1940,-111,-785,-494,-281,-55,161,-283
10679,1573,0,2023-03-01T18:50:47.460446,1636979,1189,1940,-111,-785,-494,-281,-55,161,-283
10680,1574,0,2023-03-01T18:50:47.465261,1636984,1189,1940,-111,-785,-494,-281,-55,161,-283
10681,1575,0,2023-03-01T18:50:47.470416,1636989,1194,1942,-110,-794,-482,-292,-55,161,-283
10682,1576,0,2023-03-01T18:50:47.476677,1636996,1194,1942,-110,-794,-482,-292,-55,161,-283
10683,1577,0,2023-03-01T18:50:47.481548,1637001,1194,1942,-110,-794,-482,-292,-55,161,-283
10684,1578,0,2023-03-01T18:50:47.486612,1637006,1194,1942,-110,-794,-482,-292,-55,161,-283
10685,1579,0,2023-03-01T18:50:47.491602,1637011,1192,1942,-107,-793,-496,-287,-55,161,-283
10686,1580,0,2023-03-01T18:50:47.497996,1637017,1192,1942,-107,-793,-496,-287,-55,161,-283
10687,1581,0,2023-03-01T18:50:47.502626,1637022,1192,1942,-107,-793,-496,-287,-55,161,-283
10688,1582,0,2023-03-01T18:50:47.507971,1637026,1192,1942,-107,-793,-496,-287,-55,161,-283
10689,1583,0,2023-03-01T18:50:47.513571,1637032,1192,1942,-118,-791,-490,-285,-55,161,-283
10690,1584,0,2023-03-01T18:50:47.519198,1637039,1192,1942,-118,-791,-490,-285,-55,161,-283
10691,1585,0,2023-03-01T18:50:47.523921,1637043,1192,1942,-118,-791,-490,-285,-55,161,-283
10692,1586,0,2023-03-01T18:50:47.528874,1637048,1193,1942,-122,-796,-502,-283,-55,161,-283
10693,1587,0,2023-03-01T18:50:47.535533,1637054,1193,1942,-122,-796,-502,-283,-55,161,-283
10694,1588,0,2023-03-01T18:50:47.541346,1637060,1193,1942,-122,-796,-502,-283,-55,161,-283
10695,1589,0,2023-03-01T18:50:47.546060,1637065,1193,1942,-122,-796,-502,-283,-55,161,-283
10696,1590,0,2023-03-01T18:50:47.551638,1637070,1192,1941,-113,-796,-494,-280,-55,161,-283
10697,1591,0,2023-03-01T18:50:47.557780,1637076,1192,1941,-113,-796,-494,-280,-55,161,-283
10698,1592,0,2023-03-01T18:50:47.562377,1637082,1192,1941,-113,-796,-494,-280,-55,161,-283
10699,1593,0,2023-03-01T18:50:47.567711,1637087,1192,1941,-113,-796,-494,-280,-55,161,-283
10700,1594,0,2023-03-01T18:50:47.573322,1637092,1192,1943,-116,-798,-493,-288,-56,170,-282
10701,1595,0,2023-03-01T18:50:47.579376,1637098,1192,1943,-116,-798,-493,-288,-56,170,-282
10702,1596,0,2023-03-01T18:50:47.584576,1637103,1192,1943,-116,-798,-493,-288,-56,170,-282
10703,1597,0,2023-03-01T18:50:47.589659,1637108,1192,1940,-121,-797,-502,-283,-56,170,-282
10704,1598,0,2023-03-01T18:50:47.596049,1637114,1192,1940,-121,-797,-502,-283,-56,170,-282
10705,1599,0,2023-03-01T18:50:47.600900,1637120,1192,1940,-121,-797,-502,-283,-56,170,-282
10706,1600,0,2023-03-01T18:50:47.605476,1637125,1192,1940,-121,-797,-502,-283,-56,170,-282
10707,1601,0,2023-03-01T18:50:47.610466,1637130,1195,1943,-119,-804,-490,-286,-56,170,-282
10708,1602,0,2023-03-01T18:50:47.616965,1637136,1195,1943,-119,-804,-490,-286,-56,170,-282
10709,1603,0,2023-03-01T18:50:47.621957,1637141,1195,1943,-119,-804,-490,-286,-56,170,-282
10710,1604,0,2023-03-01T18:50:47.626713,1637146,1195,1943,-119,-804,-490,-286,-56,170,-282
10711,1605,0,2023-03-01T18:50:47.633413,1637151,1190,1943,-126,-793,-501,-288,-56,170,-282
10712,1606,0,2023-03-01T18:50:47.639406,1637158,1190,1943,-126,-793,-501,-288,-56,170,-282
10713,1607,0,2023-03-01T18:50:47.644765,1637164,1190,1943,-126,-793,-501,-288,-56,170,-282
10714,1608,0,2023-03-01T18:50:47.650122,1637169,1190,1941,-123,-789,-487,-285,-56,170,-282
10715,1609,0,2023-03-01T18:50:47.655705,1637175,1190,1941,-123,-789,-487,-285,-56,170,-282
10716,1610,0,2023-03-01T18:50:47.660793,1637180,1190,1941,-123,-789,-487,-285,-56,170,-282
10717,1611,0,2023-03-01T18:50:47.665821,1637185,1190,1941,-123,-789,-487,-285,-56,170,-282
10718,1612,0,2023-03-01T18:50:47.670752,1637190,1191,1943,-130,-795,-494,-287,-56,170,-282
10719,1613,0,2023-03-01T18:50:47.676339,1637195,1191,1943,-130,-795,-494,-287,-56,170,-282
10720,1614,0,2023-03-01T18:50:47.681376,1637200,1191,1943,-130,-795,-494,-287,-56,170,-282
10721,1615,0,2023-03-01T18:50:47.686373,1637206,1191,1943,-130,-795,-494,-287,-56,170,-282
10722,1616,0,2023-03-01T18:50:47.692129,1637211,1190,1939,-130,-787,-502,-285,-56,170,-282
10723,1617,0,2023-03-01T18:50:47.697349,1637217,1190,1939,-130,-787,-502,-285,-56,170,-282
10724,1618,0,2023-03-01T18:50:47.702020,1637221,1190,1939,-130,-787,-502,-285,-56,170,-282
10725,1619,0,2023-03-01T18:50:47.706839,1637226,1190,1939,-130,-787,-502,-285,-56,170,-282
10726,1620,0,2023-03-01T18:50:47.712441,1637231,1194,1940,-125,-793,-494,-286,-48,178,-288
10727,1621,0,2023-03-01T18:50:47.718533,1637237,1194,1940,-125,-793,-494,-286,-48,178,-288
10728,1622,0,2023-03-01T18:50:47.723689,1637242,1194,1940,-125,-793,-494,-286,-48,178,-288
10729,1623,0,2023-03-01T18:50:47.728430,1637248,1188,1933,-120,-767,-491,-275,-48,178,-288
10730,1624,0,2023-03-01T18:50:47.734395,1637254,1188,1933,-120,-767,-491,-275,-48,178,-288
10731,1625,0,2023-03-01T18:50:47.739936,1637259,1188,1933,-120,-767,-491,-275,-48,178,-288
10732,1626,0,2023-03-01T18:50:47.744566,1637264,1188,1933,-120,-767,-491,-275,-48,178,-288
10733,1627,0,2023-03-01T18:50:47.749890,1637269,1191,1944,-126,-787,-484,-283,-48,178,-288
10734,1628,0,2023-03-01T18:50:47.755079,1637274,1191,1944,-126,-787,-484,-283,-48,178,-288
10735,1629,0,2023-03-01T18:50:47.761569,1637280,1191,1944,-126,-787,-484,-283,-48,178,-288
10736,1630,0,2023-03-01T18:50:47.766401,1637285,1191,1944,-126,-787,-484,-283,-48,178,-288
10737,1631,0,2023-03-01T18:50:47.772008,1637291,1192,1944,-122,-796,-499,-285,-48,178,-288
10738,1632,0,2023-03-01T18:50:47.777348,1637297,1192,1944,-122,-796,-499,-285,-48,178,-288
10739,1633,0,2023-03-01T18:50:47.782100,1637301,1192,1944,-122,-796,-499,-285,-48,178,-288
10740,1634,0,2023-03-01T18:50:47.786856,1637306,1192,1944,-122,-796,-499,-285,-48,178,-288
10741,1635,0,2023-03-01T18:50:47.792684,1637312,1189,1941,-132,-799,-493,-281,-48,178,-288
10742,1636,0,2023-03-01T18:50:47.798648,1637318,1189,1941,-132,-799,-493,-281,-48,178,-288
10743,1637,0,2023-03-01T18:50:47.803908,1637322,1189,1941,-132,-799,-493,-281,-48,178,-288
10744,1638,0,2023-03-01T18:50:47.808758,1637327,1193,1941,-126,-798,-491,-279,-48,178,-288
10745,1639,0,2023-03-01T18:50:47.815043,1637334,1193,1941,-126,-798,-491,-279,-48,178,-288
10746,1640,0,2023-03-01T18:50:47.819860,1637339,1193,1941,-126,-798,-491,-279,-48,178,-288
10747,1641,0,2023-03-01T18:50:47.825267,1637344,1193,1941,-126,-798,-491,-279,-48,178,-288
10748,1642,0,2023-03-01T18:50:47.830345,1637349,1191,1938,-132,-785,-512,-281,-50,158,-284
10749,1643,0,2023-03-01T18:50:47.836187,1637355,1191,1938,-132,-785,-512,-281,-50,158,-284
10750,1644,0,2023-03-01T18:50:47.842040,1637361,1191,1938,-132,-785,-512,-281,-50,158,-284
10751,1645,0,2023-03-01T18:50:47.846901,1637366,1191,1938,-132,-785,-512,-281,-50,158,-284
10752,1646,0,2023-03-01T18:50:47.852323,1637371,1192,1943,-129,-801,-492,-278,-50,158,-284
10753,1647,0,2023-03-01T18:50:47.858171,1637378,1192,1943,-129,-801,-492,-278,-50,158,-284
10754,1648,0,2023-03-01T18:50:47.863256,1637382,1192,1943,-129,-801,-492,-278,-50,158,-284
10755,1649,0,2023-03-01T18:50:47.869951,1637389,1193,1940,-132,-788,-497,-273,-50,158,-284
10756,1650,0,2023-03-01T18:50:47.876033,1637395,1193,1940,-132,-788,-497,-273,-50,158,-284
10757,1651,0,2023-03-01T18:50:47.881328,1637400,1193,1940,-132,-788,-497,-273,-50,158,-284
10758,1652,0,2023-03-01T18:50:47.886363,1637405,1193,1940,-132,-788,-497,-273,-50,158,-284
10759,1653,0,2023-03-01T18:50:47.892212,1637411,1195,1945,-132,-799,-486,-282,-50,158,-284
10760,1654,0,2023-03-01T18:50:47.898044,1637417,1195,1945,-132,-799,-486,-282,-50,158,-284
10761,1655,0,2023-03-01T18:50:47.902972,1637422,1195,1945,-132,-799,-486,-282,-50,158,-284
10762,1656,0,2023-03-01T18:50:47.907939,1637427,1195,1945,-132,-799,-486,-282,-50,158,-284
10763,1657,0,2023-03-01T18:50:47.913476,1637433,1193,1940,-136,-787,-507,-283,-50,158,-284
10764,1658,0,2023-03-01T18:50:47.919274,1637438,1193,1940,-136,-787,-507,-283,-50,158,-284
10765,1659,0,2023-03-01T18:50:47.924379,1637443,1193,1940,-136,-787,-507,-283,-50,158,-284
10766,1660,0,2023-03-01T18:50:47.929187,1637448,1190,1943,-141,-794,-496,-288,-50,158,-284
10767,1661,0,2023-03-01T18:50:47.935361,1637454,1190,1943,-141,-794,-496,-288,-50,158,-284
10768,1662,0,2023-03-01T18:50:47.940279,1637459,1190,1943,-141,-794,-496,-288,-50,158,-284
10769,1663,0,2023-03-01T18:50:47.945177,1637465,1190,1943,-141,-794,-496,-288,-50,158,-284
10770,1664,0,2023-03-01T18:50:47.949948,1637469,1194,1938,-141,-779,-480,-286,-50,158,-284
10771,1665,0,2023-03-01T18:50:47.955536,1637475,1194,1938,-141,-779,-480,-286,-50,158,-284
10772,1666,0,2023-03-01T18:50:47.960478,1637479,1194,1938,-141,-779,-480,-286,-50,158,-284
10773,1667,0,2023-03-01T18:50:47.965256,1637484,1194,1938,-141,-779,-480,-286,-50,158,-284
10774,1668,0,2023-03-01T18:50:47.970095,1637489,1191,1942,-141,-789,-497,-282,-60,172,-288
10775,1669,0,2023-03-01T18:50:47.976701,1637495,1191,1942,-141,-789,-497,-282,-60,172,-288
10776,1670,0,2023-03-01T18:50:47.982619,1637501,1191,1942,-141,-789,-497,-282,-60,172,-288
10777,1671,0,2023-03-01T18:50:47.987555,1637507,1191,1942,-141,-789,-497,-282,-60,172,-288
10778,1672,0,2023-03-01T18:50:47.992265,1637512,1193,1944,-137,-795,-489,-281,-60,172,-288
10779,1673,0,2023-03-01T18:50:47.999229,1637518,1193,1944,-137,-795,-489,-281,-60,172,-288
10780,1674,0,2023-03-01T18:50:48.004041,1637523,1193,1944,-137,-795,-489,-281,-60,172,-288
10781,1675,0,2023-03-01T18:50:48.008837,1637528,1195,1942,-143,-777,-505,-280,-60,172,-288
10782,1676,0,2023-03-01T18:50:48.014829,1637534,1195,1942,-143,-777,-505,-280,-60,172,-288
10783,1677,0,2023-03-01T18:50:48.019751,1637538,1195,1942,-143,-777,-505,-280,-60,172,-288
10784,1678,0,2023-03-01T18:50:48.024705,1637543,1195,1942,-143,-777,-505,-280,-60,172,-288
10785,1679,0,2023-03-01T18:50:48.029961,1637549,1194,1944,-140,-795,-501,-284,-60,172,-288
10786,1680,0,2023-03-01T18:50:48.036155,1637556,1194,1944,-140,-795,-501,-284,-60,172,-288
10787,1681,0,2023-03-01T18:50:48.041559,1637561,1194,1944,-140,-795,-501,-284,-60,172,-288
10788,1682,0,2023-03-01T18:50:48.046256,1637565,1194,1944,-140,-795,-501,-284,-60,172,-288
10789,1683,0,2023-03-01T18:50:48.051467,1637570,1192,1942,-146,-793,-503,-287,-60,172,-288
10790,1684,0,2023-03-01T18:50:48.057620,1637576,1192,1942,-146,-793,-503,-287,-60,172,-288
10791,1685,0,2023-03-01T18:50:48.062482,1637581,1192,1942,-146,-793,-503,-287,-60,172,-288
10792,1686,0,2023-03-01T18:50:48.067655,1637586,1192,1942,-146,-793,-503,-287,-60,172,-288
10793,1687,0,2023-03-01T18:50:48.073145,1637593,1194,1943,-146,-794,-501,-281,-60,172,-288
10794,1688,0,2023-03-01T18:50:48.079355,1637599,1194,1943,-146,-794,-501,-281,-60,172,-288
10795,1689,0,2023-03-01T18:50:48.085519,1637604,1194,1943,-146,-794,-501,-281,-60,172,-288
10796,1690,0,2023-03-01T18:50:48.090976,1637610,1196,1945,-145,-796,-493,-284,-56,168,-282
10797,1691,0,2023-03-01T18:50:48.097037,1637616,1196,1945,-145,-796,-493,-284,-56,168,-282
10798,1692,0,2023-03-01T18:50:48.101833,1637621,1196,1945,-145,-796,-493,-284,-56,168,-282
10799,1693,0,2023-03-01T18:50:48.106721,1637625,1196,1945,-145,-796,-493,-284,-56,168,-282
10800,1694,0,2023-03-01T18:50:48.112113,1637632,1194,1945,-140,-796,-494,-284,-56,168,-282
10801,1695,0,2023-03-01T18:50:48.118922,1637638,1194,1945,-140,-796,-494,-284,-56,168,-282
10802,1696,0,2023-03-01T18:50:48.123970,1637643,1194,1945,-140,-796,-494,-284,-56,168,-282
10803,1697,0,2023-03-01T18:50:48.128642,1637648,1194,1945,-140,-796,-494,-284,-56,168,-282
10804,1698,0,2023-03-01T18:50:48.134275,1637653,1197,1943,-144,-793,-500,-286,-56,168,-282
10805,1699,0,2023-03-01T18:50:48.140578,1637659,1197,1943,-144,-793,-500,-286,-56,168,-282
10806,1700,0,2023-03-01T18:50:48.145616,1637664,1197,1943,-144,-793,-500,-286,-56,168,-282
10807,1701,0,2023-03-01T18:50:48.150421,1637669,1197,1942,-148,-787,-505,-282,-56,168,-282
10808,1702,0,2023-03-01T18:50:48.156688,1637676,1197,1942,-148,-787,-505,-282,-56,168,-282
10809,1703,0,2023-03-01T18:50:48.161382,1637681,1197,1942,-148,-787,-505,-282,-56,168,-282
10810,1704,0,2023-03-01T18:50:48.166127,1637685,1197,1942,-148,-787,-505,-282,-56,168,-282
10811,1705,0,2023-03-01T18:50:48.171923,1637691,1193,1940,-150,-790,-490,-290,-56,168,-282
10812,1706,0,2023-03-01T18:50:48.178159,1637697,1193,1940,-150,-790,-490,-290,-56,168,-282
10813,1707,0,2023-03-01T18:50:48.183014,1637702,1193,1940,-150,-790,-490,-290,-56,168,-282
10814,1708,0,2023-03-01T18:50:48.187886,1637707,1193,1940,-150,-790,-490,-290,-56,168,-282
10815,1709,0,2023-03-01T18:50:48.193153,1637712,1194,1942,-151,-796,-497,-285,-56,168,-282
10816,1710,0,2023-03-01T18:50:48.199248,1637719,1194,1942,-151,-796,-497,-285,-56,168,-282
10817,1711,0,2023-03-01T18:50:48.204161,1637724,1194,1942,-151,-796,-497,-285,-56,168,-282
10818,1712,0,2023-03-01T18:50:48.208984,1637728,1192,1943,-153,-798,-499,-287,-56,168,-282
10819,1713,0,2023-03-01T18:50:48.214784,1637734,1192,1943,-153,-798,-499,-287,-56,168,-282
10820,1714,0,2023-03-01T18:50:48.220624,1637739,1192,1943,-153,-798,-499,-287,-56,168,-282
10821,1715,0,2023-03-01T18:50:48.225881,1637745,1192,1943,-153,-798,-499,-287,-56,168,-282
10822,1716,0,2023-03-01T18:50:48.230939,1637750,1198,1946,-152,-813,-496,-285,-54,172,-290
10823,1717,0,2023-03-01T18:50:48.237102,1637756,1198,1946,-152,-813,-496,-285,-54,172,-290
10824,1718,0,2023-03-01T18:50:48.241898,1637761,1198,1946,-152,-813,-496,-285,-54,172,-290
10825,1719,0,2023-03-01T18:50:48.247000,1637766,1198,1946,-152,-813,-496,-285,-54,172,-290
10826,1720,0,2023-03-01T18:50:48.252958,1637772,1192,1944,-149,-791,-493,-289,-54,172,-290
10827,1721,0,2023-03-01T18:50:48.259085,1637778,1192,1944,-149,-791,-493,-289,-54,172,-290
10828,1722,0,2023-03-01T18:50:48.263972,1637783,1192,1944,-149,-791,-493,-289,-54,172,-290
10829,1723,0,2023-03-01T18:50:48.269130,1637788,1192,1944,-149,-791,-493,-289,-54,172,-290
10830,1724,0,2023-03-01T18:50:48.275423,1637793,1199,1940,-154,-801,-496,-284,-54,172,-290
10831,1725,0,2023-03-01T18:50:48.280794,1637799,1199,1940,-154,-801,-496,-284,-54,172,-290
10832,1726,0,2023-03-01T18:50:48.286103,1637806,1199,1940,-154,-801,-496,-284,-54,172,-290
10833,1727,0,2023-03-01T18:50:48.291312,1637811,1197,1941,-157,-798,-499,-292,-54,172,-290
10834,1728,0,2023-03-01T18:50:48.296960,1637816,1197,1941,-157,-798,-499,-292,-54,172,-290
10835,1729,0,2023-03-01T18:50:48.301815,1637821,1197,1941,-157,-798,-499,-292,-54,172,-290
10836,1730,0,2023-03-01T18:50:48.308259,1637827,1197,1941,-157,-798,-499,-292,-54,172,-290
10837,1731,0,2023-03-01T18:50:48.313933,1637833,1195,1943,-158,-787,-494,-280,-54,172,-290
10838,1732,0,2023-03-01T18:50:48.319760,1637838,1195,1943,-158,-787,-494,-280,-54,172,-290
10839,1733,0,2023-03-01T18:50:48.324547,1637843,1195,1943,-158,-787,-494,-280,-54,172,-290
10840,1734,0,2023-03-01T18:50:48.329321,1637849,1198,1946,-153,-800,-484,-293,-54,172,-290
10841,1735,0,2023-03-01T18:50:48.335408,1637855,1198,1946,-153,-800,-484,-293,-54,172,-290
10842,1736,0,2023-03-01T18:50:48.341428,1637861,1198,1946,-153,-800,-484,-293,-54,172,-290
10843,1737,0,2023-03-01T18:50:48.346634,1637866,1198,1946,-153,-800,-484,-293,-54,172,-290
10844,1738,0,2023-03-01T18:50:48.352581,1637871,1195,1946,-156,-801,-505,-282,-47,153,-281
10845,1739,0,2023-03-01T18:50:48.358442,1637877,1195,1946,-156,-801,-505,-282,-47,153,-281
10846,1740,0,2023-03-01T18:50:48.363177,1637882,1195,1946,-156,-801,-505,-282,-47,153,-281
10847,1741,0,2023-03-01T18:50:48.368556,1637888,1195,1946,-156,-801,-505,-282,-47,153,-281
10848,1742,0,2023-03-01T18:50:48.374271,1637894,1195,1943,-155,-811,-487,-291,-47,153,-281
10849,1743,0,2023-03-01T18:50:48.380094,1637899,1195,1943,-155,-811,-487,-291,-47,153,-281
10850,1744,0,2023-03-01T18:50:48.385203,1637904,1195,1943,-155,-811,-487,-291,-47,153,-281
10851,1745,0,2023-03-01T18:50:48.389973,1637909,1193,1946,-161,-797,-498,-292,-47,153,-281
10852,1746,0,2023-03-01T18:50:48.395939,1637915,1193,1946,-161,-797,-498,-292,-47,153,-281
10853,1747,0,2023-03-01T18:50:48.400576,1637920,1193,1946,-161,-797,-498,-292,-47,153,-281
10854,1748,0,2023-03-01T18:50:48.405246,1637924,1193,1946,-161,-797,-498,-292,-47,153,-281
10855,1749,0,2023-03-01T18:50:48.410535,1637928,1196,1943,-159,-811,-489,-287,-47,153,-281
10856,1750,0,2023-03-01T18:50:48.416087,1637936,1196,1943,-159,-811,-489,-287,-47,153,-281
10857,1751,0,2023-03-01T18:50:48.421702,1637941,1196,1943,-159,-811,-489,-287,-47,153,-281
10858,1752,0,2023-03-01T18:50:48.426867,1637946,1196,1943,-159,-811,-489,-287,-47,153,-281
10859,1753,0,2023-03-01T18:50:48.432378,1637951,1199,1949,-164,-794,-497,-290,-47,153,-281
10860,1754,0,2023-03-01T18:50:48.438216,1637957,1199,1949,-164,-794,-497,-290,-47,153,-281
10861,1755,0,2023-03-01T18:50:48.443304,1637962,1199,1949,-164,-794,-497,-290,-47,153,-281
10862,1756,0,2023-03-01T18:50:48.448358,1637967,1199,1949,-164,-794,-497,-290,-47,153,-281
10863,1757,0,2023-03-01T18:50:48.454328,1637974,1198,1940,-165,-799,-492,-287,-47,153,-281
10864,1758,0,2023-03-01T18:50:48.459815,1637979,1198,1940,-165,-799,-492,-287,-47,153,-281
10865,1759,0,2023-03-01T18:50:48.464894,1637984,1198,1940,-165,-799,-492,-287,-47,153,-281
10866,1760,0,2023-03-01T18:50:48.469687,1637989,1196,1946,-161,-813,-491,-291,-47,153,-281
10867,1761,0,2023-03-01T18:50:48.476654,1637995,1196,1946,-161,-813,-491,-291,-52,166,-284
10868,1762,0,2023-03-01T18:50:48.482271,1638001,1196,1946,-161,-813,-491,-291,-52,166,-284
10869,1763,0,2023-03-01T18:50:48.487512,1638006,1196,1946,-161,-813,-491,-291,-52,166,-284
10870,1764,0,2023-03-01T18:50:48.492786,1638011,1197,1947,-165,-804,-500,-289,-52,166,-284
10871,1765,0,2023-03-01T18:50:48.499390,1638019,1197,1947,-165,-804,-500,-289,-52,166,-284
10872,1766,0,2023-03-01T18:50:48.504621,1638024,1197,1947,-165,-804,-500,-289,-52,166,-284
10873,1767,0,2023-03-01T18:50:48.509600,1638029,1199,1948,-160,-803,-479,-296,-52,166,-284
10874,1768,0,2023-03-01T18:50:48.515560,1638035,1199,1948,-160,-803,-479,-296,-52,166,-284
10875,1769,0,2023-03-01T18:50:48.521164,1638040,1199,1948,-160,-803,-479,-296,-52,166,-284
10876,1770,0,2023-03-01T18:50:48.526158,1638045,1199,1948,-160,-803,-479,-296,-52,166,-284
10877,1771,0,2023-03-01T18:50:48.532153,1638051,1197,1945,-165,-813,-498,-290,-52,166,-284
10878,1772,0,2023-03-01T18:50:48.537048,1638055,1197,1945,-165,-813,-498,-290,-52,166,-284
10879,1773,0,2023-03-01T18:50:48.541914,1638061,1197,1945,-165,-813,-498,-290,-52,166,-284
10880,1774,0,2023-03-01T18:50:48.546991,1638066,1197,1945,-165,-813,-498,-290,-52,166,-284
10881,1775,0,2023-03-01T18:50:48.552478,1638071,1195,1943,-168,-818,-499,-288,-52,166,-284
10882,1776,0,2023-03-01T18:50:48.558561,1638078,1195,1943,-168,-818,-499,-288,-52,166,-284
10883,1777,0,2023-03-01T18:50:48.563604,1638082,1195,1943,-168,-818,-499,-288,-52,166,-284
10884,1778,0,2023-03-01T18:50:48.568475,1638087,1195,1943,-168,-818,-499,-288,-52,166,-284
10885,1779,0,2023-03-01T18:50:48.574341,1638093,1197,1945,-167,-818,-487,-296,-52,166,-284
10886,1780,0,2023-03-01T18:50:48.580646,1638099,1197,1945,-167,-818,-487,-296,-52,166,-284
10887,1781,0,2023-03-01T18:50:48.585682,1638105,1197,1945,-167,-818,-487,-296,-52,166,-284
10888,1782,0,2023-03-01T18:50:48.590552,1638110,1197,1945,-173,-814,-499,-286,-52,166,-284
10889,1783,0,2023-03-01T18:50:48.596800,1638116,1197,1945,-173,-814,-499,-286,-52,166,-284
10890,1784,0,2023-03-01T18:50:48.601521,1638121,1197,1945,-173,-814,-499,-286,-52,166,-284
10891,1785,0,2023-03-01T18:50:48.606504,1638126,1197,1945,-173,-814,-499,-286,-52,166,-284
10892,1786,0,2023-03-01T18:50:48.611520,1638130,1195,1946,-168,-810,-492,-291,-60,170,-292
10893,1787,0,2023-03-01T18:50:48.617291,1638136,1195,1946,-168,-810,-492,-291,-60,170,-292
10894,1788,0,2023-03-01T18:50:48.622200,1638141,1195,1946,-168,-810,-492,-291,-60,170,-292
10895,1789,0,2023-03-01T18:50:48.627177,1638147,1195,1946,-168,-810,-492,-291,-60,170,-292
10896,1790,0,2023-03-01T18:50:48.632729,1638152,1196,1945,-175,-817,-499,-289,-60,170,-292
10897,1791,0,2023-03-01T18:50:48.638956,1638158,1196,1945,-175,-817,-499,-289,-60,170,-292
10898,1792,0,2023-03-01T18:50:48.643983,1638163,1196,1945,-175,-817,-499,-289,-60,170,-292
10899,1793,0,2023-03-01T18:50:48.648770,1638168,1196,1945,-175,-817,-499,-289,-60,170,-292
10900,1794,0,2023-03-01T18:50:48.654498,1638173,1199,1947,-172,-829,-473,-292,-60,170,-292
10901,1795,0,2023-03-01T18:50:48.660506,1638179,1199,1947,-172,-829,-473,-292,-60,170,-292
10902,1796,0,2023-03-01T18:50:48.665666,1638184,1199,1947,-172,-829,-473,-292,-60,170,-292
10903,1797,0,2023-03-01T18:50:48.670705,1638190,1198,1943,-166,-824,-475,-290,-60,170,-292
10904,1798,0,2023-03-01T18:50:48.677106,1638196,1198,1943,-166,-824,-475,-290,-60,170,-292
10905,1799,0,2023-03-01T18:50:48.682601,1638202,1198,1943,-166,-824,-475,-290,-60,170,-292
10906,1800,0,2023-03-01T18:50:48.687656,1638207,1198,1943,-166,-824,-475,-290,-60,170,-292
10907,1801,0,2023-03-01T18:50:48.693108,1638212,1195,1945,-169,-838,-469,-286,-60,170,-292
10908,1802,0,2023-03-01T18:50:48.699253,1638218,1195,1945,-169,-838,-469,-286,-60,170,-292
10909,1803,0,2023-03-01T18:50:48.704484,1638223,1195,1945,-169,-838,-469,-286,-60,170,-292
10910,1804,0,2023-03-01T18:50:48.709370,1638228,1195,1945,-169,-838,-469,-286,-60,170,-292
10911,1805,0,2023-03-01T18:50:48.714751,1638234,1198,1944,-167,-862,-462,-292,-60,170,-292
10912,1806,0,2023-03-01T18:50:48.720509,1638240,1198,1944,-167,-862,-462,-292,-60,170,-292
10913,1807,0,2023-03-01T18:50:48.725367,1638245,1198,1944,-167,-862,-462,-292,-60,170,-292
10914,1808,0,2023-03-01T18:50:48.730339,1638249,1196,1945,-179,-885,-447,-298,-47,155,-291
10915,1809,0,2023-03-01T18:50:48.736418,1638255,1196,1945,-179,-885,-447,-298,-47,155,-291
10916,1810,0,2023-03-01T18:50:48.741186,1638260,1196,1945,-179,-885,-447,-298,-47,155,-291
10917,1811,0,2023-03-01T18:50:48.747004,1638266,1196,1945,-179,-885,-447,-298,-47,155,-291
10918,1812,0,2023-03-01T18:50:48.752410,1638272,1197,1947,-164,-917,-397,-304,-47,155,-291
10919,1813,0,2023-03-01T18:50:48.758015,1638278,1197,1947,-164,-917,-397,-304,-47,155,-291
10920,1814,0,2023-03-01T18:50:48.762717,1638282,1197,1947,-164,-917,-397,-304,-47,155,-291
10921,1815,0,2023-03-01T18:50:48.767919,1638287,1197,1947,-164,-917,-397,-304,-47,155,-291
10922,1816,0,2023-03-01T18:50:48.773329,1638293,1194,1942,-174,-931,-406,-301,-47,155,-291
10923,1817,0,2023-03-01T18:50:48.779006,1638298,1194,1942,-174,-931,-406,-301,-47,155,-291
10924,1818,0,2023-03-01T18:50:48.783772,1638303,1194,1942,-174,-931,-406,-301,-47,155,-291
10925,1819,0,2023-03-01T18:50:48.788464,1638307,1194,1942,-174,-931,-406,-301,-47,155,-291
10926,1820,0,2023-03-01T18:50:48.793683,1638312,1198,1946,-167,-933,-396,-299,-47,155,-291
10927,1821,0,2023-03-01T18:50:48.799410,1638319,1198,1946,-167,-933,-396,-299,-47,155,-291
10928,1822,0,2023-03-01T18:50:48.804244,1638324,1198,1946,-167,-933,-396,-299,-47,155,-291
10929,1823,0,2023-03-01T18:50:48.809709,1638329,1198,1946,-167,-933,-396,-299,-47,155,-291
10930,1824,0,2023-03-01T18:50:48.814414,1638334,1197,1945,-175,-936,-401,-303,-47,155,-291
10931,1825,0,2023-03-01T18:50:48.820643,1638340,1197,1945,-175,-936,-401,-303,-47,155,-291
10932,1826,0,2023-03-01T18:50:48.825479,1638345,1197,1945,-175,-936,-401,-303,-47,155,-291
10933,1827,0,2023-03-01T18:50:48.830242,1638349,1199,1942,-174,-941,-403,-314,-47,155,-291
10934,1828,0,2023-03-01T18:50:48.836168,1638355,1199,1942,-174,-941,-403,-314,-47,155,-291
10935,1829,0,2023-03-01T18:50:48.841092,1638361,1199,1942,-174,-941,-403,-314,-47,155,-291
10936,1830,0,2023-03-01T18:50:48.845740,1638365,1199,1942,-174,-941,-403,-314,-47,155,-291
10937,1831,0,2023-03-01T18:50:48.850325,1638370,1195,1944,-175,-940,-410,-304,-47,155,-291
10938,1832,0,2023-03-01T18:50:48.856100,1638375,1195,1944,-175,-940,-410,-304,-47,155,-291
10939,1833,0,2023-03-01T18:50:48.861629,1638381,1195,1944,-175,-940,-410,-304,-47,155,-291
10940,1834,0,2023-03-01T18:50:48.866762,1638386,1195,1944,-175,-940,-410,-304,-47,155,-291
10941,1835,0,2023-03-01T18:50:48.872167,1638391,1196,1946,-173,-943,-407,-307,-57,167,-285
10942,1836,0,2023-03-01T18:50:48.878258,1638397,1196,1946,-173,-943,-407,-307,-57,167,-285
10943,1837,0,2023-03-01T18:50:48.883274,1638403,1196,1946,-173,-943,-407,-307,-57,167,-285
10944,1838,0,2023-03-01T18:50:48.887869,1638407,1196,1946,-173,-943,-407,-307,-57,167,-285
10945,1839,0,2023-03-01T18:50:48.893362,1638413,1202,1942,-168,-934,-397,-299,-57,167,-285
10946,1840,0,2023-03-01T18:50:48.898979,1638418,1202,1942,-168,-934,-397,-299,-57,167,-285
10947,1841,0,2023-03-01T18:50:48.903944,1638423,1202,1942,-168,-934,-397,-299,-57,167,-285
10948,1842,0,2023-03-01T18:50:48.908654,1638428,1202,1942,-168,-934,-397,-299,-57,167,-285
10949,1843,0,2023-03-01T18:50:48.914341,1638433,1196,1947,-174,-939,-403,-300,-57,167,-285
10950,1844,0,2023-03-01T18:50:48.920037,1638439,1196,1947,-174,-939,-403,-300,-57,167,-285
10951,1845,0,2023-03-01T18:50:48.924941,1638445,1196,1947,-174,-939,-403,-300,-57,167,-285
10952,1846,0,2023-03-01T18:50:48.930269,1638450,1196,1943,-170,-945,-400,-293,-57,167,-285
10953,1847,0,2023-03-01T18:50:48.936212,1638455,1196,1943,-170,-945,-400,-293,-57,167,-285
10954,1848,0,2023-03-01T18:50:48.941633,1638461,1196,1943,-170,-945,-400,-293,-57,167,-285
10955,1849,0,2023-03-01T18:50:48.946089,1638465,1196,1943,-170,-945,-400,-293,-57,167,-285
10956,1850,0,2023-03-01T18:50:48.950844,1638470,1199,1948,-174,-940,-394,-308,-57,167,-285
10957,1851,0,2023-03-01T18:50:48.957001,1638476,1199,1948,-174,-940,-394,-308,-57,167,-285
10958,1852,0,2023-03-01T18:50:48.961953,1638481,1199,1948,-174,-940,-394,-308,-57,167,-285
10959,1853,0,2023-03-01T18:50:48.966679,1638486,1199,1948,-174,-940,-394,-308,-57,167,-285
10960,1854,0,2023-03-01T18:50:48.972669,1638492,1197,1945,-177,-950,-402,-300,-57,167,-285
10961,1855,0,2023-03-01T18:50:48.978822,1638498,1197,1945,-177,-950,-402,-300,-57,167,-285
10962,1856,0,2023-03-01T18:50:48.983807,1638503,1197,1945,-177,-950,-402,-300,-57,167,-285
10963,1857,0,2023-03-01T18:50:48.988545,1638508,1197,1945,-177,-950,-402,-300,-57,167,-285
10964,1858,0,2023-03-01T18:50:48.993183,1638512,1198,1949,-171,-943,-404,-310,-49,161,-285
10965,1859,0,2023-03-01T18:50:48.999277,1638518,1198,1949,-171,-943,-404,-310,-49,161,-285
10966,1860,0,2023-03-01T18:50:49.004367,1638523,1198,1949,-171,-943,-404,-310,-49,161,-285
10967,1861,0,2023-03-01T18:50:49.009646,1638529,1198,1949,-171,-943,-404,-310,-49,161,-285
10968,1862,0,2023-03-01T18:50:49.015260,1638535,1198,1948,-176,-936,-401,-300,-49,161,-285
10969,1863,0,2023-03-01T18:50:49.021209,1638541,1198,1948,-176,-936,-401,-300,-49,161,-285
10970,1864,0,2023-03-01T18:50:49.026269,1638545,1198,1948,-176,-936,-401,-300,-49,161,-285
10971,1865,0,2023-03-01T18:50:49.031666,1638551,1198,1943,-175,-937,-397,-307,-49,161,-285
10972,1866,0,2023-03-01T18:50:49.037683,1638556,1198,1943,-175,-937,-397,-307,-49,161,-285
10973,1867,0,2023-03-01T18:50:49.043122,1638562,1198,1943,-175,-937,-397,-307,-49,161,-285
10974,1868,0,2023-03-01T18:50:49.048086,1638567,1198,1943,-175,-937,-397,-307,-49,161,-285
10975,1869,0,2023-03-01T18:50:49.053476,1638573,1195,1945,-179,-925,-408,-305,-49,161,-285
10976,1870,0,2023-03-01T18:50:49.059750,1638579,1195,1945,-179,-925,-408,-305,-49,161,-285
10977,1871,0,2023-03-01T18:50:49.064548,1638584,1195,1945,-179,-925,-408,-305,-49,161,-285
10978,1872,0,2023-03-01T18:50:49.069673,1638589,1195,1945,-179,-925,-408,-305,-49,161,-285
10979,1873,0,2023-03-01T18:50:49.075876,1638594,1197,1947,-168,-933,-401,-298,-49,161,-285
10980,1874,0,2023-03-01T18:50:49.082350,1638601,1197,1947,-168,-933,-401,-298,-49,161,-285
10981,1875,0,2023-03-01T18:50:49.087891,1638606,1197,1947,-168,-933,-401,-298,-49,161,-285
10982,1876,0,2023-03-01T18:50:49.093774,1638612,1197,1946,-178,-933,-405,-308,-49,161,-285
10983,1877,0,2023-03-01T18:50:49.099264,1638619,1197,1946,-178,-933,-405,-308,-49,161,-285
10984,1878,0,2023-03-01T18:50:49.104370,1638624,1197,1946,-178,-933,-405,-308,-49,161,-285
10985,1879,0,2023-03-01T18:50:49.109469,1638629,1197,1946,-178,-933,-405,-308,-49,161,-285
10986,1880,0,2023-03-01T18:50:49.114862,1638634,1197,1948,-170,-938,-396,-309,-57,169,-287
10987,1881,0,2023-03-01T18:50:49.120689,1638640,1197,1948,-170,-938,-396,-309,-57,169,-287
10988,1882,0,2023-03-01T18:50:49.125541,1638644,1197,1948,-170,-938,-396,-309,-57,169,-287
10989,1883,0,2023-03-01T18:50:49.130216,1638649,1196,1941,-168,-940,-403,-308,-57,169,-287
10990,1884,0,2023-03-01T18:50:49.136445,1638656,1196,1941,-168,-940,-403,-308,-57,169,-287
10991,1885,0,2023-03-01T18:50:49.142250,1638662,1196,1941,-168,-940,-403,-308,-57,169,-287
10992,1886,0,2023-03-01T18:50:49.147145,1638666,1196,1941,-168,-940,-403,-308,-57,169,-287
10993,1887,0,2023-03-01T18:50:49.152557,1638672,1194,1943,-174,-937,-408,-308,-57,169,-287
10994,1888,0,2023-03-01T18:50:49.158791,1638678,1194,1943,-174,-937,-408,-308,-57,169,-287
10995,1889,0,2023-03-01T18:50:49.163857,1638683,1194,1943,-174,-937,-408,-308,-57,169,-287
10996,1890,0,2023-03-01T18:50:49.169251,1638687,1194,1943,-174,-937,-408,-308,-57,169,-287
10997,1891,0,2023-03-01T18:50:49.174619,1638693,1202,1943,-174,-932,-399,-306,-57,169,-287
10998,1892,0,2023-03-01T18:50:49.180928,1638700,1202,1943,-174,-932,-399,-306,-57,169,-287
10999,1893,0,2023-03-01T18:50:49.185714,1638705,1202,1943,-174,-932,-399,-306,-57,169,-287
11000,1894,0,2023-03-01T18:50:49.191148,1638710,1197,1942,-173,-921,-397,-312,-57,169,-287
11001,1895,0,2023-03-01T18:50:49.197166,1638716,1197,1942,-173,-921,-397,-312,-57,169,-287
11002,1896,0,2023-03-01T18:50:49.202338,1638721,1197,1942,-173,-921,-397,-312,-57,169,-287
11003,1897,0,2023-03-01T18:50:49.206993,1638726,1197,1942,-173,-921,-397,-312,-57,169,-287
11004,1898,0,2023-03-01T18:50:49.212402,1638731,1198,1945,-187,-936,-408,-308,-57,169,-287
11005,1899,0,2023-03-01T18:50:49.218033,1638737,1198,1945,-187,-936,-408,-308,-57,169,-287
11006,1900,0,2023-03-01T18:50:49.222887,1638743,1198,1945,-187,-936,-408,-308,-57,169,-287
11007,1901,0,2023-03-01T18:50:49.227750,1638747,1198,1945,-187,-936,-408,-308,-57,169,-287
11008,1902,0,2023-03-01T18:50:49.233396,1638753,1196,1948,-178,-928,-395,-310,-57,169,-287
11009,1903,0,2023-03-01T18:50:49.239542,1638759,1196,1948,-178,-928,-395,-310,-57,169,-287
11010,1904,0,2023-03-01T18:50:49.244373,1638763,1196,1948,-178,-928,-395,-310,-57,169,-287
11011,1905,0,2023-03-01T18:50:49.249163,1638768,1196,1948,-178,-928,-395,-310,-57,169,-287
11012,1906,0,2023-03-01T18:50:49.254792,1638774,1195,1945,-173,-934,-396,-305,-50,166,-284
11013,1907,0,2023-03-01T18:50:49.260434,1638779,1195,1945,-173,-934,-396,-305,-50,166,-284
11014,1908,0,2023-03-01T18:50:49.265277,1638785,1195,1945,-173,-934,-396,-305,-50,166,-284
11015,1909,0,2023-03-01T18:50:49.270169,1638790,1197,1948,-169,-930,-393,-308,-50,166,-284
11016,1910,0,2023-03-01T18:50:49.276159,1638795,1197,1948,-169,-930,-393,-308,-50,166,-284
11017,1911,0,2023-03-01T18:50:49.280774,1638800,1197,1948,-169,-930,-393,-308,-50,166,-284
11018,1912,0,2023-03-01T18:50:49.285557,1638805,1197,1948,-169,-930,-393,-308,-50,166,-284
11019,1913,0,2023-03-01T18:50:49.291046,1638809,1196,1941,-180,-930,-407,-309,-50,166,-284
11020,1914,0,2023-03-01T18:50:49.297374,1638816,1196,1941,-180,-930,-407,-309,-50,166,-284
11021,1915,0,2023-03-01T18:50:49.303473,1638822,1196,1941,-180,-930,-407,-309,-50,166,-284
11022,1916,0,2023-03-01T18:50:49.308410,1638828,1196,1941,-180,-930,-407,-309,-50,166,-284
11023,1917,0,2023-03-01T18:50:49.314136,1638834,1199,1947,-177,-930,-398,-304,-50,166,-284
11024,1918,0,2023-03-01T18:50:49.319537,1638839,1199,1947,-177,-930,-398,-304,-50,166,-284
11025,1919,0,2023-03-01T18:50:49.324496,1638844,1199,1947,-177,-930,-398,-304,-50,166,-284
11026,1920,0,2023-03-01T18:50:49.329221,1638848,1199,1947,-177,-930,-398,-304,-50,166,-284
11027,1921,0,2023-03-01T18:50:49.335637,1638854,1196,1944,-175,-931,-400,-313,-50,166,-284
11028,1922,0,2023-03-01T18:50:49.342058,1638861,1196,1944,-175,-931,-400,-313,-50,166,-284
11029,1923,0,2023-03-01T18:50:49.346748,1638865,1196,1944,-175,-931,-400,-313,-50,166,-284
11030,1924,0,2023-03-01T18:50:49.352017,1638872,1199,1946,-178,-931,-408,-312,-50,166,-284
11031,1925,0,2023-03-01T18:50:49.357369,1638877,1199,1946,-178,-931,-408,-312,-50,166,-284
11032,1926,0,2023-03-01T18:50:49.362336,1638882,1199,1946,-178,-931,-408,-312,-50,166,-284
11033,1927,0,2023-03-01T18:50:49.367430,1638887,1199,1946,-178,-931,-408,-312,-50,166,-284
11034,1928,0,2023-03-01T18:50:49.372890,1638892,1195,1945,-180,-920,-399,-311,-51,169,-285
11035,1929,0,2023-03-01T18:50:49.378624,1638898,1195,1945,-180,-920,-399,-311,-51,169,-285
11036,1930,0,2023-03-01T18:50:49.383647,1638903,1195,1945,-180,-920,-399,-311,-51,169,-285
11037,1931,0,2023-03-01T18:50:49.388282,1638907,1195,1945,-180,-920,-399,-311,-51,169,-285
11038,1932,0,2023-03-01T18:50:49.393721,1638913,1194,1947,-177,-923,-393,-304,-51,169,-285
11039,1933,0,2023-03-01T18:50:49.399509,1638919,1194,1947,-177,-923,-393,-304,-51,169,-285
11040,1934,0,2023-03-01T18:50:49.404440,1638924,1194,1947,-177,-923,-393,-304,-51,169,-285
11041,1935,0,2023-03-01T18:50:49.409289,1638929,1194,1947,-177,-923,-393,-304,-51,169,-285
11042,1936,0,2023-03-01T18:50:49.414707,1638934,1195,1949,-175,-924,-393,-317,-51,169,-285
11043,1937,0,2023-03-01T18:50:49.420388,1638939,1195,1949,-175,-924,-393,-317,-51,169,-285
11044,1938,0,2023-03-01T18:50:49.425144,1638944,1195,1949,-175,-924,-393,-317,-51,169,-285
11045,1939,0,2023-03-01T18:50:49.430013,1638949,1195,1949,-175,-924,-393,-317,-51,169,-285
11046,1940,0,2023-03-01T18:50:49.435352,1638955,1198,1944,-175,-932,-400,-311,-51,169,-285
11047,1941,0,2023-03-01T18:50:49.441324,1638961,1198,1944,-175,-932,-400,-311,-51,169,-285
11048,1942,0,2023-03-01T18:50:49.446448,1638966,1198,1944,-175,-932,-400,-311,-51,169,-285
11049,1943,0,2023-03-01T18:50:49.451562,1638971,1200,1948,-171,-924,-394,-312,-51,169,-285
11050,1944,0,2023-03-01T18:50:49.457209,1638977,1200,1948,-171,-924,-394,-312,-51,169,-285
11051,1945,0,2023-03-01T18:50:49.461920,1638981,1200,1948,-171,-924,-394,-312,-51,169,-285
11052,1946,0,2023-03-01T18:50:49.466651,1638986,1200,1948,-171,-924,-394,-312,-51,169,-285
11053,1947,0,2023-03-01T18:50:49.472035,1638991,1196,1947,-171,-939,-393,-316,-51,169,-285
11054,1948,0,2023-03-01T18:50:49.477660,1638996,1196,1947,-171,-939,-393,-316,-51,169,-285
11055,1949,0,2023-03-01T18:50:49.483163,1639003,1196,1947,-171,-939,-393,-316,-51,169,-285
11056,1950,0,2023-03-01T18:50:49.488103,1639008,1196,1947,-171,-939,-393,-316,-51,169,-285
11057,1951,0,2023-03-01T18:50:49.493267,1639013,1196,1946,-176,-937,-404,-311,-51,169,-285
11058,1952,0,2023-03-01T18:50:49.499183,1639018,1196,1946,-176,-937,-404,-311,-51,169,-285
11059,1953,0,2023-03-01T18:50:49.504126,1639023,1196,1946,-176,-937,-404,-311,-51,169,-285
11060,1954,0,2023-03-01T18:50:49.509140,1639028,1196,1946,-176,-937,-404,-311,-51,169,-285
11061,1955,0,2023-03-01T18:50:49.515193,1639034,1195,1946,-180,-937,-407,-302,-57,167,-283
11062,1956,0,2023-03-01T18:50:49.521247,1639041,1195,1946,-180,-937,-407,-302,-57,167,-283
11063,1957,0,2023-03-01T18:50:49.526278,1639046,1195,1946,-180,-937,-407,-302,-57,167,-283
11064,1958,0,2023-03-01T18:50:49.531238,1639050,1199,1945,-177,-931,-397,-306,-57,167,-283
11065,1959,0,2023-03-01T18:50:49.537575,1639057,1199,1945,-177,-931,-397,-306,-57,167,-283
11066,1960,0,2023-03-01T18:50:49.543101,1639062,1199,1945,-177,-931,-397,-306,-57,167,-283
11067,1961,0,2023-03-01T18:50:49.548163,1639067,1199,1945,-177,-931,-397,-306,-57,167,-283
11068,1962,0,2023-03-01T18:50:49.553271,1639072,1195,1944,-177,-938,-405,-302,-57,167,-283
11069,1963,0,2023-03-01T18:50:49.558743,1639078,1195,1944,-177,-938,-405,-302,-57,167,-283
11070,1964,0,2023-03-01T18:50:49.564028,1639083,1195,1944,-177,-938,-405,-302,-57,167,-283
11071,1965,0,2023-03-01T18:50:49.568764,1639088,1195,1944,-177,-938,-405,-302,-57,167,-283
11072,1966,0,2023-03-01T18:50:49.574271,1639094,1202,1957,-172,-888,-433,-310,-57,167,-283
11073,1967,0,2023-03-01T18:50:49.580420,1639099,1202,1957,-172,-888,-433,-310,-57,167,-283
11074,1968,0,2023-03-01T18:50:49.585853,1639105,1202,1957,-172,-888,-433,-310,-57,167,-283
11075,1969,0,2023-03-01T18:50:49.590767,1639110,1197,1937,-181,-792,-515,-291,-57,167,-283
11076,1970,0,2023-03-01T18:50:49.597059,1639116,1197,1937,-181,-792,-515,-291,-57,167,-283
11077,1971,0,2023-03-01T18:50:49.601786,1639120,1197,1937,-181,-792,-515,-291,-57,167,-283
11078,1972,0,2023-03-01T18:50:49.606925,1639126,1197,1937,-181,-792,-515,-291,-57,167,-283
11079,1973,0,2023-03-01T18:50:49.612360,1639132,1198,1948,-175,-803,-495,-311,-57,167,-283
11080,1974,0,2023-03-01T18:50:49.617686,1639137,1198,1948,-175,-803,-495,-311,-57,167,-283
11081,1975,0,2023-03-01T18:50:49.623559,1639142,1198,1948,-175,-803,-495,-311,-57,167,-283
11082,1976,0,2023-03-01T18:50:49.628641,1639148,1198,1948,-175,-803,-495,-311,-57,167,-283
11083,1977,0,2023-03-01T18:50:49.634098,1639153,1198,1948,-175,-803,-495,-311,-45,169,-291
11084,1978,0,2023-03-01T18:50:49.639319,1639158,1198,1948,-175,-803,-495,-311,-45,169,-291
11085,1979,0,2023-03-01T18:50:49.644394,1639163,1198,1948,-175,-803,-495,-311,-45,169,-291
11086,1980,0,2023-03-01T18:50:49.650877,1639171,1202,1955,-180,-788,-499,-299,-45,169,-291
11087,1981,0,2023-03-01T18:50:49.656831,1639176,1202,1955,-180,-788,-499,-299,-45,169,-291
11088,1982,0,2023-03-01T18:50:49.662045,1639181,1202,1955,-180,-788,-499,-299,-45,169,-291
11089,1983,0,2023-03-01T18:50:49.667432,1639186,1202,1955,-180,-788,-499,-299,-45,169,-291
11090,1984,0,2023-03-01T18:50:49.672738,1639192,1197,1944,-179,-776,-515,-291,-45,169,-291
11091,1985,0,2023-03-01T18:50:49.678721,1639198,1197,1944,-179,-776,-515,-291,-45,169,-291
11092,1986,0,2023-03-01T18:50:49.683493,1639202,1197,1944,-179,-776,-515,-291,-45,169,-291
11093,1987,0,2023-03-01T18:50:49.688888,1639208,1197,1944,-179,-776,-515,-291,-45,169,-291
11094,1988,0,2023-03-01T18:50:49.694469,1639214,1198,1947,-179,-785,-504,-290,-45,169,-291
11095,1989,0,2023-03-01T18:50:49.700520,1639220,1198,1947,-179,-785,-504,-290,-45,169,-291
11096,1990,0,2023-03-01T18:50:49.705364,1639225,1198,1947,-179,-785,-504,-290,-45,169,-291
11097,1991,0,2023-03-01T18:50:49.710092,1639229,1198,1947,-179,-785,-504,-290,-45,169,-291
11098,1992,0,2023-03-01T18:50:49.715689,1639234,1198,1946,-182,-781,-516,-291,-45,169,-291
11099,1993,0,2023-03-01T18:50:49.721684,1639241,1198,1946,-182,-781,-516,-291,-45,169,-291
11100,1994,0,2023-03-01T18:50:49.727124,1639245,1198,1946,-182,-781,-516,-291,-45,169,-291
11101,1995,0,2023-03-01T18:50:49.732560,1639251,1198,1947,-188,-795,-508,-285,-45,169,-291
11102,1996,0,2023-03-01T18:50:49.738165,1639258,1198,1947,-188,-795,-508,-285,-45,169,-291
11103,1997,0,2023-03-01T18:50:49.743802,1639263,1198,1947,-188,-795,-508,-285,-45,169,-291
11104,1998,0,2023-03-01T18:50:49.748615,1639268,1198,1947,-188,-795,-508,-285,-45,169,-291
11105,1999,0,2023-03-01T18:50:49.754440,1639274,1199,1949,-182,-788,-504,-295,-45,169,-291
11106,2000,0,2023-03-01T18:50:49.759867,1639279,1199,1949,-182,-788,-504,-295,-45,169,-291
11107,2001,0,2023-03-01T18:50:49.764806,1639284,1199,1949,-182,-788,-504,-295,-45,169,-291
11108,2002,0,2023-03-01T18:50:49.769316,1639288,1199,1949,-182,-788,-504,-295,-45,169,-291
11109,2003,0,2023-03-01T18:50:49.775315,1639294,1198,1944,-188,-778,-516,-289,-59,157,-283
11110,2004,0,2023-03-01T18:50:49.780728,1639300,1198,1944,-188,-778,-516,-289,-59,157,-283
11111,2005,0,2023-03-01T18:50:49.785389,1639305,1198,1944,-188,-778,-516,-289,-59,157,-283
11112,2006,0,2023-03-01T18:50:49.790668,1639310,1198,1944,-188,-778,-516,-289,-59,157,-283
11113,2007,0,2023-03-01T18:50:49.796076,1639315,1199,1952,-190,-787,-497,-296,-59,157,-283
11114,2008,0,2023-03-01T18:50:49.802014,1639321,1199,1952,-190,-787,-497,-296,-59,157,-283
11115,2009,0,2023-03-01T18:50:49.807227,1639326,1199,1952,-190,-787,-497,-296,-59,157,-283
11116,2010,0,2023-03-01T18:50:49.812795,1639332,1199,1948,-184,-773,-506,-288,-59,157,-283
11117,2011,0,2023-03-01T18:50:49.818044,1639337,1199,1948,-184,-773,-506,-288,-59,157,-283
11118,2012,0,2023-03-01T18:50:49.823196,1639343,1199,1948,-184,-773,-506,-288,-59,157,-283
11119,2013,0,2023-03-01T18:50:49.828000,1639347,1199,1948,-184,-773,-506,-288,-59,157,-283
11120,2014,0,2023-03-01T18:50:49.833726,1639353,1202,1948,-187,-785,-503,-291,-59,157,-283
11121,2015,0,2023-03-01T18:50:49.840176,1639359,1202,1948,-187,-785,-503,-291,-59,157,-283
11122,2016,0,2023-03-01T18:50:49.845132,1639364,1202,1948,-187,-785,-503,-291,-59,157,-283
11123,2017,0,2023-03-01T18:50:49.850126,1639369,1202,1948,-187,-785,-503,-291,-59,157,-283
11124,2018,0,2023-03-01T18:50:49.855794,1639374,1198,1946,-185,-786,-506,-291,-59,157,-283
11125,2019,0,2023-03-01T18:50:49.861936,1639382,1198,1946,-185,-786,-506,-291,-59,157,-283
11126,2020,0,2023-03-01T18:50:49.866835,1639386,1198,1946,-185,-786,-506,-291,-59,157,-283
11127,2021,0,2023-03-01T18:50:49.872405,1639392,1198,1947,-193,-783,-511,-294,-59,157,-283
11128,2022,0,2023-03-01T18:50:49.877960,1639397,1198,1947,-193,-783,-511,-294,-59,157,-283
11129,2023,0,2023-03-01T18:50:49.882646,1639402,1198,1947,-193,-783,-511,-294,-59,157,-283
11130,2024,0,2023-03-01T18:50:49.887853,1639407,1198,1947,-193,-783,-511,-294,-59,157,-283
11131,2025,0,2023-03-01T18:50:49.893446,1639412,1199,1949,-185,-776,-498,-291,-43,173,-293
11132,2026,0,2023-03-01T18:50:49.899798,1639418,1199,1949,-185,-776,-498,-291,-43,173,-293
11133,2027,0,2023-03-01T18:50:49.904303,1639424,1199,1949,-185,-776,-498,-291,-43,173,-293
11134,2028,0,2023-03-01T18:50:49.909423,1639429,1199,1949,-185,-776,-498,-291,-43,173,-293
11135,2029,0,2023-03-01T18:50:49.914652,1639434,1198,1948,-186,-768,-509,-287,-43,173,-293
11136,2030,0,2023-03-01T18:50:49.920514,1639440,1198,1948,-186,-768,-509,-287,-43,173,-293
11137,2031,0,2023-03-01T18:50:49.925254,1639445,1198,1948,-186,-768,-509,-287,-43,173,-293
11138,2032,0,2023-03-01T18:50:49.930100,1639449,1198,1948,-186,-768,-509,-287,-43,173,-293
11139,2033,0,2023-03-01T18:50:49.935289,1639454,1200,1950,-190,-775,-499,-288,-43,173,-293
11140,2034,0,2023-03-01T18:50:49.941385,1639460,1200,1950,-190,-775,-499,-288,-43,173,-293
11141,2035,0,2023-03-01T18:50:49.945922,1639465,1200,1950,-190,-775,-499,-288,-43,173,-293
11142,2036,0,2023-03-01T18:50:49.950731,1639470,1200,1950,-190,-775,-499,-288,-43,173,-293
11143,2037,0,2023-03-01T18:50:49.956743,1639476,1197,1946,-194,-780,-508,-290,-43,173,-293
11144,2038,0,2023-03-01T18:50:49.961640,1639481,1197,1946,-194,-780,-508,-290,-43,173,-293
11145,2039,0,2023-03-01T18:50:49.966439,1639486,1197,1946,-194,-780,-508,-290,-43,173,-293
11146,2040,0,2023-03-01T18:50:49.971423,1639491,1201,1948,-193,-774,-498,-280,-43,173,-293
11147,2041,0,2023-03-01T18:50:49.977444,1639496,1201,1948,-193,-774,-498,-280,-43,173,-293
11148,2042,0,2023-03-01T18:50:49.983077,1639502,1201,1948,-193,-774,-498,-280,-43,173,-293
11149,2043,0,2023-03-01T18:50:49.988686,1639507,1201,1948,-193,-774,-498,-280,-43,173,-293
11150,2044,0,2023-03-01T18:50:49.994163,1639514,1198,1947,-198,-769,-496,-284,-43,173,-293
11151,2045,0,2023-03-01T18:50:50.000107,1639520,1198,1947,-198,-769,-496,-284,-43,173,-293
11152,2046,0,2023-03-01T18:50:50.005879,1639524,1198,1947,-198,-769,-496,-284,-43,173,-293
11153,2047,0,2023-03-01T18:50:50.010712,1639530,1198,1947,-198,-769,-496,-284,-43,173,-293
11154,2048,0,2023-03-01T18:50:50.016060,1639535,1199,1948,-198,-771,-510,-276,-53,165,-297
11155,2049,0,2023-03-01T18:50:50.021800,1639541,1199,1948,-198,-771,-510,-276,-53,165,-297
11156,2050,0,2023-03-01T18:50:50.026296,1639545,1199,1948,-198,-771,-510,-276,-53,165,-297
11157,2051,0,2023-03-01T18:50:50.031481,1639550,1202,1950,-195,-782,-501,-290,-53,165,-297
11158,2052,0,2023-03-01T18:50:50.037565,1639557,1202,1950,-195,-782,-501,-290,-53,165,-297
11159,2053,0,2023-03-01T18:50:50.043202,1639563,1202,1950,-195,-782,-501,-290,-53,165,-297
11160,2054,0,2023-03-01T18:50:50.048119,1639568,1202,1950,-195,-782,-501,-290,-53,165,-297
11161,2055,0,2023-03-01T18:50:50.053561,1639573,1199,1951,-201,-772,-503,-284,-53,165,-297
11162,2056,0,2023-03-01T18:50:50.059501,1639578,1199,1951,-201,-772,-503,-284,-53,165,-297
11163,2057,0,2023-03-01T18:50:50.064385,1639583,1199,1951,-201,-772,-503,-284,-53,165,-297
11164,2058,0,2023-03-01T18:50:50.069372,1639588,1199,1951,-201,-772,-503,-284,-53,165,-297
11165,2059,0,2023-03-01T18:50:50.075172,1639595,1198,1945,-200,-781,-492,-294,-53,165,-297
11166,2060,0,2023-03-01T18:50:50.081075,1639601,1198,1945,-200,-781,-492,-294,-53,165,-297
11167,2061,0,2023-03-01T18:50:50.086174,1639605,1198,1945,-200,-781,-492,-294,-53,165,-297
11168,2062,0,2023-03-01T18:50:50.091371,1639610,1198,1945,-200,-781,-492,-294,-53,165,-297
11169,2063,0,2023-03-01T18:50:50.097214,1639616,1198,1949,-203,-783,-506,-293,-53,165,-297
11170,2064,0,2023-03-01T18:50:50.102784,1639622,1198,1949,-203,-783,-506,-293,-53,165,-297
11171,2065,0,2023-03-01T18:50:50.107557,1639627,1198,1949,-203,-783,-506,-293,-53,165,-297
11172,2066,0,2023-03-01T18:50:50.112821,1639632,1199,1945,-203,-775,-491,-282,-53,165,-297
11173,2067,0,2023-03-01T18:50:50.118859,1639639,1199,1945,-203,-775,-491,-282,-53,165,-297
11174,2068,0,2023-03-01T18:50:50.124364,1639644,1199,1945,-203,-775,-491,-282,-53,165,-297
11175,2069,0,2023-03-01T18:50:50.129445,1639649,1199,1945,-203,-775,-491,-282,-53,165,-297
11176,2070,0,2023-03-01T18:50:50.134862,1639654,1201,1950,-205,-793,-500,-295,-53,165,-297
11177,2071,0,2023-03-01T18:50:50.141350,1639660,1201,1950,-205,-793,-500,-295,-53,165,-297
11178,2072,0,2023-03-01T18:50:50.146372,1639665,1201,1950,-205,-793,-500,-295,-53,165,-297
11179,2073,0,2023-03-01T18:50:50.151408,1639670,1201,1947,-196,-775,-507,-289,-53,165,-297
11180,2074,0,2023-03-01T18:50:50.157230,1639676,1201,1947,-196,-775,-507,-289,-47,157,-293
11181,2075,0,2023-03-01T18:50:50.162354,1639682,1201,1947,-196,-775,-507,-289,-47,157,-293
11182,2076,0,2023-03-01T18:50:50.167275,1639687,1201,1947,-196,-775,-507,-289,-47,157,-293
11183,2077,0,2023-03-01T18:50:50.172616,1639692,1202,1950,-209,-785,-496,-286,-47,157,-293
11184,2078,0,2023-03-01T18:50:50.178437,1639697,1202,1950,-209,-785,-496,-286,-47,157,-293
11185,2079,0,2023-03-01T18:50:50.183538,1639703,1202,1950,-209,-785,-496,-286,-47,157,-293
11186,2080,0,2023-03-01T18:50:50.188439,1639708,1202,1950,-209,-785,-496,-286,-47,157,-293
11187,2081,0,2023-03-01T18:50:50.193928,1639713,1201,1946,-208,-770,-511,-286,-47,157,-293
11188,2082,0,2023-03-01T18:50:50.199264,1639718,1201,1946,-208,-770,-511,-286,-47,157,-293
11189,2083,0,2023-03-01T18:50:50.204148,1639724,1201,1946,-208,-770,-511,-286,-47,157,-293
11190,2084,0,2023-03-01T18:50:50.209491,1639729,1201,1946,-208,-770,-511,-286,-47,157,-293
11191,2085,0,2023-03-01T18:50:50.215125,1639735,1200,1944,-212,-785,-502,-276,-47,157,-293
11192,2086,0,2023-03-01T18:50:50.221452,1639741,1200,1944,-212,-785,-502,-276,-47,157,-293
11193,2087,0,2023-03-01T18:50:50.226468,1639746,1200,1944,-212,-785,-502,-276,-47,157,-293
11194,2088,0,2023-03-01T18:50:50.231771,1639751,1202,1948,-207,-780,-499,-289,-47,157,-293
11195,2089,0,2023-03-01T18:50:50.237825,1639757,1202,1948,-207,-780,-499,-289,-47,157,-293
11196,2090,0,2023-03-01T18:50:50.243265,1639762,1202,1948,-207,-780,-499,-289,-47,157,-293
11197,2091,0,2023-03-01T18:50:50.248216,1639768,1202,1948,-207,-780,-499,-289,-47,157,-293
11198,2092,0,2023-03-01T18:50:50.253514,1639773,1199,1946,-220,-782,-502,-290,-47,157,-293
11199,2093,0,2023-03-01T18:50:50.259678,1639779,1199,1946,-220,-782,-502,-290,-47,157,-293
