,Unnamed: 0,imu,server_time,arduino_time,ax,ay,az,gx,gy,gz,mx,my,mz
11200,2094,0,2023-03-01T18:50:50.264465,1639784,1199,1946,-220,-782,-502,-290,-47,157,-293
11201,2095,0,2023-03-01T18:50:50.269054,1639788,1199,1946,-220,-782,-502,-290,-47,157,-293
11202,2096,0,2023-03-01T18:50:50.274031,1639793,1201,1952,-211,-794,-482,-294,-53,169,-295
11203,2097,0,2023-03-01T18:50:50.279396,1639798,1201,1952,-211,-794,-482,-294,-53,169,-295
11204,2098,0,2023-03-01T18:50:50.284849,1639803,1201,1952,-211,-794,-482,-294,-53,169,-295
11205,2099,0,2023-03-01T18:50:50.289750,1639810,1201,1952,-211,-794,-482,-294,-53,169,-295
11206,2100,0,2023-03-01T18:50:50.294999,1639815,1198,1948,-210,-773,-505,-285,-53,169,-295
11207,2101,0,2023-03-01T18:50:50.300859,1639820,1198,1948,-210,-773,-505,-285,-53,169,-295
11208,2102,0,2023-03-01T18:50:50.305622,1639825,1198,1948,-210,-773,-505,-285,-53,169,-295
11209,2103,0,2023-03-01T18:50:50.310164,1639829,1198,1948,-210,-773,-505,-285,-53,169,-295
11210,2104,0,2023-03-01T18:50:50.315620,1639835,1203,1949,-211,-782,-503,-287,-53,169,-295
11211,2105,0,2023-03-01T18:50:50.321609,1639841,1203,1949,-211,-782,-503,-287,-53,169,-295
11212,2106,0,2023-03-01T18:50:50.326441,1639845,1203,1949,-211,-782,-503,-287,-53,169,-295
11213,2107,0,2023-03-01T18:50:50.331590,1639851,1203,1945,-219,-770,-507,-296,-53,169,-295
11214,2108,0,2023-03-01T18:50:50.337812,1639857,1203,1945,-219,-770,-507,-296,-53,169,-295
11215,2109,0,2023-03-01T18:50:50.343263,1639863,1203,1945,-219,-770,-507,-296,-53,169,-295
11216,2110,0,2023-03-01T18:50:50.347979,1639867,1203,1945,-219,-770,-507,-296,-53,169,-295
11217,2111,0,2023-03-01T18:50:50.352620,1639872,1202,1948,-219,-786,-501,-293,-53,169,-295
11218,2112,0,2023-03-01T18:50:50.357773,1639877,1202,1948,-219,-786,-501,-293,-53,169,-295
11219,2113,0,2023-03-01T18:50:50.363854,1639883,1202,1948,-219,-786,-501,-293,-53,169,-295
11220,2114,0,2023-03-01T18:50:50.368634,1639888,1202,1948,-219,-786,-501,-293,-53,169,-295
11221,2115,0,2023-03-01T18:50:50.373876,1639892,1202,1949,-215,-786,-496,-291,-53,169,-295
11222,2116,0,2023-03-01T18:50:50.379060,1639899,1202,1949,-215,-786,-496,-291,-53,169,-295
11223,2117,0,2023-03-01T18:50:50.383727,1639903,1202,1949,-215,-786,-496,-291,-53,169,-295
11224,2118,0,2023-03-01T18:50:50.388464,1639908,1202,1949,-215,-786,-496,-291,-53,169,-295
11225,2119,0,2023-03-01T18:50:50.393236,1639912,1201,1947,-219,-779,-500,-286,-53,169,-295
11226,2120,0,2023-03-01T18:50:50.399235,1639918,1201,1947,-219,-779,-500,-286,-53,169,-295
11227,2121,0,2023-03-01T18:50:50.404054,1639923,1201,1947,-219,-779,-500,-286,-53,169,-295
11228,2122,0,2023-03-01T18:50:50.408747,1639928,1201,1947,-219,-779,-500,-286,-53,169,-295
11229,2123,0,2023-03-01T18:50:50.413527,1639932,1205,1948,-212,-789,-491,-298,-52,164,-292
11230,2124,0,2023-03-01T18:50:50.418822,1639939,1205,1948,-212,-789,-491,-298,-52,164,-292
11231,2125,0,2023-03-01T18:50:50.423981,1639943,1205,1948,-212,-789,-491,-298,-52,164,-292
11232,2126,0,2023-03-01T18:50:50.428562,1639948,1205,1948,-212,-789,-491,-298,-52,164,-292
11233,2127,0,2023-03-01T18:50:50.434168,1639953,1199,1947,-217,-773,-507,-286,-52,164,-292
11234,2128,0,2023-03-01T18:50:50.439747,1639959,1199,1947,-217,-773,-507,-286,-52,164,-292
11235,2129,0,2023-03-01T18:50:50.445148,1639964,1199,1947,-217,-773,-507,-286,-52,164,-292
11236,2130,0,2023-03-01T18:50:50.450579,1639969,1199,1947,-217,-773,-507,-286,-52,164,-292
11237,2131,0,2023-03-01T18:50:50.456788,1639976,1200,1947,-225,-775,-501,-279,-52,164,-292
11238,2132,0,2023-03-01T18:50:50.462818,1639983,1200,1947,-225,-775,-501,-279,-52,164,-292
11239,2133,0,2023-03-01T18:50:50.467608,1639987,1200,1947,-225,-775,-501,-279,-52,164,-292
11240,2134,0,2023-03-01T18:50:50.473008,1639992,1200,1946,-216,-768,-511,-283,-52,164,-292
11241,2135,0,2023-03-01T18:50:50.478140,1639998,1200,1946,-216,-768,-511,-283,-52,164,-292
11242,2136,0,2023-03-01T18:50:50.483832,1640003,1200,1946,-216,-768,-511,-283,-52,164,-292
11243,2137,0,2023-03-01T18:50:50.488506,1640008,1200,1946,-216,-768,-511,-283,-52,164,-292
11244,2138,0,2023-03-01T18:50:50.493488,1640013,1203,1948,-223,-781,-508,-293,-52,164,-292
11245,2139,0,2023-03-01T18:50:50.499173,1640018,1203,1948,-223,-781,-508,-293,-52,164,-292
11246,2140,0,2023-03-01T18:50:50.504226,1640024,1203,1948,-223,-781,-508,-293,-52,164,-292
11247,2141,0,2023-03-01T18:50:50.509296,1640029,1203,1948,-223,-781,-508,-293,-52,164,-292
11248,2142,0,2023-03-01T18:50:50.514951,1640034,1203,1952,-225,-782,-496,-291,-52,164,-292
11249,2143,0,2023-03-01T18:50:50.520806,1640040,1203,1952,-225,-782,-496,-291,-52,164,-292
11250,2144,0,2023-03-01T18:50:50.525603,1640045,1203,1952,-225,-782,-496,-291,-52,164,-292
11251,2145,0,2023-03-01T18:50:50.530433,1640049,1203,1952,-225,-782,-496,-291,-52,164,-292
11252,2146,0,2023-03-01T18:50:50.536224,1640055,1203,1952,-225,-782,-496,-291,-57,165,-289
11253,2147,0,2023-03-01T18:50:50.541228,1640060,1203,1952,-225,-782,-496,-291,-57,165,-289
11254,2148,0,2023-03-01T18:50:50.546412,1640066,1203,1952,-225,-782,-496,-291,-57,165,-289
11255,2149,0,2023-03-01T18:50:50.551264,1640071,1203,1952,-225,-782,-496,-291,-57,165,-289
11256,2150,0,2023-03-01T18:50:50.557161,1640076,1202,1950,-219,-786,-503,-289,-57,165,-289
11257,2151,0,2023-03-01T18:50:50.563708,1640083,1202,1950,-219,-786,-503,-289,-57,165,-289
11258,2152,0,2023-03-01T18:50:50.568819,1640088,1202,1950,-219,-786,-503,-289,-57,165,-289
11259,2153,0,2023-03-01T18:50:50.574237,1640093,1205,1947,-227,-785,-502,-297,-57,165,-289
11260,2154,0,2023-03-01T18:50:50.580580,1640099,1205,1947,-227,-785,-502,-297,-57,165,-289
11261,2155,0,2023-03-01T18:50:50.585500,1640104,1205,1947,-227,-785,-502,-297,-57,165,-289
11262,2156,0,2023-03-01T18:50:50.590210,1640110,1205,1947,-227,-785,-502,-297,-57,165,-289
11263,2157,0,2023-03-01T18:50:50.595928,1640115,1200,1948,-229,-787,-489,-291,-57,165,-289
11264,2158,0,2023-03-01T18:50:50.602325,1640121,1200,1948,-229,-787,-489,-291,-57,165,-289
11265,2159,0,2023-03-01T18:50:50.607053,1640126,1200,1948,-229,-787,-489,-291,-57,165,-289
11266,2160,0,2023-03-01T18:50:50.612574,1640132,1202,1945,-230,-792,-497,-294,-57,165,-289
11267,2161,0,2023-03-01T18:50:50.618715,1640137,1202,1945,-230,-792,-497,-294,-57,165,-289
11268,2162,0,2023-03-01T18:50:50.625055,1640144,1202,1945,-230,-792,-497,-294,-57,165,-289
11269,2163,0,2023-03-01T18:50:50.631057,1640150,1202,1945,-230,-792,-497,-294,-57,165,-289
11270,2164,0,2023-03-01T18:50:50.636562,1640156,1205,1952,-234,-783,-501,-292,-57,165,-289
11271,2165,0,2023-03-01T18:50:50.642903,1640162,1205,1952,-234,-783,-501,-292,-57,165,-289
11272,2166,0,2023-03-01T18:50:50.647933,1640167,1205,1952,-234,-783,-501,-292,-57,165,-289
11273,2167,0,2023-03-01T18:50:50.653692,1640173,1205,1949,-229,-791,-485,-290,-57,165,-289
11274,2168,0,2023-03-01T18:50:50.660542,1640179,1205,1949,-229,-791,-485,-290,-57,165,-289
11275,2169,0,2023-03-01T18:50:50.665332,1640184,1205,1949,-229,-791,-485,-290,-57,165,-289
11276,2170,0,2023-03-01T18:50:50.670438,1640189,1205,1949,-229,-791,-485,-290,-57,165,-289
11277,2171,0,2023-03-01T18:50:50.676290,1640196,1206,1951,-236,-785,-506,-292,-48,158,-292
11278,2172,0,2023-03-01T18:50:50.682174,1640201,1206,1951,-236,-785,-506,-292,-48,158,-292
11279,2173,0,2023-03-01T18:50:50.687170,1640207,1206,1951,-236,-785,-506,-292,-48,158,-292
11280,2174,0,2023-03-01T18:50:50.692273,1640211,1202,1947,-232,-785,-485,-281,-48,158,-292
11281,2175,0,2023-03-01T18:50:50.697733,1640217,1202,1947,-232,-785,-485,-281,-48,158,-292
11282,2176,0,2023-03-01T18:50:50.703402,1640222,1202,1947,-232,-785,-485,-281,-48,158,-292
11283,2177,0,2023-03-01T18:50:50.708632,1640227,1202,1947,-232,-785,-485,-281,-48,158,-292
11284,2178,0,2023-03-01T18:50:50.714209,1640233,1203,1947,-235,-786,-485,-281,-48,158,-292
11285,2179,0,2023-03-01T18:50:50.721210,1640240,1203,1947,-235,-786,-485,-281,-48,158,-292
11286,2180,0,2023-03-01T18:50:50.726560,1640246,1203,1947,-235,-786,-485,-281,-48,158,-292
11287,2181,0,2023-03-01T18:50:50.733245,1640253,1203,1945,-239,-775,-487,-287,-48,158,-292
11288,2182,0,2023-03-01T18:50:50.739100,1640258,1203,1945,-239,-775,-487,-287,-48,158,-292
11289,2183,0,2023-03-01T18:50:50.744887,1640264,1203,1945,-239,-775,-487,-287,-48,158,-292
11290,2184,0,2023-03-01T18:50:50.749477,1640268,1203,1945,-239,-775,-487,-287,-48,158,-292
11291,2185,0,2023-03-01T18:50:50.755333,1640274,1208,1950,-237,-781,-492,-282,-48,158,-292
11292,2186,0,2023-03-01T18:50:50.761590,1640281,1208,1950,-237,-781,-492,-282,-48,158,-292
11293,2187,0,2023-03-01T18:50:50.766286,1640286,1208,1950,-237,-781,-492,-282,-48,158,-292
11294,2188,0,2023-03-01T18:50:50.771029,1640290,1208,1950,-237,-781,-492,-282,-48,158,-292
11295,2189,0,2023-03-01T18:50:50.776671,1640296,1203,1950,-241,-774,-506,-279,-48,158,-292
11296,2190,0,2023-03-01T18:50:50.783011,1640302,1203,1950,-241,-774,-506,-279,-48,158,-292
11297,2191,0,2023-03-01T18:50:50.788079,1640307,1203,1950,-241,-774,-506,-279,-48,158,-292
11298,2192,0,2023-03-01T18:50:50.793543,1640312,1210,1947,-237,-791,-506,-289,-57,169,-283
11299,2193,0,2023-03-01T18:50:50.799046,1640318,1210,1947,-237,-791,-506,-289,-57,169,-283
11300,2194,0,2023-03-01T18:50:50.803930,1640323,1210,1947,-237,-791,-506,-289,-57,169,-283
11301,2195,0,2023-03-01T18:50:50.808787,1640328,1210,1947,-237,-791,-506,-289,-57,169,-283
11302,2196,0,2023-03-01T18:50:50.814240,1640334,1203,1952,-234,-771,-506,-298,-57,169,-283
11303,2197,0,2023-03-01T18:50:50.820297,1640340,1203,1952,-234,-771,-506,-298,-57,169,-283
11304,2198,0,2023-03-01T18:50:50.825096,1640344,1203,1952,-234,-771,-506,-298,-57,169,-283
11305,2199,0,2023-03-01T18:50:50.829824,1640349,1203,1952,-234,-771,-506,-298,-57,169,-283
11306,2200,0,2023-03-01T18:50:50.835247,1640354,1207,1950,-236,-804,-509,-299,-57,169,-283
11307,2201,0,2023-03-01T18:50:50.841341,1640360,1207,1950,-236,-804,-509,-299,-57,169,-283
11308,2202,0,2023-03-01T18:50:50.846434,1640366,1207,1950,-236,-804,-509,-299,-57,169,-283
11309,2203,0,2023-03-01T18:50:50.851148,1640371,1207,1950,-236,-804,-509,-299,-57,169,-283
11310,2204,0,2023-03-01T18:50:50.856645,1640376,1201,1948,-240,-798,-506,-298,-57,169,-283
11311,2205,0,2023-03-01T18:50:50.862610,1640382,1201,1948,-240,-798,-506,-298,-57,169,-283
11312,2206,0,2023-03-01T18:50:50.867376,1640387,1201,1948,-240,-798,-506,-298,-57,169,-283
11313,2207,0,2023-03-01T18:50:50.872620,1640392,1201,1949,-244,-796,-516,-289,-57,169,-283
11314,2208,0,2023-03-01T18:50:50.878089,1640397,1201,1949,-244,-796,-516,-289,-57,169,-283
11315,2209,0,2023-03-01T18:50:50.882665,1640402,1201,1949,-244,-796,-516,-289,-57,169,-283
11316,2210,0,2023-03-01T18:50:50.887752,1640407,1201,1949,-244,-796,-516,-289,-57,169,-283
11317,2211,0,2023-03-01T18:50:50.893340,1640413,1207,1954,-244,-796,-503,-302,-57,169,-283
11318,2212,0,2023-03-01T18:50:50.898632,1640418,1207,1954,-244,-796,-503,-302,-57,169,-283
11319,2213,0,2023-03-01T18:50:50.903893,1640423,1207,1954,-244,-796,-503,-302,-57,169,-283
11320,2214,0,2023-03-01T18:50:50.908584,1640428,1207,1954,-244,-796,-503,-302,-57,169,-283
11321,2215,0,2023-03-01T18:50:50.914008,1640433,1206,1951,-247,-783,-520,-289,-52,166,-288
11322,2216,0,2023-03-01T18:50:50.919908,1640439,1206,1951,-247,-783,-520,-289,-52,166,-288
11323,2217,0,2023-03-01T18:50:50.924736,1640443,1206,1951,-247,-783,-520,-289,-52,166,-288
11324,2218,0,2023-03-01T18:50:50.929695,1640449,1206,1951,-247,-783,-520,-289,-52,166,-288
11325,2219,0,2023-03-01T18:50:50.935196,1640455,1207,1948,-241,-796,-507,-293,-52,166,-288
11326,2220,0,2023-03-01T18:50:50.940392,1640460,1207,1948,-241,-796,-507,-293,-52,166,-288
11327,2221,0,2023-03-01T18:50:50.945587,1640465,1207,1948,-241,-796,-507,-293,-52,166,-288
11328,2222,0,2023-03-01T18:50:50.951431,1640471,1207,1948,-241,-796,-507,-293,-52,166,-288
11329,2223,0,2023-03-01T18:50:50.956812,1640476,1205,1948,-240,-784,-515,-294,-52,166,-288
11330,2224,0,2023-03-01T18:50:50.962995,1640482,1205,1948,-240,-784,-515,-294,-52,166,-288
11331,2225,0,2023-03-01T18:50:50.967542,1640487,1205,1948,-240,-784,-515,-294,-52,166,-288
11332,2226,0,2023-03-01T18:50:50.972880,1640492,1204,1947,-245,-809,-515,-286,-52,166,-288
11333,2227,0,2023-03-01T18:50:50.978466,1640498,1204,1947,-245,-809,-515,-286,-52,166,-288
11334,2228,0,2023-03-01T18:50:50.984269,1640504,1204,1947,-245,-809,-515,-286,-52,166,-288
11335,2229,0,2023-03-01T18:50:50.989463,1640509,1204,1947,-245,-809,-515,-286,-52,166,-288
11336,2230,0,2023-03-01T18:50:50.994957,1640514,1208,1950,-246,-796,-511,-302,-52,166,-288
11337,2231,0,2023-03-01T18:50:51.000770,1640520,1208,1950,-246,-796,-511,-302,-52,166,-288
11338,2232,0,2023-03-01T18:50:51.005844,1640525,1208,1950,-246,-796,-511,-302,-52,166,-288
11339,2233,0,2023-03-01T18:50:51.010400,1640529,1208,1950,-246,-796,-511,-302,-52,166,-288
11340,2234,0,2023-03-01T18:50:51.016039,1640536,1205,1948,-258,-799,-518,-288,-52,166,-288
11341,2235,0,2023-03-01T18:50:51.021789,1640541,1205,1948,-258,-799,-518,-288,-52,166,-288
11342,2236,0,2023-03-01T18:50:51.026406,1640546,1205,1948,-258,-799,-518,-288,-52,166,-288
11343,2237,0,2023-03-01T18:50:51.031362,1640551,1205,1948,-258,-799,-518,-288,-52,166,-288
11344,2238,0,2023-03-01T18:50:51.036799,1640556,1206,1950,-255,-797,-506,-298,-52,166,-288
11345,2239,0,2023-03-01T18:50:51.042782,1640562,1206,1950,-255,-797,-506,-298,-52,166,-288
11346,2240,0,2023-03-01T18:50:51.047947,1640567,1206,1950,-255,-797,-506,-298,-52,166,-288
11347,2241,0,2023-03-01T18:50:51.053773,1640573,1208,1951,-252,-787,-516,-295,-54,166,-292
11348,2242,0,2023-03-01T18:50:51.059529,1640579,1208,1951,-252,-787,-516,-295,-54,166,-292
11349,2243,0,2023-03-01T18:50:51.065398,1640585,1208,1951,-252,-787,-516,-295,-54,166,-292
11350,2244,0,2023-03-01T18:50:51.070336,1640590,1208,1951,-252,-787,-516,-295,-54,166,-292
11351,2245,0,2023-03-01T18:50:51.075356,1640595,1206,1948,-252,-794,-508,-301,-54,166,-292
11352,2246,0,2023-03-01T18:50:51.081768,1640600,1206,1948,-252,-794,-508,-301,-54,166,-292
11353,2247,0,2023-03-01T18:50:51.086453,1640606,1206,1948,-252,-794,-508,-301,-54,166,-292
11354,2248,0,2023-03-01T18:50:51.091656,1640610,1206,1948,-252,-794,-508,-301,-54,166,-292
11355,2249,0,2023-03-01T18:50:51.097383,1640616,1205,1947,-256,-796,-521,-299,-54,166,-292
11356,2250,0,2023-03-01T18:50:51.102908,1640622,1205,1947,-256,-796,-521,-299,-54,166,-292
11357,2251,0,2023-03-01T18:50:51.107769,1640627,1205,1947,-256,-796,-521,-299,-54,166,-292
11358,2252,0,2023-03-01T18:50:51.113187,1640632,1207,1949,-259,-803,-512,-298,-54,166,-292
11359,2253,0,2023-03-01T18:50:51.119179,1640638,1207,1949,-259,-803,-512,-298,-54,166,-292
11360,2254,0,2023-03-01T18:50:51.124914,1640644,1207,1949,-259,-803,-512,-298,-54,166,-292
11361,2255,0,2023-03-01T18:50:51.129709,1640649,1207,1949,-259,-803,-512,-298,-54,166,-292
11362,2256,0,2023-03-01T18:50:51.134967,1640654,1208,1953,-250,-803,-509,-298,-54,166,-292
11363,2257,0,2023-03-01T18:50:51.141283,1640660,1208,1953,-250,-803,-509,-298,-54,166,-292
11364,2258,0,2023-03-01T18:50:51.146160,1640666,1208,1953,-250,-803,-509,-298,-54,166,-292
11365,2259,0,2023-03-01T18:50:51.151129,1640671,1208,1953,-250,-803,-509,-298,-54,166,-292
11366,2260,0,2023-03-01T18:50:51.156655,1640676,1206,1947,-256,-802,-514,-287,-54,166,-292
11367,2261,0,2023-03-01T18:50:51.162876,1640682,1206,1947,-256,-802,-514,-287,-54,166,-292
11368,2262,0,2023-03-01T18:50:51.168508,1640687,1206,1947,-256,-802,-514,-287,-54,166,-292
11369,2263,0,2023-03-01T18:50:51.174722,1640693,1207,1949,-252,-816,-500,-295,-56,162,-296
11370,2264,0,2023-03-01T18:50:51.181455,1640700,1207,1949,-252,-816,-500,-295,-56,162,-296
11371,2265,0,2023-03-01T18:50:51.186554,1640706,1207,1949,-252,-816,-500,-295,-56,162,-296
11372,2266,0,2023-03-01T18:50:51.191427,1640711,1207,1949,-252,-816,-500,-295,-56,162,-296
11373,2267,0,2023-03-01T18:50:51.197344,1640716,1205,1946,-254,-799,-515,-293,-56,162,-296
11374,2268,0,2023-03-01T18:50:51.203626,1640723,1205,1946,-254,-799,-515,-293,-56,162,-296
11375,2269,0,2023-03-01T18:50:51.208625,1640728,1205,1946,-254,-799,-515,-293,-56,162,-296
11376,2270,0,2023-03-01T18:50:51.214471,1640733,1205,1949,-258,-779,-520,-303,-56,162,-296
11377,2271,0,2023-03-01T18:50:51.220647,1640740,1205,1949,-258,-779,-520,-303,-56,162,-296
11378,2272,0,2023-03-01T18:50:51.225858,1640745,1205,1949,-258,-779,-520,-303,-56,162,-296
11379,2273,0,2023-03-01T18:50:51.230596,1640750,1205,1949,-258,-779,-520,-303,-56,162,-296
11380,2274,0,2023-03-01T18:50:51.235985,1640756,1206,1948,-265,-799,-516,-298,-56,162,-296
11381,2275,0,2023-03-01T18:50:51.242371,1640762,1206,1948,-265,-799,-516,-298,-56,162,-296
11382,2276,0,2023-03-01T18:50:51.247200,1640766,1206,1948,-265,-799,-516,-298,-56,162,-296
11383,2277,0,2023-03-01T18:50:51.252453,1640772,1206,1948,-265,-799,-516,-298,-56,162,-296
11384,2278,0,2023-03-01T18:50:51.257624,1640776,1206,1948,-263,-796,-522,-290,-56,162,-296
11385,2279,0,2023-03-01T18:50:51.264087,1640783,1206,1948,-263,-796,-522,-290,-56,162,-296
11386,2280,0,2023-03-01T18:50:51.269233,1640788,1206,1948,-263,-796,-522,-290,-56,162,-296
11387,2281,0,2023-03-01T18:50:51.274725,1640794,1211,1949,-260,-807,-506,-296,-56,162,-296
11388,2282,0,2023-03-01T18:50:51.281218,1640800,1211,1949,-260,-807,-506,-296,-56,162,-296
11389,2283,0,2023-03-01T18:50:51.286358,1640806,1211,1949,-260,-807,-506,-296,-56,162,-296
11390,2284,0,2023-03-01T18:50:51.291337,1640810,1211,1949,-260,-807,-506,-296,-56,162,-296
11391,2285,0,2023-03-01T18:50:51.296968,1640816,1185,1936,-244,-739,-466,-273,-56,162,-296
11392,2286,0,2023-03-01T18:50:51.302126,1640821,1185,1936,-244,-739,-466,-273,-56,162,-296
11393,2287,0,2023-03-01T18:50:51.307023,1640826,1185,1936,-244,-739,-466,-273,-56,162,-296
11394,2288,0,2023-03-01T18:50:51.311715,1640832,1185,1936,-244,-739,-466,-273,-56,162,-296
11395,2289,0,2023-03-01T18:50:51.317361,1640837,1221,1970,-272,-766,-488,-287,-50,162,-298
11396,2290,0,2023-03-01T18:50:51.323413,1640843,1221,1970,-272,-766,-488,-287,-50,162,-298
11397,2291,0,2023-03-01T18:50:51.328236,1640848,1221,1970,-272,-766,-488,-287,-50,162,-298
11398,2292,0,2023-03-01T18:50:51.333386,1640853,1206,1949,-262,-806,-505,-287,-50,162,-298
11399,2293,0,2023-03-01T18:50:51.338810,1640858,1206,1949,-262,-806,-505,-287,-50,162,-298
11400,2294,0,2023-03-01T18:50:51.344701,1640864,1206,1949,-262,-806,-505,-287,-50,162,-298
11401,2295,0,2023-03-01T18:50:51.349879,1640869,1206,1949,-262,-806,-505,-287,-50,162,-298
11402,2296,0,2023-03-01T18:50:51.355328,1640875,1201,1934,-266,-796,-521,-289,-50,162,-298
11403,2297,0,2023-03-01T18:50:51.360023,1640880,1201,1934,-266,-796,-521,-289,-50,162,-298
11404,2298,0,2023-03-01T18:50:51.364831,1640884,1201,1934,-266,-796,-521,-289,-50,162,-298
11405,2299,0,2023-03-01T18:50:51.369615,1640889,1201,1934,-266,-796,-521,-289,-50,162,-298
11406,2300,0,2023-03-01T18:50:51.375042,1640894,1210,1953,-267,-808,-512,-300,-50,162,-298
11407,2301,0,2023-03-01T18:50:51.381045,1640900,1210,1953,-267,-808,-512,-300,-50,162,-298
11408,2302,0,2023-03-01T18:50:51.385696,1640905,1210,1953,-267,-808,-512,-300,-50,162,-298
11409,2303,0,2023-03-01T18:50:51.390301,1640909,1210,1953,-267,-808,-512,-300,-50,162,-298
11410,2304,0,2023-03-01T18:50:51.395925,1640915,1211,1953,-282,-803,-513,-303,-50,162,-298
11411,2305,0,2023-03-01T18:50:51.401733,1640921,1211,1953,-282,-803,-513,-303,-50,162,-298
11412,2306,0,2023-03-01T18:50:51.406895,1640926,1211,1953,-282,-803,-513,-303,-50,162,-298
11413,2307,0,2023-03-01T18:50:51.411600,1640931,1211,1953,-282,-803,-513,-303,-50,162,-298
11414,2308,0,2023-03-01T18:50:51.417220,1640937,1209,1955,-270,-808,-508,-299,-50,162,-298
11415,2309,0,2023-03-01T18:50:51.423230,1640942,1209,1955,-270,-808,-508,-299,-50,162,-298
11416,2310,0,2023-03-01T18:50:51.428223,1640947,1209,1955,-270,-808,-508,-299,-50,162,-298
11417,2311,0,2023-03-01T18:50:51.433759,1640952,1207,1949,-265,-790,-532,-293,-57,161,-295
11418,2312,0,2023-03-01T18:50:51.439048,1640958,1207,1949,-265,-790,-532,-293,-57,161,-295
11419,2313,0,2023-03-01T18:50:51.444339,1640963,1207,1949,-265,-790,-532,-293,-57,161,-295
11420,2314,0,2023-03-01T18:50:51.449292,1640969,1207,1949,-265,-790,-532,-293,-57,161,-295
11421,2315,0,2023-03-01T18:50:51.454907,1640974,1211,1952,-277,-806,-515,-294,-57,161,-295
11422,2316,0,2023-03-01T18:50:51.461109,1640980,1211,1952,-277,-806,-515,-294,-57,161,-295
11423,2317,0,2023-03-01T18:50:51.465986,1640985,1211,1952,-277,-806,-515,-294,-57,161,-295
11424,2318,0,2023-03-01T18:50:51.470505,1640990,1211,1952,-277,-806,-515,-294,-57,161,-295
11425,2319,0,2023-03-01T18:50:51.475779,1640995,1205,1953,-273,-791,-513,-308,-57,161,-295
11426,2320,0,2023-03-01T18:50:51.481750,1641001,1205,1953,-273,-791,-513,-308,-57,161,-295
11427,2321,0,2023-03-01T18:50:51.486503,1641006,1205,1953,-273,-791,-513,-308,-57,161,-295
11428,2322,0,2023-03-01T18:50:51.491836,1641011,1205,1953,-273,-791,-513,-308,-57,161,-295
11429,2323,0,2023-03-01T18:50:51.496445,1641016,1208,1946,-279,-797,-514,-294,-57,161,-295
11430,2324,0,2023-03-01T18:50:51.503524,1641023,1208,1946,-279,-797,-514,-294,-57,161,-295
11431,2325,0,2023-03-01T18:50:51.508724,1641028,1208,1946,-279,-797,-514,-294,-57,161,-295
11432,2326,0,2023-03-01T18:50:51.514139,1641033,1208,1951,-278,-795,-515,-300,-57,161,-295
11433,2327,0,2023-03-01T18:50:51.520322,1641039,1208,1951,-278,-795,-515,-300,-57,161,-295
11434,2328,0,2023-03-01T18:50:51.525244,1641044,1208,1951,-278,-795,-515,-300,-57,161,-295
11435,2329,0,2023-03-01T18:50:51.530213,1641050,1208,1951,-278,-795,-515,-300,-57,161,-295
11436,2330,0,2023-03-01T18:50:51.535811,1641055,1208,1952,-275,-804,-526,-294,-57,161,-295
11437,2331,0,2023-03-01T18:50:51.541617,1641061,1208,1952,-275,-804,-526,-294,-57,161,-295
11438,2332,0,2023-03-01T18:50:51.546474,1641066,1208,1952,-275,-804,-526,-294,-57,161,-295
11439,2333,0,2023-03-01T18:50:51.551606,1641071,1208,1952,-275,-804,-526,-294,-57,161,-295
11440,2334,0,2023-03-01T18:50:51.557200,1641076,1209,1952,-269,-801,-512,-296,-55,155,-301
11441,2335,0,2023-03-01T18:50:51.562880,1641082,1209,1952,-269,-801,-512,-296,-55,155,-301
11442,2336,0,2023-03-01T18:50:51.567708,1641086,1209,1952,-269,-801,-512,-296,-55,155,-301
11443,2337,0,2023-03-01T18:50:51.573137,1641093,1206,1947,-272,-791,-515,-289,-55,155,-301
11444,2338,0,2023-03-01T18:50:51.578858,1641098,1206,1947,-272,-791,-515,-289,-55,155,-301
11445,2339,0,2023-03-01T18:50:51.584591,1641104,1206,1947,-272,-791,-515,-289,-55,155,-301
11446,2340,0,2023-03-01T18:50:51.589445,1641109,1206,1947,-272,-791,-515,-289,-55,155,-301
11447,2341,0,2023-03-01T18:50:51.594925,1641114,1214,1954,-275,-817,-508,-293,-55,155,-301
11448,2342,0,2023-03-01T18:50:51.601171,1641120,1214,1954,-275,-817,-508,-293,-55,155,-301
11449,2343,0,2023-03-01T18:50:51.606039,1641125,1214,1954,-275,-817,-508,-293,-55,155,-301
11450,2344,0,2023-03-01T18:50:51.610935,1641131,1214,1954,-275,-817,-508,-293,-55,155,-301
11451,2345,0,2023-03-01T18:50:51.616750,1641136,1210,1951,-280,-806,-522,-298,-55,155,-301
11452,2346,0,2023-03-01T18:50:51.623244,1641143,1210,1951,-280,-806,-522,-298,-55,155,-301
11453,2347,0,2023-03-01T18:50:51.628123,1641148,1210,1951,-280,-806,-522,-298,-55,155,-301
11454,2348,0,2023-03-01T18:50:51.633950,1641153,1208,1951,-278,-807,-511,-300,-55,155,-301
11455,2349,0,2023-03-01T18:50:51.639229,1641158,1208,1951,-278,-807,-511,-300,-55,155,-301
11456,2350,0,2023-03-01T18:50:51.644795,1641163,1208,1951,-278,-807,-511,-300,-55,155,-301
11457,2351,0,2023-03-01T18:50:51.649907,1641169,1208,1951,-278,-807,-511,-300,-55,155,-301
11458,2352,0,2023-03-01T18:50:51.655414,1641175,1208,1949,-276,-791,-517,-298,-55,155,-301
11459,2353,0,2023-03-01T18:50:51.660745,1641180,1208,1949,-276,-791,-517,-298,-55,155,-301
11460,2354,0,2023-03-01T18:50:51.665578,1641185,1208,1949,-276,-791,-517,-298,-55,155,-301
11461,2355,0,2023-03-01T18:50:51.671022,1641190,1208,1949,-276,-791,-517,-298,-55,155,-301
11462,2356,0,2023-03-01T18:50:51.676788,1641196,1209,1952,-279,-786,-522,-298,-55,155,-301
11463,2357,0,2023-03-01T18:50:51.683078,1641202,1209,1952,-279,-786,-522,-298,-55,155,-301
11464,2358,0,2023-03-01T18:50:51.687935,1641207,1209,1952,-279,-786,-522,-298,-55,155,-301
11465,2359,0,2023-03-01T18:50:51.693133,1641212,1210,1950,-276,-774,-502,-294,-55,155,-301
11466,2360,0,2023-03-01T18:50:51.698646,1641218,1210,1950,-276,-774,-502,-294,-48,148,-298
11467,2361,0,2023-03-01T18:50:51.703807,1641223,1210,1950,-276,-774,-502,-294,-48,148,-298
11468,2362,0,2023-03-01T18:50:51.709050,1641228,1210,1950,-276,-774,-502,-294,-48,148,-298
11469,2363,0,2023-03-01T18:50:51.714843,1641234,1210,1950,-276,-774,-502,-294,-48,148,-298
11470,2364,0,2023-03-01T18:50:51.720554,1641240,1210,1950,-276,-774,-502,-294,-48,148,-298
11471,2365,0,2023-03-01T18:50:51.725295,1641245,1210,1950,-276,-774,-502,-294,-48,148,-298
11472,2366,0,2023-03-01T18:50:51.730233,1641249,1210,1950,-276,-774,-502,-294,-48,148,-298
11473,2367,0,2023-03-01T18:50:51.736137,1641255,1212,1954,-283,-809,-504,-302,-48,148,-298
11474,2368,0,2023-03-01T18:50:51.741818,1641261,1212,1954,-283,-809,-504,-302,-48,148,-298
11475,2369,0,2023-03-01T18:50:51.746592,1641266,1212,1954,-283,-809,-504,-302,-48,148,-298
11476,2370,0,2023-03-01T18:50:51.751711,1641271,1212,1954,-283,-809,-504,-302,-48,148,-298
11477,2371,0,2023-03-01T18:50:51.757321,1641277,1207,1944,-292,-805,-522,-300,-48,148,-298
11478,2372,0,2023-03-01T18:50:51.762256,1641282,1207,1944,-292,-805,-522,-300,-48,148,-298
11479,2373,0,2023-03-01T18:50:51.767607,1641286,1207,1944,-292,-805,-522,-300,-48,148,-298
11480,2374,0,2023-03-01T18:50:51.773307,1641292,1210,1951,-287,-810,-513,-296,-48,148,-298
11481,2375,0,2023-03-01T18:50:51.778844,1641298,1210,1951,-287,-810,-513,-296,-48,148,-298
11482,2376,0,2023-03-01T18:50:51.783914,1641303,1210,1951,-287,-810,-513,-296,-48,148,-298
11483,2377,0,2023-03-01T18:50:51.789214,1641309,1210,1951,-287,-810,-513,-296,-48,148,-298
11484,2378,0,2023-03-01T18:50:51.794705,1641314,1208,1950,-287,-798,-514,-302,-48,148,-298
11485,2379,0,2023-03-01T18:50:51.800638,1641320,1208,1950,-287,-798,-514,-302,-48,148,-298
11486,2380,0,2023-03-01T18:50:51.805362,1641325,1208,1950,-287,-798,-514,-302,-48,148,-298
11487,2381,0,2023-03-01T18:50:51.811344,1641330,1208,1950,-287,-798,-514,-302,-48,148,-298
11488,2382,0,2023-03-01T18:50:51.816696,1641336,1209,1953,-292,-792,-526,-298,-52,162,-302
11489,2383,0,2023-03-01T18:50:51.822937,1641341,1209,1953,-292,-792,-526,-298,-52,162,-302
11490,2384,0,2023-03-01T18:50:51.827415,1641347,1209,1953,-292,-792,-526,-298,-52,162,-302
11491,2385,0,2023-03-01T18:50:51.833061,1641352,1209,1953,-292,-792,-526,-298,-52,162,-302
11492,2386,0,2023-03-01T18:50:51.838142,1641357,1214,1951,-289,-801,-507,-298,-52,162,-302
11493,2387,0,2023-03-01T18:50:51.844707,1641364,1214,1951,-289,-801,-507,-298,-52,162,-302
11494,2388,0,2023-03-01T18:50:51.849480,1641369,1214,1951,-289,-801,-507,-298,-52,162,-302
11495,2389,0,2023-03-01T18:50:51.855092,1641374,1210,1950,-289,-792,-525,-301,-52,162,-302
11496,2390,0,2023-03-01T18:50:51.861428,1641380,1210,1950,-289,-792,-525,-301,-52,162,-302
11497,2391,0,2023-03-01T18:50:51.866949,1641387,1210,1950,-289,-792,-525,-301,-52,162,-302
11498,2392,0,2023-03-01T18:50:51.871973,1641392,1210,1950,-289,-792,-525,-301,-52,162,-302
11499,2393,0,2023-03-01T18:50:51.877098,1641397,1212,1948,-290,-802,-520,-294,-52,162,-302
11500,2394,0,2023-03-01T18:50:51.883274,1641403,1212,1948,-290,-802,-520,-294,-52,162,-302
11501,2395,0,2023-03-01T18:50:51.888422,1641408,1212,1948,-290,-802,-520,-294,-52,162,-302
11502,2396,0,2023-03-01T18:50:51.893851,1641413,1209,1950,-293,-811,-528,-305,-52,162,-302
11503,2397,0,2023-03-01T18:50:51.899936,1641419,1209,1950,-293,-811,-528,-305,-52,162,-302
11504,2398,0,2023-03-01T18:50:51.905125,1641424,1209,1950,-293,-811,-528,-305,-52,162,-302
11505,2399,0,2023-03-01T18:50:51.909975,1641430,1209,1950,-293,-811,-528,-305,-52,162,-302
11506,2400,0,2023-03-01T18:50:51.915230,1641435,1206,1945,-289,-795,-508,-298,-52,162,-302
11507,2401,0,2023-03-01T18:50:51.921054,1641440,1206,1945,-289,-795,-508,-298,-52,162,-302
11508,2402,0,2023-03-01T18:50:51.926070,1641446,1206,1945,-289,-795,-508,-298,-52,162,-302
11509,2403,0,2023-03-01T18:50:51.931245,1641451,1206,1945,-289,-795,-508,-298,-52,162,-302
11510,2404,0,2023-03-01T18:50:51.936936,1641456,1211,1955,-301,-795,-514,-307,-52,162,-302
11511,2405,0,2023-03-01T18:50:51.944286,1641463,1211,1955,-301,-795,-514,-307,-52,162,-302
11512,2406,0,2023-03-01T18:50:51.949006,1641468,1211,1955,-301,-795,-514,-307,-52,162,-302
11513,2407,0,2023-03-01T18:50:51.954778,1641474,1208,1951,-291,-816,-527,-298,-49,165,-305
11514,2408,0,2023-03-01T18:50:51.961047,1641481,1208,1951,-291,-816,-527,-298,-49,165,-305
11515,2409,0,2023-03-01T18:50:51.966119,1641486,1208,1951,-291,-816,-527,-298,-49,165,-305
11516,2410,0,2023-03-01T18:50:51.971064,1641490,1208,1951,-291,-816,-527,-298,-49,165,-305
11517,2411,0,2023-03-01T18:50:51.975886,1641495,1213,1948,-298,-810,-509,-294,-49,165,-305
11518,2412,0,2023-03-01T18:50:51.981965,1641501,1213,1948,-298,-810,-509,-294,-49,165,-305
11519,2413,0,2023-03-01T18:50:51.986824,1641506,1213,1948,-298,-810,-509,-294,-49,165,-305
11520,2414,0,2023-03-01T18:50:51.991913,1641511,1213,1948,-298,-810,-509,-294,-49,165,-305
11521,2415,0,2023-03-01T18:50:51.997212,1641517,1210,1951,-297,-805,-522,-295,-49,165,-305
11522,2416,0,2023-03-01T18:50:52.002971,1641522,1210,1951,-297,-805,-522,-295,-49,165,-305
11523,2417,0,2023-03-01T18:50:52.007788,1641527,1210,1951,-297,-805,-522,-295,-49,165,-305
11524,2418,0,2023-03-01T18:50:52.013222,1641533,1210,1951,-297,-805,-522,-295,-49,165,-305
11525,2419,0,2023-03-01T18:50:52.018419,1641537,1212,1950,-300,-813,-517,-296,-49,165,-305
11526,2420,0,2023-03-01T18:50:52.024454,1641543,1212,1950,-300,-813,-517,-296,-49,165,-305
11527,2421,0,2023-03-01T18:50:52.029654,1641548,1212,1950,-300,-813,-517,-296,-49,165,-305
11528,2422,0,2023-03-01T18:50:52.035461,1641554,1212,1950,-303,-808,-513,-298,-49,165,-305
11529,2423,0,2023-03-01T18:50:52.041390,1641561,1212,1950,-303,-808,-513,-298,-49,165,-305
11530,2424,0,2023-03-01T18:50:52.046932,1641566,1212,1950,-303,-808,-513,-298,-49,165,-305
11531,2425,0,2023-03-01T18:50:52.052811,1641572,1212,1950,-303,-808,-513,-298,-49,165,-305
11532,2426,0,2023-03-01T18:50:52.058363,1641578,1205,1944,-304,-802,-522,-306,-49,165,-305
11533,2427,0,2023-03-01T18:50:52.064831,1641584,1205,1944,-304,-802,-522,-306,-49,165,-305
11534,2428,0,2023-03-01T18:50:52.069724,1641589,1205,1944,-304,-802,-522,-306,-49,165,-305
11535,2429,0,2023-03-01T18:50:52.075954,1641594,1211,1949,-301,-814,-512,-302,-51,165,-305
11536,2430,0,2023-03-01T18:50:52.083590,1641602,1211,1949,-301,-814,-512,-302,-51,165,-305
11537,2431,0,2023-03-01T18:50:52.089087,1641608,1211,1949,-301,-814,-512,-302,-51,165,-305
11538,2432,0,2023-03-01T18:50:52.094685,1641614,1211,1950,-304,-797,-513,-302,-51,165,-305
11539,2433,0,2023-03-01T18:50:52.100543,1641620,1211,1950,-304,-797,-513,-302,-51,165,-305
11540,2434,0,2023-03-01T18:50:52.105184,1641625,1211,1950,-304,-797,-513,-302,-51,165,-305
11541,2435,0,2023-03-01T18:50:52.110613,1641629,1211,1950,-304,-797,-513,-302,-51,165,-305
11542,2436,0,2023-03-01T18:50:52.116954,1641635,1212,1955,-304,-808,-495,-304,-51,165,-305
11543,2437,0,2023-03-01T18:50:52.122972,1641643,1212,1955,-304,-808,-495,-304,-51,165,-305
11544,2438,0,2023-03-01T18:50:52.128078,1641647,1212,1955,-304,-808,-495,-304,-51,165,-305
11545,2439,0,2023-03-01T18:50:52.133690,1641653,1212,1955,-304,-808,-495,-304,-51,165,-305
11546,2440,0,2023-03-01T18:50:52.138777,1641658,1212,1949,-301,-805,-510,-307,-51,165,-305
11547,2441,0,2023-03-01T18:50:52.144830,1641664,1212,1949,-301,-805,-510,-307,-51,165,-305
11548,2442,0,2023-03-01T18:50:52.149555,1641669,1212,1949,-301,-805,-510,-307,-51,165,-305
11549,2443,0,2023-03-01T18:50:52.155390,1641674,1212,1947,-302,-810,-505,-299,-51,165,-305
11550,2444,0,2023-03-01T18:50:52.162346,1641681,1212,1947,-302,-810,-505,-299,-51,165,-305
11551,2445,0,2023-03-01T18:50:52.167500,1641687,1212,1947,-302,-810,-505,-299,-51,165,-305
11552,2446,0,2023-03-01T18:50:52.173275,1641693,1212,1947,-302,-810,-505,-299,-51,165,-305
11553,2447,0,2023-03-01T18:50:52.179127,1641699,1212,1950,-307,-810,-514,-301,-51,165,-305
11554,2448,0,2023-03-01T18:50:52.185390,1641705,1212,1950,-307,-810,-514,-301,-51,165,-305
11555,2449,0,2023-03-01T18:50:52.191126,1641710,1212,1950,-307,-810,-514,-301,-51,165,-305
11556,2450,0,2023-03-01T18:50:52.196846,1641716,1212,1945,-311,-803,-508,-299,-51,165,-305
11557,2451,0,2023-03-01T18:50:52.203199,1641722,1212,1945,-311,-803,-508,-299,-51,165,-305
11558,2452,0,2023-03-01T18:50:52.208437,1641728,1212,1945,-311,-803,-508,-299,-51,165,-305
11559,2453,0,2023-03-01T18:50:52.214009,1641734,1210,1951,-307,-813,-502,-311,-51,165,-305
11560,2454,0,2023-03-01T18:50:52.219795,1641739,1210,1951,-307,-813,-502,-311,-49,169,-309
11561,2455,0,2023-03-01T18:50:52.226256,1641745,1210,1951,-307,-813,-502,-311,-49,169,-309
11562,2456,0,2023-03-01T18:50:52.231097,1641750,1210,1951,-307,-813,-502,-311,-49,169,-309
11563,2457,0,2023-03-01T18:50:52.236913,1641756,1211,1951,-313,-821,-508,-308,-49,169,-309
11564,2458,0,2023-03-01T18:50:52.243563,1641763,1211,1951,-313,-821,-508,-308,-49,169,-309
11565,2459,0,2023-03-01T18:50:52.248738,1641767,1211,1951,-313,-821,-508,-308,-49,169,-309
11566,2460,0,2023-03-01T18:50:52.254446,1641774,1210,1951,-314,-819,-493,-304,-49,169,-309
11567,2461,0,2023-03-01T18:50:52.260020,1641780,1210,1951,-314,-819,-493,-304,-49,169,-309
11568,2462,0,2023-03-01T18:50:52.265385,1641785,1210,1951,-314,-819,-493,-304,-49,169,-309
11569,2463,0,2023-03-01T18:50:52.270220,1641789,1210,1951,-314,-819,-493,-304,-49,169,-309
11570,2464,0,2023-03-01T18:50:52.275924,1641795,1209,1950,-310,-795,-504,-302,-49,169,-309
11571,2465,0,2023-03-01T18:50:52.282743,1641802,1209,1950,-310,-795,-504,-302,-49,169,-309
11572,2466,0,2023-03-01T18:50:52.287547,1641806,1209,1950,-310,-795,-504,-302,-49,169,-309
11573,2467,0,2023-03-01T18:50:52.292970,1641812,1209,1950,-310,-795,-504,-302,-49,169,-309
11574,2468,0,2023-03-01T18:50:52.297604,1641817,1209,1947,-307,-804,-500,-299,-49,169,-309
11575,2469,0,2023-03-01T18:50:52.303716,1641823,1209,1947,-307,-804,-500,-299,-49,169,-309
11576,2470,0,2023-03-01T18:50:52.308725,1641828,1209,1947,-307,-804,-500,-299,-49,169,-309
11577,2471,0,2023-03-01T18:50:52.314743,1641834,1211,1950,-315,-797,-510,-309,-49,169,-309
11578,2472,0,2023-03-01T18:50:52.320219,1641839,1211,1950,-315,-797,-510,-309,-49,169,-309
11579,2473,0,2023-03-01T18:50:52.325495,1641844,1211,1950,-315,-797,-510,-309,-49,169,-309
11580,2474,0,2023-03-01T18:50:52.330387,1641849,1211,1950,-315,-797,-510,-309,-49,169,-309
11581,2475,0,2023-03-01T18:50:52.336877,1641856,1211,1950,-315,-798,-519,-296,-58,162,-306
11582,2476,0,2023-03-01T18:50:52.343005,1641863,1211,1950,-315,-798,-519,-296,-58,162,-306
11583,2477,0,2023-03-01T18:50:52.347680,1641867,1211,1950,-315,-798,-519,-296,-58,162,-306
11584,2478,0,2023-03-01T18:50:52.353414,1641873,1211,1950,-315,-798,-519,-296,-58,162,-306
11585,2479,0,2023-03-01T18:50:52.358427,1641877,1212,1950,-314,-806,-506,-308,-58,162,-306
11586,2480,0,2023-03-01T18:50:52.364876,1641884,1212,1950,-314,-806,-506,-308,-58,162,-306
11587,2481,0,2023-03-01T18:50:52.369772,1641889,1212,1950,-314,-806,-506,-308,-58,162,-306
11588,2482,0,2023-03-01T18:50:52.376442,1641895,1210,1949,-316,-792,-512,-298,-58,162,-306
11589,2483,0,2023-03-01T18:50:52.382683,1641902,1210,1949,-316,-792,-512,-298,-58,162,-306
11590,2484,0,2023-03-01T18:50:52.387625,1641907,1210,1949,-316,-792,-512,-298,-58,162,-306
11591,2485,0,2023-03-01T18:50:52.393738,1641913,1210,1949,-316,-792,-512,-298,-58,162,-306
11592,2486,0,2023-03-01T18:50:52.398403,1641918,1214,1950,-319,-800,-510,-306,-58,162,-306
11593,2487,0,2023-03-01T18:50:52.403829,1641923,1214,1950,-319,-800,-510,-306,-58,162,-306
11594,2488,0,2023-03-01T18:50:52.409136,1641928,1214,1950,-319,-800,-510,-306,-58,162,-306
11595,2489,0,2023-03-01T18:50:52.414632,1641934,1199,1940,-307,-757,-490,-292,-58,162,-306
11596,2490,0,2023-03-01T18:50:52.419963,1641939,1199,1940,-307,-757,-490,-292,-58,162,-306
11597,2491,0,2023-03-01T18:50:52.424413,1641944,1199,1940,-307,-757,-490,-292,-58,162,-306
11598,2492,0,2023-03-01T18:50:52.429549,1641949,1199,1940,-307,-757,-490,-292,-58,162,-306
11599,2493,0,2023-03-01T18:50:52.435470,1641955,1216,1954,-325,-782,-486,-302,-58,162,-306
11600,2494,0,2023-03-01T18:50:52.441870,1641961,1216,1954,-325,-782,-486,-302,-58,162,-306
11601,2495,0,2023-03-01T18:50:52.446667,1641966,1216,1954,-325,-782,-486,-302,-58,162,-306
11602,2496,0,2023-03-01T18:50:52.451840,1641971,1216,1954,-325,-782,-486,-302,-58,162,-306
11603,2497,0,2023-03-01T18:50:52.457066,1641976,1210,1949,-318,-794,-493,-299,-58,158,-308
11604,2498,0,2023-03-01T18:50:52.463337,1641982,1210,1949,-318,-794,-493,-299,-58,158,-308
11605,2499,0,2023-03-01T18:50:52.468361,1641988,1210,1949,-318,-794,-493,-299,-58,158,-308
11606,2500,0,2023-03-01T18:50:52.474598,1641994,1211,1943,-317,-795,-506,-301,-58,158,-308
11607,2501,0,2023-03-01T18:50:52.481619,1642001,1211,1943,-317,-795,-506,-301,-58,158,-308
11608,2502,0,2023-03-01T18:50:52.486772,1642006,1211,1943,-317,-795,-506,-301,-58,158,-308
11609,2503,0,2023-03-01T18:50:52.491909,1642011,1211,1943,-317,-795,-506,-301,-58,158,-308
11610,2504,0,2023-03-01T18:50:52.497788,1642017,1213,1952,-320,-789,-484,-309,-58,158,-308
11611,2505,0,2023-03-01T18:50:52.504103,1642023,1213,1952,-320,-789,-484,-309,-58,158,-308
11612,2506,0,2023-03-01T18:50:52.508648,1642029,1213,1952,-320,-789,-484,-309,-58,158,-308
11613,2507,0,2023-03-01T18:50:52.513253,1642033,1213,1952,-320,-789,-484,-309,-58,158,-308
11614,2508,0,2023-03-01T18:50:52.518158,1642038,1213,1949,-329,-809,-515,-299,-58,158,-308
11615,2509,0,2023-03-01T18:50:52.524450,1642044,1213,1949,-329,-809,-515,-299,-58,158,-308
11616,2510,0,2023-03-01T18:50:52.530236,1642049,1213,1949,-329,-809,-515,-299,-58,158,-308
11617,2511,0,2023-03-01T18:50:52.536020,1642055,1214,1952,-320,-805,-512,-308,-58,158,-308
11618,2512,0,2023-03-01T18:50:52.542776,1642061,1214,1952,-320,-805,-512,-308,-58,158,-308
11619,2513,0,2023-03-01T18:50:52.547823,1642067,1214,1952,-320,-805,-512,-308,-58,158,-308
11620,2514,0,2023-03-01T18:50:52.553465,1642073,1214,1952,-320,-805,-512,-308,-58,158,-308
11621,2515,0,2023-03-01T18:50:52.558262,1642078,1211,1947,-324,-809,-514,-298,-58,158,-308
11622,2516,0,2023-03-01T18:50:52.564274,1642084,1211,1947,-324,-809,-514,-298,-58,158,-308
11623,2517,0,2023-03-01T18:50:52.569039,1642088,1211,1947,-324,-809,-514,-298,-58,158,-308
11624,2518,0,2023-03-01T18:50:52.574984,1642094,1210,1950,-324,-807,-511,-302,-58,158,-308
11625,2519,0,2023-03-01T18:50:52.581237,1642100,1210,1950,-324,-807,-511,-302,-58,158,-308
11626,2520,0,2023-03-01T18:50:52.586890,1642106,1210,1950,-324,-807,-511,-302,-58,158,-308
11627,2521,0,2023-03-01T18:50:52.591716,1642112,1210,1950,-324,-807,-511,-302,-58,158,-308
11628,2522,0,2023-03-01T18:50:52.598042,1642117,1212,1949,-320,-799,-499,-304,-47,169,-301
11629,2523,0,2023-03-01T18:50:52.604328,1642124,1212,1949,-320,-799,-499,-304,-47,169,-301
11630,2524,0,2023-03-01T18:50:52.609097,1642129,1212,1949,-320,-799,-499,-304,-47,169,-301
11631,2525,0,2023-03-01T18:50:52.614367,1642134,1213,1950,-323,-790,-501,-306,-47,169,-301
11632,2526,0,2023-03-01T18:50:52.620239,1642139,1213,1950,-323,-790,-501,-306,-47,169,-301
11633,2527,0,2023-03-01T18:50:52.624910,1642144,1213,1950,-323,-790,-501,-306,-47,169,-301
11634,2528,0,2023-03-01T18:50:52.629745,1642149,1213,1950,-323,-790,-501,-306,-47,169,-301
11635,2529,0,2023-03-01T18:50:52.635630,1642155,1214,1950,-329,-794,-496,-304,-47,169,-301
11636,2530,0,2023-03-01T18:50:52.642165,1642162,1214,1950,-329,-794,-496,-304,-47,169,-301
11637,2531,0,2023-03-01T18:50:52.647291,1642167,1214,1950,-329,-794,-496,-304,-47,169,-301
11638,2532,0,2023-03-01T18:50:52.652519,1642172,1214,1950,-329,-794,-496,-304,-47,169,-301
11639,2533,0,2023-03-01T18:50:52.658131,1642178,1216,1952,-330,-800,-500,-299,-47,169,-301
11640,2534,0,2023-03-01T18:50:52.664466,1642183,1216,1952,-330,-800,-500,-299,-47,169,-301
11641,2535,0,2023-03-01T18:50:52.669427,1642188,1216,1952,-330,-800,-500,-299,-47,169,-301
11642,2536,0,2023-03-01T18:50:52.674689,1642194,1213,1944,-329,-798,-497,-295,-47,169,-301
11643,2537,0,2023-03-01T18:50:52.680393,1642200,1213,1944,-329,-798,-497,-295,-47,169,-301
11644,2538,0,2023-03-01T18:50:52.685373,1642205,1213,1944,-329,-798,-497,-295,-47,169,-301
11645,2539,0,2023-03-01T18:50:52.690107,1642210,1213,1944,-329,-798,-497,-295,-47,169,-301
11646,2540,0,2023-03-01T18:50:52.695630,1642215,1214,1952,-331,-807,-503,-297,-47,169,-301
11647,2541,0,2023-03-01T18:50:52.701561,1642221,1214,1952,-331,-807,-503,-297,-47,169,-301
11648,2542,0,2023-03-01T18:50:52.706483,1642226,1214,1952,-331,-807,-503,-297,-47,169,-301
11649,2543,0,2023-03-01T18:50:52.712051,1642231,1214,1952,-331,-807,-503,-297,-47,169,-301
11650,2544,0,2023-03-01T18:50:52.717865,1642236,1214,1947,-325,-790,-511,-297,-48,168,-304
11651,2545,0,2023-03-01T18:50:52.723791,1642244,1214,1947,-325,-790,-511,-297,-48,168,-304
11652,2546,0,2023-03-01T18:50:52.728425,1642248,1214,1947,-325,-790,-511,-297,-48,168,-304
11653,2547,0,2023-03-01T18:50:52.733596,1642253,1214,1947,-325,-790,-511,-297,-48,168,-304
11654,2548,0,2023-03-01T18:50:52.738105,1642258,1215,1951,-326,-800,-500,-301,-48,168,-304
11655,2549,0,2023-03-01T18:50:52.743799,1642263,1215,1951,-326,-800,-500,-301,-48,168,-304
11656,2550,0,2023-03-01T18:50:52.748864,1642268,1215,1951,-326,-800,-500,-301,-48,168,-304
11657,2551,0,2023-03-01T18:50:52.754626,1642274,1211,1949,-335,-785,-518,-303,-48,168,-304
11658,2552,0,2023-03-01T18:50:52.760354,1642279,1211,1949,-335,-785,-518,-303,-48,168,-304
11659,2553,0,2023-03-01T18:50:52.765715,1642285,1211,1949,-335,-785,-518,-303,-48,168,-304
11660,2554,0,2023-03-01T18:50:52.771140,1642291,1211,1949,-335,-785,-518,-303,-48,168,-304
11661,2555,0,2023-03-01T18:50:52.777100,1642296,1215,1950,-340,-773,-495,-281,-48,168,-304
11662,2556,0,2023-03-01T18:50:52.783268,1642303,1215,1950,-340,-773,-495,-281,-48,168,-304
11663,2557,0,2023-03-01T18:50:52.788564,1642308,1215,1950,-340,-773,-495,-281,-48,168,-304
11664,2558,0,2023-03-01T18:50:52.794315,1642313,1215,1950,-340,-773,-495,-281,-48,168,-304
11665,2559,0,2023-03-01T18:50:52.799351,1642318,1215,1950,-340,-773,-495,-281,-48,168,-304
11666,2560,0,2023-03-01T18:50:52.804523,1642323,1215,1950,-340,-773,-495,-281,-48,168,-304
11667,2561,0,2023-03-01T18:50:52.809788,1642329,1215,1950,-340,-773,-495,-281,-48,168,-304
11668,2562,0,2023-03-01T18:50:52.815590,1642335,1212,1946,-332,-806,-515,-299,-48,168,-304
11669,2563,0,2023-03-01T18:50:52.821549,1642341,1212,1946,-332,-806,-515,-299,-48,168,-304
11670,2564,0,2023-03-01T18:50:52.826118,1642346,1212,1946,-332,-806,-515,-299,-48,168,-304
11671,2565,0,2023-03-01T18:50:52.831009,1642350,1212,1946,-332,-806,-515,-299,-48,168,-304
11672,2566,0,2023-03-01T18:50:52.835861,1642355,1212,1947,-340,-814,-493,-307,-48,168,-304
11673,2567,0,2023-03-01T18:50:52.842544,1642362,1212,1947,-340,-814,-493,-307,-48,168,-304
11674,2568,0,2023-03-01T18:50:52.847118,1642366,1212,1947,-340,-814,-493,-307,-48,168,-304
11675,2569,0,2023-03-01T18:50:52.851913,1642372,1212,1947,-340,-814,-493,-307,-48,168,-304
11676,2570,0,2023-03-01T18:50:52.857312,1642377,1216,1949,-331,-814,-501,-303,-55,163,-293
11677,2571,0,2023-03-01T18:50:52.863574,1642383,1216,1949,-331,-814,-501,-303,-55,163,-293
11678,2572,0,2023-03-01T18:50:52.868428,1642388,1216,1949,-331,-814,-501,-303,-55,163,-293
11679,2573,0,2023-03-01T18:50:52.873687,1642393,1216,1949,-331,-814,-501,-303,-55,163,-293
11680,2574,0,2023-03-01T18:50:52.878321,1642398,1214,1954,-339,-821,-496,-302,-55,163,-293
11681,2575,0,2023-03-01T18:50:52.883991,1642403,1214,1954,-339,-821,-496,-302,-55,163,-293
11682,2576,0,2023-03-01T18:50:52.888834,1642408,1214,1954,-339,-821,-496,-302,-55,163,-293
11683,2577,0,2023-03-01T18:50:52.894315,1642414,1214,1954,-339,-821,-496,-302,-55,163,-293
11684,2578,0,2023-03-01T18:50:52.899285,1642419,1216,1948,-339,-789,-511,-302,-55,163,-293
11685,2579,0,2023-03-01T18:50:52.905944,1642425,1216,1948,-339,-789,-511,-302,-55,163,-293
11686,2580,0,2023-03-01T18:50:52.910664,1642430,1216,1948,-339,-789,-511,-302,-55,163,-293
11687,2581,0,2023-03-01T18:50:52.916339,1642436,1213,1950,-341,-791,-495,-306,-55,163,-293
11688,2582,0,2023-03-01T18:50:52.921798,1642441,1213,1950,-341,-791,-495,-306,-55,163,-293
11689,2583,0,2023-03-01T18:50:52.926703,1642446,1213,1950,-341,-791,-495,-306,-55,163,-293
11690,2584,0,2023-03-01T18:50:52.931195,1642450,1213,1950,-341,-791,-495,-306,-55,163,-293
11691,2585,0,2023-03-01T18:50:52.936487,1642456,1210,1951,-339,-795,-501,-311,-55,163,-293
11692,2586,0,2023-03-01T18:50:52.942147,1642462,1210,1951,-339,-795,-501,-311,-55,163,-293
11693,2587,0,2023-03-01T18:50:52.946680,1642466,1210,1951,-339,-795,-501,-311,-55,163,-293
11694,2588,0,2023-03-01T18:50:52.951585,1642471,1210,1951,-339,-795,-501,-311,-55,163,-293
11695,2589,0,2023-03-01T18:50:52.956959,1642476,1212,1949,-347,-803,-510,-299,-55,163,-293
11696,2590,0,2023-03-01T18:50:52.962825,1642482,1212,1949,-347,-803,-510,-299,-55,163,-293
11697,2591,0,2023-03-01T18:50:52.967476,1642486,1212,1949,-347,-803,-510,-299,-55,163,-293
11698,2592,0,2023-03-01T18:50:52.972879,1642492,1212,1949,-347,-803,-510,-299,-55,163,-293
11699,2593,0,2023-03-01T18:50:52.977734,1642498,1219,1950,-335,-796,-494,-309,-50,162,-298
11700,2594,0,2023-03-01T18:50:52.983172,1642503,1219,1950,-335,-796,-494,-309,-50,162,-298
11701,2595,0,2023-03-01T18:50:52.987627,1642507,1219,1950,-335,-796,-494,-309,-50,162,-298
11702,2596,0,2023-03-01T18:50:52.992939,1642512,1219,1950,-335,-796,-494,-309,-50,162,-298
11703,2597,0,2023-03-01T18:50:52.997729,1642517,1212,1947,-344,-801,-510,-298,-50,162,-298
11704,2598,0,2023-03-01T18:50:53.003326,1642522,1212,1947,-344,-801,-510,-298,-50,162,-298
11705,2599,0,2023-03-01T18:50:53.008100,1642527,1212,1947,-344,-801,-510,-298,-50,162,-298
11706,2600,0,2023-03-01T18:50:53.013492,1642532,1212,1947,-344,-801,-510,-298,-50,162,-298
11707,2601,0,2023-03-01T18:50:53.018507,1642537,1218,1951,-342,-805,-494,-308,-50,162,-298
11708,2602,0,2023-03-01T18:50:53.024517,1642544,1218,1951,-342,-805,-494,-308,-50,162,-298
11709,2603,0,2023-03-01T18:50:53.031408,1642551,1218,1951,-342,-805,-494,-308,-50,162,-298
11710,2604,0,2023-03-01T18:50:53.036757,1642556,1215,1947,-349,-793,-506,-308,-50,162,-298
11711,2605,0,2023-03-01T18:50:53.042754,1642562,1215,1947,-349,-793,-506,-308,-50,162,-298
11712,2606,0,2023-03-01T18:50:53.047639,1642567,1215,1947,-349,-793,-506,-308,-50,162,-298
11713,2607,0,2023-03-01T18:50:53.053221,1642572,1215,1947,-349,-793,-506,-308,-50,162,-298
11714,2608,0,2023-03-01T18:50:53.057949,1642577,1213,1949,-347,-795,-498,-310,-50,162,-298
11715,2609,0,2023-03-01T18:50:53.064097,1642584,1213,1949,-347,-795,-498,-310,-50,162,-298
11716,2610,0,2023-03-01T18:50:53.068978,1642589,1213,1949,-347,-795,-498,-310,-50,162,-298
11717,2611,0,2023-03-01T18:50:53.074211,1642594,1213,1949,-347,-795,-498,-310,-50,162,-298
11718,2612,0,2023-03-01T18:50:53.079240,1642599,1216,1950,-355,-785,-511,-313,-50,162,-298
11719,2613,0,2023-03-01T18:50:53.085711,1642605,1216,1950,-355,-785,-511,-313,-50,162,-298
11720,2614,0,2023-03-01T18:50:53.090481,1642610,1216,1950,-355,-785,-511,-313,-50,162,-298
11721,2615,0,2023-03-01T18:50:53.096157,1642615,1215,1952,-353,-797,-515,-306,-47,159,-301
11722,2616,0,2023-03-01T18:50:53.102960,1642621,1215,1952,-353,-797,-515,-306,-47,159,-301
11723,2617,0,2023-03-01T18:50:53.108420,1642628,1215,1952,-353,-797,-515,-306,-47,159,-301
11724,2618,0,2023-03-01T18:50:53.113970,1642634,1215,1952,-353,-797,-515,-306,-47,159,-301
11725,2619,0,2023-03-01T18:50:53.118903,1642638,1213,1950,-346,-799,-498,-307,-47,159,-301
11726,2620,0,2023-03-01T18:50:53.125140,1642644,1213,1950,-346,-799,-498,-307,-47,159,-301
11727,2621,0,2023-03-01T18:50:53.130163,1642649,1213,1950,-346,-799,-498,-307,-47,159,-301
11728,2622,0,2023-03-01T18:50:53.136350,1642655,1211,1948,-353,-795,-504,-304,-47,159,-301
11729,2623,0,2023-03-01T18:50:53.142460,1642661,1211,1948,-353,-795,-504,-304,-47,159,-301
11730,2624,0,2023-03-01T18:50:53.147423,1642667,1211,1948,-353,-795,-504,-304,-47,159,-301
11731,2625,0,2023-03-01T18:50:53.152549,1642672,1211,1948,-353,-795,-504,-304,-47,159,-301
11732,2626,0,2023-03-01T18:50:53.157790,1642677,1215,1948,-349,-793,-493,-298,-47,159,-301
11733,2627,0,2023-03-01T18:50:53.164127,1642683,1215,1948,-349,-793,-493,-298,-47,159,-301
11734,2628,0,2023-03-01T18:50:53.169738,1642689,1215,1948,-349,-793,-493,-298,-47,159,-301
11735,2629,0,2023-03-01T18:50:53.175134,1642694,1215,1952,-352,-802,-491,-302,-47,159,-301
11736,2630,0,2023-03-01T18:50:53.180955,1642700,1215,1952,-352,-802,-491,-302,-47,159,-301
11737,2631,0,2023-03-01T18:50:53.185926,1642705,1215,1952,-352,-802,-491,-302,-47,159,-301
11738,2632,0,2023-03-01T18:50:53.191058,1642711,1215,1952,-352,-802,-491,-302,-47,159,-301
11739,2633,0,2023-03-01T18:50:53.197282,1642716,1214,1947,-355,-792,-496,-306,-47,159,-301
11740,2634,0,2023-03-01T18:50:53.203686,1642723,1214,1947,-355,-792,-496,-306,-47,159,-301
11741,2635,0,2023-03-01T18:50:53.208430,1642728,1214,1947,-355,-792,-496,-306,-47,159,-301
11742,2636,0,2023-03-01T18:50:53.214474,1642733,1214,1947,-355,-792,-496,-306,-47,159,-301
11743,2637,0,2023-03-01T18:50:53.219524,1642739,1207,1942,-354,-776,-473,-292,-47,159,-301
11744,2638,0,2023-03-01T18:50:53.225357,1642744,1207,1942,-354,-776,-473,-292,-47,159,-301
11745,2639,0,2023-03-01T18:50:53.229964,1642749,1207,1942,-354,-776,-473,-292,-47,159,-301
11746,2640,0,2023-03-01T18:50:53.234875,1642755,1207,1942,-354,-776,-473,-292,-47,159,-301
11747,2641,0,2023-03-01T18:50:53.239396,1642759,1218,1954,-356,-786,-497,-305,-54,160,-300
11748,2642,0,2023-03-01T18:50:53.245423,1642765,1218,1954,-356,-786,-497,-305,-54,160,-300
11749,2643,0,2023-03-01T18:50:53.250748,1642770,1218,1954,-356,-786,-497,-305,-54,160,-300
11750,2644,0,2023-03-01T18:50:53.256626,1642776,1218,1954,-356,-786,-497,-305,-54,160,-300
11751,2645,0,2023-03-01T18:50:53.261903,1642781,1218,1954,-356,-786,-497,-305,-54,160,-300
11752,2646,0,2023-03-01T18:50:53.266683,1642786,1218,1954,-356,-786,-497,-305,-54,160,-300
11753,2647,0,2023-03-01T18:50:53.271549,1642790,1218,1954,-356,-786,-497,-305,-54,160,-300
11754,2648,0,2023-03-01T18:50:53.278237,1642798,1213,1950,-351,-795,-508,-303,-54,160,-300
11755,2649,0,2023-03-01T18:50:53.284658,1642804,1213,1950,-351,-795,-508,-303,-54,160,-300
11756,2650,0,2023-03-01T18:50:53.289451,1642809,1213,1950,-351,-795,-508,-303,-54,160,-300
11757,2651,0,2023-03-01T18:50:53.295242,1642814,1213,1950,-351,-795,-508,-303,-54,160,-300
11758,2652,0,2023-03-01T18:50:53.300299,1642820,1213,1947,-363,-813,-538,-298,-54,160,-300
11759,2653,0,2023-03-01T18:50:53.305448,1642824,1213,1947,-363,-813,-538,-298,-54,160,-300
11760,2654,0,2023-03-01T18:50:53.310391,1642829,1213,1947,-363,-813,-538,-298,-54,160,-300
11761,2655,0,2023-03-01T18:50:53.315195,1642834,1213,1947,-363,-813,-538,-298,-54,160,-300
11762,2656,0,2023-03-01T18:50:53.320268,1642840,1213,1953,-361,-813,-527,-310,-54,160,-300
11763,2657,0,2023-03-01T18:50:53.325924,1642845,1213,1953,-361,-813,-527,-310,-54,160,-300
11764,2658,0,2023-03-01T18:50:53.331026,1642850,1213,1953,-361,-813,-527,-310,-54,160,-300
11765,2659,0,2023-03-01T18:50:53.335570,1642855,1215,1941,-367,-812,-523,-297,-54,160,-300
11766,2660,0,2023-03-01T18:50:53.341118,1642860,1215,1941,-367,-812,-523,-297,-54,160,-300
11767,2661,0,2023-03-01T18:50:53.346107,1642865,1215,1941,-367,-812,-523,-297,-54,160,-300
11768,2662,0,2023-03-01T18:50:53.351221,1642870,1215,1941,-367,-812,-523,-297,-54,160,-300
11769,2663,0,2023-03-01T18:50:53.356371,1642875,1217,1953,-360,-828,-525,-311,-46,154,-304
11770,2664,0,2023-03-01T18:50:53.362600,1642882,1217,1953,-360,-828,-525,-311,-46,154,-304
11771,2665,0,2023-03-01T18:50:53.367670,1642887,1217,1953,-360,-828,-525,-311,-46,154,-304
11772,2666,0,2023-03-01T18:50:53.373136,1642893,1217,1953,-360,-828,-525,-311,-46,154,-304
11773,2667,0,2023-03-01T18:50:53.378153,1642898,1212,1949,-367,-817,-538,-295,-46,154,-304
11774,2668,0,2023-03-01T18:50:53.384513,1642904,1212,1949,-367,-817,-538,-295,-46,154,-304
11775,2669,0,2023-03-01T18:50:53.390083,1642909,1212,1949,-367,-817,-538,-295,-46,154,-304
11776,2670,0,2023-03-01T18:50:53.395876,1642915,1214,1950,-359,-808,-510,-293,-46,154,-304
11777,2671,0,2023-03-01T18:50:53.401254,1642920,1214,1950,-359,-808,-510,-293,-46,154,-304
11778,2672,0,2023-03-01T18:50:53.406225,1642926,1214,1950,-359,-808,-510,-293,-46,154,-304
11779,2673,0,2023-03-01T18:50:53.411381,1642931,1214,1950,-359,-808,-510,-293,-46,154,-304
11780,2674,0,2023-03-01T18:50:53.416941,1642936,1219,1950,-357,-804,-458,-223,-46,154,-304
11781,2675,0,2023-03-01T18:50:53.423681,1642943,1219,1950,-357,-804,-458,-223,-46,154,-304
11782,2676,0,2023-03-01T18:50:53.428451,1642948,1219,1950,-357,-804,-458,-223,-46,154,-304
11783,2677,0,2023-03-01T18:50:53.433757,1642953,1219,1950,-357,-804,-458,-223,-46,154,-304
11784,2678,0,2023-03-01T18:50:53.438743,1642958,1222,1950,-368,-807,-486,-250,-46,154,-304
11785,2679,0,2023-03-01T18:50:53.443870,1642963,1222,1950,-368,-807,-486,-250,-46,154,-304
11786,2680,0,2023-03-01T18:50:53.449095,1642969,1222,1950,-368,-807,-486,-250,-46,154,-304
11787,2681,0,2023-03-01T18:50:53.454536,1642974,1222,1950,-368,-807,-486,-250,-46,154,-304
11788,2682,0,2023-03-01T18:50:53.459779,1642979,1216,1951,-364,-787,-533,-277,-46,154,-304
11789,2683,0,2023-03-01T18:50:53.466629,1642986,1216,1951,-364,-787,-533,-277,-46,154,-304
11790,2684,0,2023-03-01T18:50:53.471553,1642991,1216,1951,-364,-787,-533,-277,-46,154,-304
11791,2685,0,2023-03-01T18:50:53.476813,1642996,1217,1949,-367,-800,-528,-284,-46,154,-304
11792,2686,0,2023-03-01T18:50:53.482522,1643002,1217,1949,-367,-800,-528,-284,-46,154,-304
11793,2687,0,2023-03-01T18:50:53.487923,1643006,1217,1949,-367,-800,-528,-284,-46,154,-304
11794,2688,0,2023-03-01T18:50:53.493353,1643013,1217,1949,-367,-800,-528,-284,-46,154,-304
11795,2689,0,2023-03-01T18:50:53.498276,1643018,1217,1949,-367,-790,-532,-288,-49,161,-305
11796,2690,0,2023-03-01T18:50:53.504433,1643024,1217,1949,-367,-790,-532,-288,-49,161,-305
11797,2691,0,2023-03-01T18:50:53.509156,1643029,1217,1949,-367,-790,-532,-288,-49,161,-305
11798,2692,0,2023-03-01T18:50:53.514497,1643034,1217,1949,-367,-790,-532,-288,-49,161,-305
11799,2693,0,2023-03-01T18:50:53.519469,1643039,1217,1949,-367,-790,-532,-288,-49,161,-305
11800,2694,0,2023-03-01T18:50:53.525199,1643044,1217,1949,-367,-790,-532,-288,-49,161,-305
11801,2695,0,2023-03-01T18:50:53.530467,1643049,1217,1949,-367,-790,-532,-288,-49,161,-305
11802,2696,0,2023-03-01T18:50:53.535875,1643056,1222,1950,-370,-811,-601,-274,-49,161,-305
11803,2697,0,2023-03-01T18:50:53.541015,1643061,1222,1950,-370,-811,-601,-274,-49,161,-305
11804,2698,0,2023-03-01T18:50:53.545535,1643065,1222,1950,-370,-811,-601,-274,-49,161,-305
11805,2699,0,2023-03-01T18:50:53.550905,1643070,1222,1950,-370,-811,-601,-274,-49,161,-305
11806,2700,0,2023-03-01T18:50:53.555932,1643075,1222,1948,-379,-849,-655,-281,-49,161,-305
11807,2701,0,2023-03-01T18:50:53.561269,1643081,1222,1948,-379,-849,-655,-281,-49,161,-305
11808,2702,0,2023-03-01T18:50:53.566575,1643086,1222,1948,-379,-849,-655,-281,-49,161,-305
11809,2703,0,2023-03-01T18:50:53.571421,1643090,1222,1948,-379,-849,-655,-281,-49,161,-305
11810,2704,0,2023-03-01T18:50:53.577345,1643097,1220,1947,-384,-863,-667,-279,-49,161,-305
11811,2705,0,2023-03-01T18:50:53.583517,1643103,1220,1947,-384,-863,-667,-279,-49,161,-305
11812,2706,0,2023-03-01T18:50:53.588339,1643108,1220,1947,-384,-863,-667,-279,-49,161,-305
11813,2707,0,2023-03-01T18:50:53.593509,1643113,1220,1947,-384,-863,-667,-279,-49,161,-305
11814,2708,0,2023-03-01T18:50:53.598324,1643118,1214,1949,-372,-871,-623,-297,-49,161,-305
11815,2709,0,2023-03-01T18:50:53.603646,1643123,1214,1949,-372,-871,-623,-297,-49,161,-305
11816,2710,0,2023-03-01T18:50:53.608490,1643127,1214,1949,-372,-871,-623,-297,-49,161,-305
11817,2711,0,2023-03-01T18:50:53.614720,1643134,1214,1949,-372,-871,-623,-297,-49,161,-305
11818,2712,0,2023-03-01T18:50:53.619581,1643139,1216,1948,-362,-871,-648,-297,-43,161,-313
11819,2713,0,2023-03-01T18:50:53.625554,1643145,1216,1948,-362,-871,-648,-297,-43,161,-313
11820,2714,0,2023-03-01T18:50:53.630517,1643150,1216,1948,-362,-871,-648,-297,-43,161,-313
11821,2715,0,2023-03-01T18:50:53.637011,1643156,1218,1954,-364,-858,-670,-288,-43,161,-313
11822,2716,0,2023-03-01T18:50:53.642385,1643162,1218,1954,-364,-858,-670,-288,-43,161,-313
11823,2717,0,2023-03-01T18:50:53.647429,1643166,1218,1954,-364,-858,-670,-288,-43,161,-313
11824,2718,0,2023-03-01T18:50:53.652345,1643171,1218,1954,-364,-858,-670,-288,-43,161,-313
11825,2719,0,2023-03-01T18:50:53.657019,1643176,1213,1942,-385,-821,-690,-265,-43,161,-313
11826,2720,0,2023-03-01T18:50:53.662900,1643183,1213,1942,-385,-821,-690,-265,-43,161,-313
11827,2721,0,2023-03-01T18:50:53.667655,1643187,1213,1942,-385,-821,-690,-265,-43,161,-313
11828,2722,0,2023-03-01T18:50:53.672981,1643193,1213,1942,-385,-821,-690,-265,-43,161,-313
11829,2723,0,2023-03-01T18:50:53.677956,1643197,1209,1953,-382,-812,-593,-202,-43,161,-313
11830,2724,0,2023-03-01T18:50:53.683909,1643203,1209,1953,-382,-812,-593,-202,-43,161,-313
11831,2725,0,2023-03-01T18:50:53.689275,1643208,1209,1953,-382,-812,-593,-202,-43,161,-313
11832,2726,0,2023-03-01T18:50:53.694684,1643214,1209,1953,-382,-812,-593,-202,-43,161,-313
11833,2727,0,2023-03-01T18:50:53.699399,1643218,1224,1943,-398,-974,-427,20,-43,161,-313
11834,2728,0,2023-03-01T18:50:53.705291,1643225,1224,1943,-398,-974,-427,20,-43,161,-313
11835,2729,0,2023-03-01T18:50:53.710184,1643230,1224,1943,-398,-974,-427,20,-43,161,-313
11836,2730,0,2023-03-01T18:50:53.716109,1643235,1225,1951,-373,-921,-484,-104,-43,161,-313
11837,2731,0,2023-03-01T18:50:53.722452,1643241,1225,1951,-373,-921,-484,-104,-43,161,-313
11838,2732,0,2023-03-01T18:50:53.728097,1643247,1225,1951,-373,-921,-484,-104,-43,161,-313
11839,2733,0,2023-03-01T18:50:53.733441,1643252,1225,1951,-373,-921,-484,-104,-43,161,-313
11840,2734,0,2023-03-01T18:50:53.738460,1643257,1223,1940,-385,-950,-508,-79,-43,161,-313
11841,2735,0,2023-03-01T18:50:53.744964,1643265,1223,1940,-385,-950,-508,-79,-43,161,-313
11842,2736,0,2023-03-01T18:50:53.750140,1643270,1223,1940,-385,-950,-508,-79,-43,161,-313
11843,2737,0,2023-03-01T18:50:53.755728,1643275,1226,1951,-375,-915,-593,-171,-46,162,-313
11844,2738,0,2023-03-01T18:50:53.761228,1643281,1226,1951,-375,-915,-593,-171,-46,162,-304
11845,2739,0,2023-03-01T18:50:53.766366,1643286,1226,1951,-375,-915,-593,-171,-46,162,-304
11846,2740,0,2023-03-01T18:50:53.771530,1643291,1226,1951,-375,-915,-593,-171,-46,162,-304
11847,2741,0,2023-03-01T18:50:53.777457,1643296,1223,1939,-375,-874,-656,-197,-46,162,-304
11848,2742,0,2023-03-01T18:50:53.783422,1643303,1223,1939,-375,-874,-656,-197,-46,162,-304
11849,2743,0,2023-03-01T18:50:53.788420,1643308,1223,1939,-375,-874,-656,-197,-46,162,-304
11850,2744,0,2023-03-01T18:50:53.794036,1643314,1223,1939,-375,-874,-656,-197,-46,162,-304
11851,2745,0,2023-03-01T18:50:53.798960,1643319,1233,1958,-378,-882,-612,-197,-46,162,-304
11852,2746,0,2023-03-01T18:50:53.805092,1643325,1233,1958,-378,-882,-612,-197,-46,162,-304
11853,2747,0,2023-03-01T18:50:53.810014,1643329,1233,1958,-378,-882,-612,-197,-46,162,-304
11854,2748,0,2023-03-01T18:50:53.815400,1643335,1233,1958,-378,-882,-612,-197,-46,162,-304
11855,2749,0,2023-03-01T18:50:53.820131,1643339,1224,1940,-399,-824,-689,-243,-46,162,-304
11856,2750,0,2023-03-01T18:50:53.827218,1643346,1224,1940,-399,-824,-689,-243,-46,162,-304
11857,2751,0,2023-03-01T18:50:53.832252,1643352,1224,1940,-399,-824,-689,-243,-46,162,-304
11858,2752,0,2023-03-01T18:50:53.838207,1643358,1225,1939,-376,-847,-708,-283,-46,162,-304
11859,2753,0,2023-03-01T18:50:53.844133,1643364,1225,1939,-376,-847,-708,-283,-46,162,-304
11860,2754,0,2023-03-01T18:50:53.849000,1643368,1225,1939,-376,-847,-708,-283,-46,162,-304
11861,2755,0,2023-03-01T18:50:53.854362,1643374,1225,1939,-376,-847,-708,-283,-46,162,-304
11862,2756,0,2023-03-01T18:50:53.859172,1643378,1225,1939,-393,-857,-720,-277,-46,162,-304
11863,2757,0,2023-03-01T18:50:53.865137,1643384,1225,1939,-393,-857,-720,-277,-46,162,-304
11864,2758,0,2023-03-01T18:50:53.869752,1643389,1225,1939,-393,-857,-720,-277,-46,162,-304
11865,2759,0,2023-03-01T18:50:53.875257,1643395,1225,1939,-393,-857,-720,-277,-46,162,-304
11866,2760,0,2023-03-01T18:50:53.880219,1643400,1227,1947,-392,-843,-708,-281,-46,152,-312
11867,2761,0,2023-03-01T18:50:53.885494,1643405,1227,1947,-392,-843,-708,-281,-46,152,-312
11868,2762,0,2023-03-01T18:50:53.890277,1643410,1227,1947,-392,-843,-708,-281,-46,152,-312
11869,2763,0,2023-03-01T18:50:53.895840,1643415,1227,1947,-392,-843,-708,-281,-46,152,-312
11870,2764,0,2023-03-01T18:50:53.900768,1643420,1231,1949,-384,-859,-695,-264,-46,152,-312
11871,2765,0,2023-03-01T18:50:53.906380,1643426,1231,1949,-384,-859,-695,-264,-46,152,-312
11872,2766,0,2023-03-01T18:50:53.911223,1643430,1231,1949,-384,-859,-695,-264,-46,152,-312
11873,2767,0,2023-03-01T18:50:53.916869,1643437,1228,1938,-394,-850,-691,-243,-46,152,-312
11874,2768,0,2023-03-01T18:50:53.922922,1643443,1228,1938,-394,-850,-691,-243,-46,152,-312
11875,2769,0,2023-03-01T18:50:53.928194,1643448,1228,1938,-394,-850,-691,-243,-46,152,-312
11876,2770,0,2023-03-01T18:50:53.933476,1643453,1228,1938,-394,-850,-691,-243,-46,152,-312
11877,2771,0,2023-03-01T18:50:53.938435,1643457,1224,1935,-374,-825,-676,-248,-46,152,-312
11878,2772,0,2023-03-01T18:50:53.945009,1643464,1224,1935,-374,-825,-676,-248,-46,152,-312
11879,2773,0,2023-03-01T18:50:53.949987,1643469,1224,1935,-374,-825,-676,-248,-46,152,-312
11880,2774,0,2023-03-01T18:50:53.955551,1643474,1224,1935,-374,-825,-676,-248,-46,152,-312
11881,2775,0,2023-03-01T18:50:53.960267,1643480,1228,1939,-393,-834,-707,-263,-46,152,-312
11882,2776,0,2023-03-01T18:50:53.966521,1643486,1228,1939,-393,-834,-707,-263,-46,152,-312
11883,2777,0,2023-03-01T18:50:53.972361,1643491,1228,1939,-393,-834,-707,-263,-46,152,-312
11884,2778,0,2023-03-01T18:50:53.977805,1643497,1228,1943,-395,-831,-708,-270,-46,152,-312
11885,2779,0,2023-03-01T18:50:53.983616,1643503,1228,1943,-395,-831,-708,-270,-46,152,-312
11886,2780,0,2023-03-01T18:50:53.988932,1643508,1228,1943,-395,-831,-708,-270,-46,152,-312
11887,2781,0,2023-03-01T18:50:53.995173,1643514,1228,1943,-395,-831,-708,-270,-46,152,-312
11888,2782,0,2023-03-01T18:50:54.000173,1643520,1229,1949,-394,-830,-704,-260,-52,164,-318
11889,2783,0,2023-03-01T18:50:54.005823,1643526,1229,1949,-394,-830,-704,-260,-52,164,-318
11890,2784,0,2023-03-01T18:50:54.010398,1643530,1229,1949,-394,-830,-704,-260,-52,164,-318
11891,2785,0,2023-03-01T18:50:54.015961,1643536,1228,1943,-405,-836,-699,-241,-52,164,-318
11892,2786,0,2023-03-01T18:50:54.021167,1643541,1228,1943,-405,-836,-699,-241,-52,164,-318
11893,2787,0,2023-03-01T18:50:54.026599,1643545,1228,1943,-405,-836,-699,-241,-52,164,-318
11894,2788,0,2023-03-01T18:50:54.031900,1643551,1228,1943,-405,-836,-699,-241,-52,164,-318
11895,2789,0,2023-03-01T18:50:54.038196,1643557,1227,1938,-391,-816,-674,-245,-52,164,-318
11896,2790,0,2023-03-01T18:50:54.044196,1643564,1227,1938,-391,-816,-674,-245,-52,164,-318
11897,2791,0,2023-03-01T18:50:54.049095,1643569,1227,1938,-391,-816,-674,-245,-52,164,-318
11898,2792,0,2023-03-01T18:50:54.054321,1643574,1227,1938,-391,-816,-674,-245,-52,164,-318
11899,2793,0,2023-03-01T18:50:54.059054,1643579,1232,1942,-400,-823,-694,-264,-52,164,-318
