,Unnamed: 0,imu,server_time,arduino_time,ax,ay,az,gx,gy,gz,mx,my,mz
11900,2794,0,2023-03-01T18:50:54.065125,1643584,1232,1942,-400,-823,-694,-264,-52,164,-318
11901,2795,0,2023-03-01T18:50:54.069696,1643589,1232,1942,-400,-823,-694,-264,-52,164,-318
11902,2796,0,2023-03-01T18:50:54.074605,1643594,1232,1942,-400,-823,-694,-264,-52,164,-318
11903,2797,0,2023-03-01T18:50:54.079694,1643599,1223,1940,-400,-841,-702,-276,-52,164,-318
11904,2798,0,2023-03-01T18:50:54.085663,1643606,1223,1940,-400,-841,-702,-276,-52,164,-318
11905,2799,0,2023-03-01T18:50:54.090512,1643611,1223,1940,-400,-841,-702,-276,-52,164,-318
11906,2800,0,2023-03-01T18:50:54.095859,1643615,1223,1940,-400,-841,-702,-276,-52,164,-318
11907,2801,0,2023-03-01T18:50:54.100508,1643620,1229,1941,-392,-838,-702,-268,-52,164,-318
11908,2802,0,2023-03-01T18:50:54.106491,1643626,1229,1941,-392,-838,-702,-268,-52,164,-318
11909,2803,0,2023-03-01T18:50:54.111305,1643630,1229,1941,-392,-838,-702,-268,-52,164,-318
11910,2804,0,2023-03-01T18:50:54.116899,1643636,1229,1942,-405,-867,-687,-251,-52,164,-318
11911,2805,0,2023-03-01T18:50:54.123858,1643643,1229,1942,-405,-867,-687,-251,-52,164,-318
11912,2806,0,2023-03-01T18:50:54.128915,1643649,1229,1942,-405,-867,-687,-251,-52,164,-318
11913,2807,0,2023-03-01T18:50:54.134617,1643654,1229,1942,-405,-867,-687,-251,-52,164,-318
11914,2808,0,2023-03-01T18:50:54.139431,1643659,1232,1944,-397,-954,-536,-112,-53,157,-319
11915,2809,0,2023-03-01T18:50:54.145224,1643665,1232,1944,-397,-954,-536,-112,-53,157,-319
11916,2810,0,2023-03-01T18:50:54.149901,1643669,1232,1944,-397,-954,-536,-112,-53,157,-319
11917,2811,0,2023-03-01T18:50:54.155169,1643674,1232,1944,-397,-954,-536,-112,-53,157,-319
11918,2812,0,2023-03-01T18:50:54.160650,1643679,1233,1945,-397,-954,-547,-119,-53,157,-319
11919,2813,0,2023-03-01T18:50:54.166858,1643686,1233,1945,-397,-954,-547,-119,-53,157,-319
11920,2814,0,2023-03-01T18:50:54.171671,1643692,1233,1945,-397,-954,-547,-119,-53,157,-319
11921,2815,0,2023-03-01T18:50:54.177268,1643697,1230,1938,-410,-947,-586,-137,-53,157,-319
11922,2816,0,2023-03-01T18:50:54.182903,1643703,1230,1938,-410,-947,-586,-137,-53,157,-319
11923,2817,0,2023-03-01T18:50:54.187734,1643707,1230,1938,-410,-947,-586,-137,-53,157,-319
11924,2818,0,2023-03-01T18:50:54.192472,1643712,1230,1938,-410,-947,-586,-137,-53,157,-319
11925,2819,0,2023-03-01T18:50:54.198132,1643717,1234,1940,-401,-983,-513,-73,-53,157,-319
11926,2820,0,2023-03-01T18:50:54.204210,1643723,1234,1940,-401,-983,-513,-73,-53,157,-319
11927,2821,0,2023-03-01T18:50:54.209271,1643728,1234,1940,-401,-983,-513,-73,-53,157,-319
11928,2822,0,2023-03-01T18:50:54.214708,1643735,1234,1940,-401,-983,-513,-73,-53,157,-319
11929,2823,0,2023-03-01T18:50:54.219566,1643739,1237,1936,-413,-982,-518,-68,-53,157,-319
11930,2824,0,2023-03-01T18:50:54.225842,1643745,1237,1936,-413,-982,-518,-68,-53,157,-319
11931,2825,0,2023-03-01T18:50:54.230913,1643750,1237,1936,-413,-982,-518,-68,-53,157,-319
11932,2826,0,2023-03-01T18:50:54.236415,1643756,1237,1939,-408,-973,-548,-99,-53,157,-319
11933,2827,0,2023-03-01T18:50:54.241608,1643761,1237,1939,-408,-973,-548,-99,-53,157,-319
11934,2828,0,2023-03-01T18:50:54.246540,1643766,1237,1939,-408,-973,-548,-99,-53,157,-319
11935,2829,0,2023-03-01T18:50:54.251472,1643771,1237,1939,-408,-973,-548,-99,-53,157,-319
11936,2830,0,2023-03-01T18:50:54.256698,1643777,1235,1937,-402,-959,-551,-110,-51,157,-309
11937,2831,0,2023-03-01T18:50:54.266154,1643786,1235,1937,-402,-959,-551,-110,-51,157,-309
11938,2832,0,2023-03-01T18:50:54.270822,1643791,1235,1937,-402,-959,-551,-110,-51,157,-309
11939,2833,0,2023-03-01T18:50:54.277004,1643796,1238,1936,-400,-937,-603,-152,-51,157,-309
11940,2834,0,2023-03-01T18:50:54.283118,1643802,1238,1936,-400,-937,-603,-152,-51,157,-309
11941,2835,0,2023-03-01T18:50:54.288180,1643807,1238,1936,-400,-937,-603,-152,-51,157,-309
11942,2836,0,2023-03-01T18:50:54.293619,1643813,1238,1936,-400,-937,-603,-152,-51,157,-309
11943,2837,0,2023-03-01T18:50:54.298550,1643817,1236,1943,-408,-906,-626,-191,-51,157,-309
11944,2838,0,2023-03-01T18:50:54.303121,1643823,1236,1943,-408,-906,-626,-191,-51,157,-309
11945,2839,0,2023-03-01T18:50:54.308044,1643828,1236,1943,-408,-906,-626,-191,-51,157,-309
11946,2840,0,2023-03-01T18:50:54.314029,1643833,1236,1943,-408,-906,-626,-191,-51,157,-309
11947,2841,0,2023-03-01T18:50:54.318795,1643838,1243,1938,-407,-947,-579,-129,-51,157,-309
11948,2842,0,2023-03-01T18:50:54.324976,1643844,1243,1938,-407,-947,-579,-129,-51,157,-309
11949,2843,0,2023-03-01T18:50:54.330197,1643849,1243,1938,-407,-947,-579,-129,-51,157,-309
11950,2844,0,2023-03-01T18:50:54.336106,1643855,1243,1938,-407,-947,-579,-129,-51,157,-309
11951,2845,0,2023-03-01T18:50:54.341399,1643860,1239,1939,-415,-933,-585,-147,-51,157,-309
11952,2846,0,2023-03-01T18:50:54.347630,1643868,1239,1939,-415,-933,-585,-147,-51,157,-309
11953,2847,0,2023-03-01T18:50:54.352291,1643872,1239,1939,-415,-933,-585,-147,-51,157,-309
11954,2848,0,2023-03-01T18:50:54.358081,1643877,1239,1937,-404,-901,-605,-173,-51,157,-309
11955,2849,0,2023-03-01T18:50:54.363838,1643883,1239,1937,-404,-901,-605,-173,-51,157,-309
11956,2850,0,2023-03-01T18:50:54.368501,1643888,1239,1937,-404,-901,-605,-173,-51,157,-309
11957,2851,0,2023-03-01T18:50:54.373567,1643893,1239,1937,-404,-901,-605,-173,-51,157,-309
11958,2852,0,2023-03-01T18:50:54.378445,1643898,1242,1935,-413,-898,-635,-190,-51,157,-309
11959,2853,0,2023-03-01T18:50:54.384533,1643905,1242,1935,-413,-898,-635,-190,-51,157,-309
11960,2854,0,2023-03-01T18:50:54.389226,1643909,1242,1935,-413,-898,-635,-190,-51,157,-309
11961,2855,0,2023-03-01T18:50:54.394468,1643914,1242,1935,-413,-898,-635,-190,-51,157,-309
11962,2856,0,2023-03-01T18:50:54.399663,1643919,1239,1936,-405,-910,-592,-161,-58,156,-308
11963,2857,0,2023-03-01T18:50:54.405628,1643925,1239,1936,-405,-910,-592,-161,-58,156,-308
11964,2858,0,2023-03-01T18:50:54.410477,1643930,1239,1936,-405,-910,-592,-161,-58,156,-308
11965,2859,0,2023-03-01T18:50:54.416415,1643935,1239,1936,-405,-910,-592,-161,-58,156,-308
11966,2860,0,2023-03-01T18:50:54.421169,1643940,1244,1937,-401,-922,-606,-162,-58,156,-308
11967,2861,0,2023-03-01T18:50:54.427202,1643947,1244,1937,-401,-922,-606,-162,-58,156,-308
11968,2862,0,2023-03-01T18:50:54.431891,1643952,1244,1937,-401,-922,-606,-162,-58,156,-308
11969,2863,0,2023-03-01T18:50:54.437330,1643957,1243,1931,-413,-921,-605,-157,-58,156,-308
11970,2864,0,2023-03-01T18:50:54.442067,1643962,1243,1931,-413,-921,-605,-157,-58,156,-308
11971,2865,0,2023-03-01T18:50:54.446946,1643966,1243,1931,-413,-921,-605,-157,-58,156,-308
11972,2866,0,2023-03-01T18:50:54.451866,1643971,1243,1931,-413,-921,-605,-157,-58,156,-308
11973,2867,0,2023-03-01T18:50:54.457280,1643977,1245,1932,-406,-881,-624,-195,-58,156,-308
11974,2868,0,2023-03-01T18:50:54.463169,1643982,1245,1932,-406,-881,-624,-195,-58,156,-308
11975,2869,0,2023-03-01T18:50:54.468302,1643987,1245,1932,-406,-881,-624,-195,-58,156,-308
11976,2870,0,2023-03-01T18:50:54.474229,1643994,1245,1932,-406,-881,-624,-195,-58,156,-308
11977,2871,0,2023-03-01T18:50:54.478977,1643999,1245,1931,-413,-874,-656,-216,-58,156,-308
11978,2872,0,2023-03-01T18:50:54.484624,1644004,1245,1931,-413,-874,-656,-216,-58,156,-308
11979,2873,0,2023-03-01T18:50:54.489433,1644009,1245,1931,-413,-874,-656,-216,-58,156,-308
11980,2874,0,2023-03-01T18:50:54.494694,1644014,1245,1931,-413,-874,-656,-216,-58,156,-308
11981,2875,0,2023-03-01T18:50:54.499503,1644019,1244,1932,-414,-887,-652,-207,-58,156,-308
11982,2876,0,2023-03-01T18:50:54.505473,1644024,1244,1932,-414,-887,-652,-207,-58,156,-308
11983,2877,0,2023-03-01T18:50:54.510166,1644029,1244,1932,-414,-887,-652,-207,-58,156,-308
11984,2878,0,2023-03-01T18:50:54.515341,1644035,1244,1932,-414,-887,-652,-207,-58,156,-308
11985,2879,0,2023-03-01T18:50:54.520297,1644040,1248,1932,-408,-887,-637,-189,-52,160,-312
11986,2880,0,2023-03-01T18:50:54.526000,1644046,1248,1932,-408,-887,-637,-189,-52,160,-312
11987,2881,0,2023-03-01T18:50:54.530529,1644050,1248,1932,-408,-887,-637,-189,-52,160,-312
11988,2882,0,2023-03-01T18:50:54.536197,1644055,1248,1932,-408,-887,-637,-189,-52,160,-312
11989,2883,0,2023-03-01T18:50:54.541251,1644060,1246,1930,-426,-911,-619,-164,-52,160,-312
11990,2884,0,2023-03-01T18:50:54.547181,1644066,1246,1930,-426,-911,-619,-164,-52,160,-312
11991,2885,0,2023-03-01T18:50:54.551965,1644071,1246,1930,-426,-911,-619,-164,-52,160,-312
11992,2886,0,2023-03-01T18:50:54.557624,1644077,1247,1934,-409,-926,-579,-153,-52,160,-312
11993,2887,0,2023-03-01T18:50:54.563794,1644083,1247,1934,-409,-926,-579,-153,-52,160,-312
11994,2888,0,2023-03-01T18:50:54.568517,1644088,1247,1934,-409,-926,-579,-153,-52,160,-312
11995,2889,0,2023-03-01T18:50:54.573355,1644093,1247,1934,-409,-926,-579,-153,-52,160,-312
11996,2890,0,2023-03-01T18:50:54.578245,1644098,1250,1933,-416,-932,-590,-147,-52,160,-312
11997,2891,0,2023-03-01T18:50:54.584694,1644104,1250,1933,-416,-932,-590,-147,-52,160,-312
11998,2892,0,2023-03-01T18:50:54.589823,1644109,1250,1933,-416,-932,-590,-147,-52,160,-312
11999,2893,0,2023-03-01T18:50:54.596071,1644115,1250,1933,-416,-932,-590,-147,-52,160,-312
12000,2894,0,2023-03-01T18:50:54.600963,1644121,1249,1932,-413,-903,-609,-163,-52,160,-312
12001,2895,0,2023-03-01T18:50:54.606790,1644127,1249,1932,-413,-903,-609,-163,-52,160,-312
12002,2896,0,2023-03-01T18:50:54.611528,1644131,1249,1932,-413,-903,-609,-163,-52,160,-312
12003,2897,0,2023-03-01T18:50:54.617264,1644137,1244,1924,-411,-842,-683,-225,-52,160,-312
12004,2898,0,2023-03-01T18:50:54.624385,1644144,1244,1924,-411,-842,-683,-225,-52,160,-312
12005,2899,0,2023-03-01T18:50:54.629701,1644149,1244,1924,-411,-842,-683,-225,-52,160,-312
12006,2900,0,2023-03-01T18:50:54.635089,1644154,1244,1924,-411,-842,-683,-225,-52,160,-312
12007,2901,0,2023-03-01T18:50:54.640273,1644160,1254,1927,-418,-847,-723,-268,-52,160,-312
12008,2902,0,2023-03-01T18:50:54.646718,1644166,1254,1927,-418,-847,-723,-268,-52,160,-312
12009,2903,0,2023-03-01T18:50:54.651711,1644171,1254,1927,-418,-847,-723,-268,-52,160,-312
12010,2904,0,2023-03-01T18:50:54.657036,1644177,1252,1933,-415,-882,-728,-263,-52,160,-312
12011,2905,0,2023-03-01T18:50:54.664193,1644183,1252,1933,-415,-882,-728,-263,-48,158,-304
12012,2906,0,2023-03-01T18:50:54.668900,1644188,1252,1933,-415,-882,-728,-263,-48,158,-304
12013,2907,0,2023-03-01T18:50:54.676096,1644195,1252,1933,-415,-882,-728,-263,-48,158,-304
12014,2908,0,2023-03-01T18:50:54.681023,1644200,1244,1925,-429,-912,-698,-205,-48,158,-304
12015,2909,0,2023-03-01T18:50:54.687288,1644207,1244,1925,-429,-912,-698,-205,-48,158,-304
12016,2910,0,2023-03-01T18:50:54.692135,1644212,1244,1925,-429,-912,-698,-205,-48,158,-304
12017,2911,0,2023-03-01T18:50:54.697687,1644217,1253,1929,-411,-994,-543,-69,-48,158,-304
12018,2912,0,2023-03-01T18:50:54.703004,1644223,1253,1929,-411,-994,-543,-69,-48,158,-304
12019,2913,0,2023-03-01T18:50:54.707822,1644227,1253,1929,-411,-994,-543,-69,-48,158,-304
12020,2914,0,2023-03-01T18:50:54.712639,1644232,1253,1929,-411,-994,-543,-69,-48,158,-304
12021,2915,0,2023-03-01T18:50:54.717839,1644237,1250,1921,-427,-959,-632,-126,-48,158,-304
12022,2916,0,2023-03-01T18:50:54.723390,1644242,1250,1921,-427,-959,-632,-126,-48,158,-304
12023,2917,0,2023-03-01T18:50:54.728506,1644248,1250,1921,-427,-959,-632,-126,-48,158,-304
12024,2918,0,2023-03-01T18:50:54.734239,1644254,1250,1921,-427,-959,-632,-126,-48,158,-304
12025,2919,0,2023-03-01T18:50:54.739270,1644259,1256,1929,-419,-943,-645,-176,-48,158,-304
12026,2920,0,2023-03-01T18:50:54.745976,1644265,1256,1929,-419,-943,-645,-176,-48,158,-304
12027,2921,0,2023-03-01T18:50:54.751113,1644270,1256,1929,-419,-943,-645,-176,-48,158,-304
12028,2922,0,2023-03-01T18:50:54.756578,1644276,1256,1929,-419,-943,-645,-176,-48,158,-304
12029,2923,0,2023-03-01T18:50:54.761275,1644280,1251,1924,-423,-911,-670,-196,-48,158,-304
12030,2924,0,2023-03-01T18:50:54.767264,1644286,1251,1924,-423,-911,-670,-196,-48,158,-304
12031,2925,0,2023-03-01T18:50:54.772335,1644292,1251,1924,-423,-911,-670,-196,-48,158,-304
12032,2926,0,2023-03-01T18:50:54.777611,1644297,1258,1928,-418,-906,-692,-209,-46,162,-316
12033,2927,0,2023-03-01T18:50:54.783392,1644303,1258,1928,-418,-906,-692,-209,-46,162,-316
12034,2928,0,2023-03-01T18:50:54.788402,1644308,1258,1928,-418,-906,-692,-209,-46,162,-316
12035,2929,0,2023-03-01T18:50:54.793768,1644313,1258,1928,-418,-906,-692,-209,-46,162,-316
12036,2930,0,2023-03-01T18:50:54.798564,1644318,1254,1929,-427,-886,-713,-214,-46,162,-316
12037,2931,0,2023-03-01T18:50:54.804929,1644324,1254,1929,-427,-886,-713,-214,-46,162,-316
12038,2932,0,2023-03-01T18:50:54.809882,1644329,1254,1929,-427,-886,-713,-214,-46,162,-316
12039,2933,0,2023-03-01T18:50:54.815653,1644335,1254,1929,-427,-886,-713,-214,-46,162,-316
12040,2934,0,2023-03-01T18:50:54.820306,1644340,1255,1921,-418,-842,-762,-238,-46,162,-316
12041,2935,0,2023-03-01T18:50:54.826448,1644346,1255,1921,-418,-842,-762,-238,-46,162,-316
12042,2936,0,2023-03-01T18:50:54.831884,1644351,1255,1921,-418,-842,-762,-238,-46,162,-316
12043,2937,0,2023-03-01T18:50:54.837736,1644357,1254,1935,-445,-884,-806,-258,-46,162,-316
12044,2938,0,2023-03-01T18:50:54.844420,1644363,1254,1935,-445,-884,-806,-258,-46,162,-316
12045,2939,0,2023-03-01T18:50:54.849153,1644368,1254,1935,-445,-884,-806,-258,-46,162,-316
12046,2940,0,2023-03-01T18:50:54.854635,1644375,1254,1935,-445,-884,-806,-258,-46,162,-316
12047,2941,0,2023-03-01T18:50:54.859991,1644379,1262,1929,-421,-862,-781,-269,-46,162,-316
12048,2942,0,2023-03-01T18:50:54.866315,1644386,1262,1929,-421,-862,-781,-269,-46,162,-316
12049,2943,0,2023-03-01T18:50:54.871098,1644391,1262,1929,-421,-862,-781,-269,-46,162,-316
12050,2944,0,2023-03-01T18:50:54.876401,1644396,1262,1929,-421,-862,-781,-269,-46,162,-316
12051,2945,0,2023-03-01T18:50:54.881474,1644400,1248,1921,-438,-916,-832,-271,-46,162,-316
12052,2946,0,2023-03-01T18:50:54.887765,1644407,1248,1921,-438,-916,-832,-271,-46,162,-316
12053,2947,0,2023-03-01T18:50:54.892755,1644411,1248,1921,-438,-916,-832,-271,-46,162,-316
12054,2948,0,2023-03-01T18:50:54.898940,1644419,1262,1930,-413,-912,-786,-272,-53,157,-309
12055,2949,0,2023-03-01T18:50:54.904948,1644425,1262,1930,-413,-912,-786,-272,-53,157,-309
12056,2950,0,2023-03-01T18:50:54.909935,1644429,1262,1930,-413,-912,-786,-272,-53,157,-309
12057,2951,0,2023-03-01T18:50:54.915593,1644435,1262,1930,-413,-912,-786,-272,-53,157,-309
12058,2952,0,2023-03-01T18:50:54.920479,1644440,1252,1923,-432,-886,-829,-268,-53,157,-309
12059,2953,0,2023-03-01T18:50:54.926894,1644446,1252,1923,-432,-886,-829,-268,-53,157,-309
12060,2954,0,2023-03-01T18:50:54.931765,1644451,1252,1923,-432,-886,-829,-268,-53,157,-309
12061,2955,0,2023-03-01T18:50:54.937240,1644456,1262,1934,-425,-911,-784,-250,-53,157,-309
12062,2956,0,2023-03-01T18:50:54.942511,1644463,1262,1934,-425,-911,-784,-250,-53,157,-309
12063,2957,0,2023-03-01T18:50:54.947552,1644467,1262,1934,-425,-911,-784,-250,-53,157,-309
12064,2958,0,2023-03-01T18:50:54.952565,1644472,1262,1934,-425,-911,-784,-250,-53,157,-309
12065,2959,0,2023-03-01T18:50:54.957968,1644478,1254,1916,-457,-918,-760,-188,-53,157,-309
12066,2960,0,2023-03-01T18:50:54.964054,1644484,1254,1916,-457,-918,-760,-188,-53,157,-309
12067,2961,0,2023-03-01T18:50:54.969462,1644488,1254,1916,-457,-918,-760,-188,-53,157,-309
12068,2962,0,2023-03-01T18:50:54.974907,1644494,1254,1916,-457,-918,-760,-188,-53,157,-309
12069,2963,0,2023-03-01T18:50:54.979833,1644499,1264,1931,-427,-982,-644,-152,-53,157,-309
12070,2964,0,2023-03-01T18:50:54.986365,1644506,1264,1931,-427,-982,-644,-152,-53,157,-309
12071,2965,0,2023-03-01T18:50:54.991736,1644511,1264,1931,-427,-982,-644,-152,-53,157,-309
12072,2966,0,2023-03-01T18:50:54.997701,1644517,1257,1917,-445,-947,-738,-192,-53,157,-309
12073,2967,0,2023-03-01T18:50:55.003879,1644523,1257,1917,-445,-947,-738,-192,-53,157,-309
12074,2968,0,2023-03-01T18:50:55.008683,1644528,1257,1917,-445,-947,-738,-192,-53,157,-309
12075,2969,0,2023-03-01T18:50:55.014228,1644533,1257,1917,-445,-947,-738,-192,-53,157,-309
12076,2970,0,2023-03-01T18:50:55.019126,1644538,1263,1933,-432,-911,-756,-252,-53,157,-309
12077,2971,0,2023-03-01T18:50:55.025307,1644545,1263,1933,-432,-911,-756,-252,-53,157,-309
12078,2972,0,2023-03-01T18:50:55.030893,1644550,1263,1933,-432,-911,-756,-252,-53,157,-309
12079,2973,0,2023-03-01T18:50:55.036934,1644557,1263,1933,-432,-911,-756,-252,-53,157,-309
12080,2974,0,2023-03-01T18:50:55.041662,1644561,1262,1921,-437,-903,-821,-245,-50,158,-310
12081,2975,0,2023-03-01T18:50:55.047407,1644567,1262,1921,-437,-903,-821,-245,-50,158,-310
12082,2976,0,2023-03-01T18:50:55.052806,1644572,1262,1921,-437,-903,-821,-245,-50,158,-310
12083,2977,0,2023-03-01T18:50:55.058160,1644577,1263,1925,-428,-927,-843,-272,-50,158,-310
12084,2978,0,2023-03-01T18:50:55.064063,1644583,1263,1925,-428,-927,-843,-272,-50,158,-310
12085,2979,0,2023-03-01T18:50:55.069288,1644589,1263,1925,-428,-927,-843,-272,-50,158,-310
12086,2980,0,2023-03-01T18:50:55.075050,1644595,1263,1925,-428,-927,-843,-272,-50,158,-310
12087,2981,0,2023-03-01T18:50:55.079722,1644599,1263,1921,-444,-948,-884,-261,-50,158,-310
12088,2982,0,2023-03-01T18:50:55.085490,1644605,1263,1921,-444,-948,-884,-261,-50,158,-310
12089,2983,0,2023-03-01T18:50:55.090084,1644610,1263,1921,-444,-948,-884,-261,-50,158,-310
12090,2984,0,2023-03-01T18:50:55.095302,1644615,1263,1921,-444,-948,-884,-261,-50,158,-310
12091,2985,0,2023-03-01T18:50:55.100005,1644619,1264,1925,-446,-969,-912,-263,-50,158,-310
12092,2986,0,2023-03-01T18:50:55.105503,1644625,1264,1925,-446,-969,-912,-263,-50,158,-310
12093,2987,0,2023-03-01T18:50:55.110930,1644631,1264,1925,-446,-969,-912,-263,-50,158,-310
12094,2988,0,2023-03-01T18:50:55.116905,1644637,1264,1925,-446,-969,-912,-263,-50,158,-310
12095,2989,0,2023-03-01T18:50:55.121475,1644641,1257,1913,-450,-998,-931,-252,-50,158,-310
12096,2990,0,2023-03-01T18:50:55.126599,1644646,1257,1913,-450,-998,-931,-252,-50,158,-310
12097,2991,0,2023-03-01T18:50:55.131311,1644651,1257,1913,-450,-998,-931,-252,-50,158,-310
12098,2992,0,2023-03-01T18:50:55.137321,1644656,1257,1913,-450,-998,-931,-252,-50,158,-310
12099,2993,0,2023-03-01T18:50:55.142599,1644661,1261,1921,-454,-1116,-821,-273,-50,158,-310
12100,2994,0,2023-03-01T18:50:55.147272,1644666,1261,1921,-454,-1116,-821,-273,-50,158,-310
12101,2995,0,2023-03-01T18:50:55.151931,1644672,1261,1921,-454,-1116,-821,-273,-50,158,-310
12102,2996,0,2023-03-01T18:50:55.157461,1644677,1261,1921,-454,-1116,-821,-273,-50,158,-310
12103,2997,0,2023-03-01T18:50:55.163379,1644683,1270,1951,-420,-1066,-843,-280,-53,151,-315
12104,2998,0,2023-03-01T18:50:55.169104,1644689,1270,1951,-420,-1066,-843,-280,-53,151,-315
12105,2999,0,2023-03-01T18:50:55.174588,1644694,1270,1951,-420,-1066,-843,-280,-53,151,-315
12106,3000,0,2023-03-01T18:50:55.179443,1644699,1261,1919,-462,-1062,-873,-248,-53,151,-315
12107,3001,0,2023-03-01T18:50:55.185450,1644705,1261,1919,-462,-1062,-873,-248,-53,151,-315
12108,3002,0,2023-03-01T18:50:55.190218,1644709,1261,1919,-462,-1062,-873,-248,-53,151,-315
12109,3003,0,2023-03-01T18:50:55.195925,1644716,1261,1919,-462,-1062,-873,-248,-53,151,-315
12110,3004,0,2023-03-01T18:50:55.201129,1644721,1269,1937,-427,-1136,-751,-306,-53,151,-315
12111,3005,0,2023-03-01T18:50:55.206921,1644727,1269,1937,-427,-1136,-751,-306,-53,151,-315
12112,3006,0,2023-03-01T18:50:55.211735,1644731,1269,1937,-427,-1136,-751,-306,-53,151,-315
12113,3007,0,2023-03-01T18:50:55.217125,1644736,1269,1937,-427,-1136,-751,-306,-53,151,-315
12114,3008,0,2023-03-01T18:50:55.222552,1644741,1252,1890,-453,-1049,-860,-241,-53,151,-315
12115,3009,0,2023-03-01T18:50:55.228486,1644748,1252,1890,-453,-1049,-860,-241,-53,151,-315
12116,3010,0,2023-03-01T18:50:55.234064,1644753,1252,1890,-453,-1049,-860,-241,-53,151,-315
12117,3011,0,2023-03-01T18:50:55.239263,1644759,1269,1947,-436,-1070,-769,-323,-53,151,-315
12118,3012,0,2023-03-01T18:50:55.244566,1644764,1269,1947,-436,-1070,-769,-323,-53,151,-315
12119,3013,0,2023-03-01T18:50:55.249441,1644769,1269,1947,-436,-1070,-769,-323,-53,151,-315
12120,3014,0,2023-03-01T18:50:55.254806,1644774,1269,1947,-436,-1070,-769,-323,-53,151,-315
12121,3015,0,2023-03-01T18:50:55.259522,1644779,1256,1907,-470,-1021,-896,-227,-53,151,-315
12122,3016,0,2023-03-01T18:50:55.265643,1644785,1256,1907,-470,-1021,-896,-227,-53,151,-315
12123,3017,0,2023-03-01T18:50:55.270613,1644790,1256,1907,-470,-1021,-896,-227,-53,151,-315
12124,3018,0,2023-03-01T18:50:55.276191,1644795,1256,1907,-470,-1021,-896,-227,-53,151,-315
12125,3019,0,2023-03-01T18:50:55.281447,1644801,1266,1928,-432,-1106,-736,-312,-53,151,-315
12126,3020,0,2023-03-01T18:50:55.287481,1644807,1266,1928,-432,-1106,-736,-312,-53,151,-315
12127,3021,0,2023-03-01T18:50:55.292378,1644812,1266,1928,-432,-1106,-736,-312,-53,151,-315
12128,3022,0,2023-03-01T18:50:55.297624,1644817,1260,1920,-447,-1054,-869,-258,-53,151,-315
12129,3023,0,2023-03-01T18:50:55.303537,1644823,1260,1920,-447,-1054,-869,-258,-47,161,-321
12130,3024,0,2023-03-01T18:50:55.308503,1644828,1260,1920,-447,-1054,-869,-258,-47,161,-321
12131,3025,0,2023-03-01T18:50:55.314203,1644833,1260,1920,-447,-1054,-869,-258,-47,161,-321
12132,3026,0,2023-03-01T18:50:55.319220,1644838,1268,1929,-463,-1096,-827,-282,-47,161,-321
12133,3027,0,2023-03-01T18:50:55.325233,1644845,1268,1929,-463,-1096,-827,-282,-47,161,-321
12134,3028,0,2023-03-01T18:50:55.329771,1644850,1268,1929,-463,-1096,-827,-282,-47,161,-321
12135,3029,0,2023-03-01T18:50:55.335615,1644855,1268,1929,-463,-1096,-827,-282,-47,161,-321
12136,3030,0,2023-03-01T18:50:55.340556,1644860,1265,1947,-430,-1115,-803,-302,-47,161,-321
12137,3031,0,2023-03-01T18:50:55.347619,1644867,1265,1947,-430,-1115,-803,-302,-47,161,-321
12138,3032,0,2023-03-01T18:50:55.352324,1644872,1265,1947,-430,-1115,-803,-302,-47,161,-321
12139,3033,0,2023-03-01T18:50:55.357967,1644877,1259,1909,-457,-1092,-825,-257,-47,161,-321
12140,3034,0,2023-03-01T18:50:55.364448,1644883,1259,1909,-457,-1092,-825,-257,-47,161,-321
12141,3035,0,2023-03-01T18:50:55.369449,1644889,1259,1909,-457,-1092,-825,-257,-47,161,-321
12142,3036,0,2023-03-01T18:50:55.374885,1644894,1259,1909,-457,-1092,-825,-257,-47,161,-321
12143,3037,0,2023-03-01T18:50:55.379900,1644899,1261,1931,-435,-1139,-736,-318,-47,161,-321
12144,3038,0,2023-03-01T18:50:55.386224,1644906,1261,1931,-435,-1139,-736,-318,-47,161,-321
12145,3039,0,2023-03-01T18:50:55.390875,1644910,1261,1931,-435,-1139,-736,-318,-47,161,-321
12146,3040,0,2023-03-01T18:50:55.396222,1644916,1261,1931,-435,-1139,-736,-318,-47,161,-321
12147,3041,0,2023-03-01T18:50:55.401048,1644920,1256,1913,-461,-1113,-791,-260,-47,161,-321
12148,3042,0,2023-03-01T18:50:55.407254,1644926,1256,1913,-461,-1113,-791,-260,-47,161,-321
12149,3043,0,2023-03-01T18:50:55.412423,1644932,1256,1913,-461,-1113,-791,-260,-47,161,-321
12150,3044,0,2023-03-01T18:50:55.418228,1644938,1265,1928,-447,-1132,-752,-307,-50,152,-314
12151,3045,0,2023-03-01T18:50:55.424430,1644944,1265,1928,-447,-1132,-752,-307,-50,152,-314
12152,3046,0,2023-03-01T18:50:55.429212,1644949,1265,1928,-447,-1132,-752,-307,-50,152,-314
12153,3047,0,2023-03-01T18:50:55.434576,1644954,1265,1928,-447,-1132,-752,-307,-50,152,-314
12154,3048,0,2023-03-01T18:50:55.439544,1644959,1266,1925,-450,-1106,-811,-277,-50,152,-314
12155,3049,0,2023-03-01T18:50:55.446824,1644966,1266,1925,-450,-1106,-811,-277,-50,152,-314
12156,3050,0,2023-03-01T18:50:55.451848,1644972,1266,1925,-450,-1106,-811,-277,-50,152,-314
12157,3051,0,2023-03-01T18:50:55.456534,1644976,1266,1925,-450,-1106,-811,-277,-50,152,-314
12158,3052,0,2023-03-01T18:50:55.461190,1644981,1268,1929,-453,-1133,-796,-292,-50,152,-314
12159,3053,0,2023-03-01T18:50:55.467185,1644987,1268,1929,-453,-1133,-796,-292,-50,152,-314
12160,3054,0,2023-03-01T18:50:55.472292,1644992,1268,1929,-453,-1133,-796,-292,-50,152,-314
12161,3055,0,2023-03-01T18:50:55.477265,1644997,1268,1929,-453,-1133,-796,-292,-50,152,-314
12162,3056,0,2023-03-01T18:50:55.482442,1645001,1265,1929,-449,-1157,-780,-292,-50,152,-314
12163,3057,0,2023-03-01T18:50:55.488327,1645008,1265,1929,-449,-1157,-780,-292,-50,152,-314
12164,3058,0,2023-03-01T18:50:55.493828,1645014,1265,1929,-449,-1157,-780,-292,-50,152,-314
12165,3059,0,2023-03-01T18:50:55.498729,1645018,1260,1918,-445,-1129,-796,-281,-50,152,-314
12166,3060,0,2023-03-01T18:50:55.504738,1645024,1260,1918,-445,-1129,-796,-281,-50,152,-314
12167,3061,0,2023-03-01T18:50:55.509762,1645029,1260,1918,-445,-1129,-796,-281,-50,152,-314
12168,3062,0,2023-03-01T18:50:55.514774,1645035,1260,1918,-445,-1129,-796,-281,-50,152,-314
12169,3063,0,2023-03-01T18:50:55.520232,1645039,1260,1918,-453,-1130,-801,-297,-50,152,-314
12170,3064,0,2023-03-01T18:50:55.525955,1645045,1260,1918,-453,-1130,-801,-297,-50,152,-314
12171,3065,0,2023-03-01T18:50:55.530741,1645050,1260,1918,-453,-1130,-801,-297,-50,152,-314
12172,3066,0,2023-03-01T18:50:55.536485,1645056,1260,1918,-453,-1130,-801,-297,-50,152,-314
12173,3067,0,2023-03-01T18:50:55.541137,1645061,1271,1928,-453,-1140,-784,-290,-55,149,-311
12174,3068,0,2023-03-01T18:50:55.546358,1645066,1271,1928,-453,-1140,-784,-290,-55,149,-311
12175,3069,0,2023-03-01T18:50:55.551052,1645071,1271,1928,-453,-1140,-784,-290,-55,149,-311
12176,3070,0,2023-03-01T18:50:55.558923,1645078,1263,1919,-458,-1115,-807,-281,-55,149,-311
12177,3071,0,2023-03-01T18:50:55.565121,1645084,1263,1919,-458,-1115,-807,-281,-55,149,-311
12178,3072,0,2023-03-01T18:50:55.570150,1645089,1263,1919,-458,-1115,-807,-281,-55,149,-311
12179,3073,0,2023-03-01T18:50:55.575625,1645095,1263,1919,-458,-1115,-807,-281,-55,149,-311
12180,3074,0,2023-03-01T18:50:55.580636,1645101,1260,1918,-448,-1157,-765,-300,-55,149,-311
12181,3075,0,2023-03-01T18:50:55.586249,1645106,1260,1918,-448,-1157,-765,-300,-55,149,-311
12182,3076,0,2023-03-01T18:50:55.591398,1645111,1260,1918,-448,-1157,-765,-300,-55,149,-311
12183,3077,0,2023-03-01T18:50:55.596891,1645116,1260,1918,-448,-1157,-765,-300,-55,149,-311
12184,3078,0,2023-03-01T18:50:55.601661,1645121,1260,1913,-458,-1178,-781,-291,-55,149,-311
12185,3079,0,2023-03-01T18:50:55.608112,1645127,1260,1913,-458,-1178,-781,-291,-55,149,-311
12186,3080,0,2023-03-01T18:50:55.614171,1645133,1260,1913,-458,-1178,-781,-291,-55,149,-311
12187,3081,0,2023-03-01T18:50:55.619845,1645139,1266,1923,-457,-1171,-777,-302,-55,149,-311
12188,3082,0,2023-03-01T18:50:55.625446,1645145,1266,1923,-457,-1171,-777,-302,-55,149,-311
12189,3083,0,2023-03-01T18:50:55.630304,1645150,1266,1923,-457,-1171,-777,-302,-55,149,-311
12190,3084,0,2023-03-01T18:50:55.635960,1645155,1266,1923,-457,-1171,-777,-302,-55,149,-311
12191,3085,0,2023-03-01T18:50:55.640825,1645160,1267,1918,-452,-1151,-783,-285,-55,149,-311
12192,3086,0,2023-03-01T18:50:55.647080,1645166,1267,1918,-452,-1151,-783,-285,-55,149,-311
12193,3087,0,2023-03-01T18:50:55.651653,1645171,1267,1918,-452,-1151,-783,-285,-55,149,-311
12194,3088,0,2023-03-01T18:50:55.657125,1645176,1267,1918,-452,-1151,-783,-285,-55,149,-311
12195,3089,0,2023-03-01T18:50:55.662291,1645181,1259,1919,-454,-1154,-789,-301,-55,149,-311
12196,3090,0,2023-03-01T18:50:55.669258,1645189,1259,1919,-454,-1154,-789,-301,-55,149,-311
12197,3091,0,2023-03-01T18:50:55.674506,1645194,1259,1919,-454,-1154,-789,-301,-55,149,-311
12198,3092,0,2023-03-01T18:50:55.680254,1645200,1261,1917,-445,-1145,-776,-298,-47,161,-323
12199,3093,0,2023-03-01T18:50:55.685651,1645205,1261,1917,-445,-1145,-776,-298,-47,161,-323
12200,3094,0,2023-03-01T18:50:55.690545,1645210,1261,1917,-445,-1145,-776,-298,-47,161,-323
12201,3095,0,2023-03-01T18:50:55.697322,1645216,1261,1917,-445,-1145,-776,-298,-47,161,-323
12202,3096,0,2023-03-01T18:50:55.702254,1645221,1265,1921,-453,-1145,-777,-287,-47,161,-323
12203,3097,0,2023-03-01T18:50:55.708505,1645228,1265,1921,-453,-1145,-777,-287,-47,161,-323
12204,3098,0,2023-03-01T18:50:55.714616,1645235,1265,1921,-453,-1145,-777,-287,-47,161,-323
12205,3099,0,2023-03-01T18:50:55.719485,1645239,1265,1929,-448,-1141,-773,-300,-47,161,-323
12206,3100,0,2023-03-01T18:50:55.725303,1645245,1265,1929,-448,-1141,-773,-300,-47,161,-323
12207,3101,0,2023-03-01T18:50:55.730281,1645250,1265,1929,-448,-1141,-773,-300,-47,161,-323
12208,3102,0,2023-03-01T18:50:55.735533,1645255,1265,1929,-448,-1141,-773,-300,-47,161,-323
12209,3103,0,2023-03-01T18:50:55.740373,1645260,1267,1918,-464,-1141,-804,-279,-47,161,-323
12210,3104,0,2023-03-01T18:50:55.746187,1645265,1267,1918,-464,-1141,-804,-279,-47,161,-323
12211,3105,0,2023-03-01T18:50:55.751045,1645271,1267,1918,-464,-1141,-804,-279,-47,161,-323
12212,3106,0,2023-03-01T18:50:55.756534,1645276,1267,1918,-464,-1141,-804,-279,-47,161,-323
12213,3107,0,2023-03-01T18:50:55.761377,1645281,1264,1925,-451,-1159,-769,-306,-47,161,-323
12214,3108,0,2023-03-01T18:50:55.767119,1645287,1264,1925,-451,-1159,-769,-306,-47,161,-323
12215,3109,0,2023-03-01T18:50:55.772456,1645291,1264,1925,-451,-1159,-769,-306,-47,161,-323
12216,3110,0,2023-03-01T18:50:55.778497,1645298,1260,1919,-456,-1152,-769,-287,-47,161,-323
12217,3111,0,2023-03-01T18:50:55.784776,1645304,1260,1919,-456,-1152,-769,-287,-47,161,-323
12218,3112,0,2023-03-01T18:50:55.789703,1645309,1260,1919,-456,-1152,-769,-287,-47,161,-323
12219,3113,0,2023-03-01T18:50:55.795249,1645315,1260,1919,-456,-1152,-769,-287,-47,161,-323
12220,3114,0,2023-03-01T18:50:55.800228,1645320,1264,1925,-451,-1160,-768,-310,-48,160,-308
12221,3115,0,2023-03-01T18:50:55.805660,1645325,1264,1925,-451,-1160,-768,-310,-48,160,-308
12222,3116,0,2023-03-01T18:50:55.810651,1645330,1264,1925,-451,-1160,-768,-310,-48,160,-308
12223,3117,0,2023-03-01T18:50:55.815183,1645335,1264,1925,-451,-1160,-768,-310,-48,160,-308
12224,3118,0,2023-03-01T18:50:55.820040,1645339,1268,1924,-452,-1161,-780,-295,-48,160,-308
12225,3119,0,2023-03-01T18:50:55.826114,1645345,1268,1924,-452,-1161,-780,-295,-48,160,-308
12226,3120,0,2023-03-01T18:50:55.831173,1645350,1268,1924,-452,-1161,-780,-295,-48,160,-308
12227,3121,0,2023-03-01T18:50:55.837263,1645357,1268,1924,-452,-1161,-780,-295,-48,160,-308
12228,3122,0,2023-03-01T18:50:55.842687,1645362,1262,1916,-450,-1139,-801,-292,-48,160,-308
12229,3123,0,2023-03-01T18:50:55.848757,1645368,1262,1916,-450,-1139,-801,-292,-48,160,-308
12230,3124,0,2023-03-01T18:50:55.854027,1645374,1262,1916,-450,-1139,-801,-292,-48,160,-308
12231,3125,0,2023-03-01T18:50:55.859395,1645379,1264,1916,-457,-1150,-779,-307,-48,160,-308
12232,3126,0,2023-03-01T18:50:55.865656,1645385,1264,1916,-457,-1150,-779,-307,-48,160,-308
12233,3127,0,2023-03-01T18:50:55.870989,1645390,1264,1916,-457,-1150,-779,-307,-48,160,-308
12234,3128,0,2023-03-01T18:50:55.876229,1645395,1264,1916,-457,-1150,-779,-307,-48,160,-308
12235,3129,0,2023-03-01T18:50:55.881409,1645401,1265,1918,-454,-1156,-768,-300,-48,160,-308
12236,3130,0,2023-03-01T18:50:55.887324,1645407,1265,1918,-454,-1156,-768,-300,-48,160,-308
12237,3131,0,2023-03-01T18:50:55.892472,1645412,1265,1918,-454,-1156,-768,-300,-48,160,-308
12238,3132,0,2023-03-01T18:50:55.898020,1645418,1265,1918,-454,-1156,-768,-300,-48,160,-308
12239,3133,0,2023-03-01T18:50:55.903390,1645423,1267,1923,-455,-1158,-771,-306,-48,160,-308
12240,3134,0,2023-03-01T18:50:55.908784,1645428,1267,1923,-455,-1158,-771,-306,-48,160,-308
12241,3135,0,2023-03-01T18:50:55.913857,1645433,1267,1923,-455,-1158,-771,-306,-48,160,-308
12242,3136,0,2023-03-01T18:50:55.919031,1645438,1269,1922,-454,-1156,-761,-299,-48,160,-308
12243,3137,0,2023-03-01T18:50:55.925325,1645445,1269,1922,-454,-1156,-761,-299,-48,160,-308
12244,3138,0,2023-03-01T18:50:55.930327,1645450,1269,1922,-454,-1156,-761,-299,-48,160,-308
12245,3139,0,2023-03-01T18:50:55.935483,1645455,1269,1922,-454,-1156,-761,-299,-48,160,-308
12246,3140,0,2023-03-01T18:50:55.940277,1645460,1262,1915,-451,-1126,-783,-294,-49,165,-307
12247,3141,0,2023-03-01T18:50:55.946566,1645466,1262,1915,-451,-1126,-783,-294,-49,165,-307
12248,3142,0,2023-03-01T18:50:55.951604,1645471,1262,1915,-451,-1126,-783,-294,-49,165,-307
12249,3143,0,2023-03-01T18:50:55.957081,1645476,1262,1915,-451,-1126,-783,-294,-49,165,-307
12250,3144,0,2023-03-01T18:50:55.961954,1645481,1265,1920,-452,-1128,-775,-294,-49,165,-307
12251,3145,0,2023-03-01T18:50:55.967326,1645487,1265,1920,-452,-1128,-775,-294,-49,165,-307
12252,3146,0,2023-03-01T18:50:55.972208,1645492,1265,1920,-452,-1128,-775,-294,-49,165,-307
12253,3147,0,2023-03-01T18:50:55.977923,1645497,1265,1920,-452,-1128,-775,-294,-49,165,-307
12254,3148,0,2023-03-01T18:50:55.983091,1645502,1268,1931,-457,-1130,-747,-298,-49,165,-307
12255,3149,0,2023-03-01T18:50:55.989116,1645508,1268,1931,-457,-1130,-747,-298,-49,165,-307
12256,3150,0,2023-03-01T18:50:55.994666,1645514,1268,1931,-457,-1130,-747,-298,-49,165,-307
12257,3151,0,2023-03-01T18:50:55.999754,1645519,1264,1915,-454,-1121,-756,-283,-49,165,-307
12258,3152,0,2023-03-01T18:50:56.005692,1645526,1264,1915,-454,-1121,-756,-283,-49,165,-307
12259,3153,0,2023-03-01T18:50:56.010706,1645531,1264,1915,-454,-1121,-756,-283,-49,165,-307
12260,3154,0,2023-03-01T18:50:56.016186,1645536,1264,1915,-454,-1121,-756,-283,-49,165,-307
12261,3155,0,2023-03-01T18:50:56.021081,1645541,1265,1915,-457,-1142,-748,-295,-49,165,-307
12262,3156,0,2023-03-01T18:50:56.027265,1645547,1265,1915,-457,-1142,-748,-295,-49,165,-307
12263,3157,0,2023-03-01T18:50:56.032436,1645552,1265,1915,-457,-1142,-748,-295,-49,165,-307
12264,3158,0,2023-03-01T18:50:56.037304,1645556,1265,1915,-457,-1142,-748,-295,-49,165,-307
12265,3159,0,2023-03-01T18:50:56.042197,1645561,1266,1918,-455,-1154,-761,-298,-49,165,-307
12266,3160,0,2023-03-01T18:50:56.048055,1645568,1266,1918,-455,-1154,-761,-298,-49,165,-307
12267,3161,0,2023-03-01T18:50:56.053073,1645573,1266,1918,-455,-1154,-761,-298,-49,165,-307
12268,3162,0,2023-03-01T18:50:56.058454,1645578,1266,1918,-455,-1154,-761,-298,-49,165,-307
12269,3163,0,2023-03-01T18:50:56.063941,1645583,1265,1925,-453,-1130,-782,-295,-46,146,-314
12270,3164,0,2023-03-01T18:50:56.069846,1645589,1265,1925,-453,-1130,-782,-295,-46,146,-314
12271,3165,0,2023-03-01T18:50:56.075197,1645595,1265,1925,-453,-1130,-782,-295,-46,146,-314
12272,3166,0,2023-03-01T18:50:56.080391,1645599,1265,1923,-453,-1143,-767,-297,-46,146,-314
12273,3167,0,2023-03-01T18:50:56.086433,1645606,1265,1923,-453,-1143,-767,-297,-46,146,-314
12274,3168,0,2023-03-01T18:50:56.091422,1645611,1265,1923,-453,-1143,-767,-297,-46,146,-314
12275,3169,0,2023-03-01T18:50:56.096800,1645617,1265,1923,-453,-1143,-767,-297,-46,146,-314
12276,3170,0,2023-03-01T18:50:56.101947,1645621,1265,1918,-452,-1141,-755,-294,-46,146,-314
12277,3171,0,2023-03-01T18:50:56.108201,1645628,1265,1918,-452,-1141,-755,-294,-46,146,-314
12278,3172,0,2023-03-01T18:50:56.113079,1645633,1265,1918,-452,-1141,-755,-294,-46,146,-314
12279,3173,0,2023-03-01T18:50:56.118883,1645638,1267,1921,-452,-1144,-761,-301,-46,146,-314
12280,3174,0,2023-03-01T18:50:56.124689,1645644,1267,1921,-452,-1144,-761,-301,-46,146,-314
12281,3175,0,2023-03-01T18:50:56.129847,1645649,1267,1921,-452,-1144,-761,-301,-46,146,-314
12282,3176,0,2023-03-01T18:50:56.135637,1645656,1267,1921,-452,-1144,-761,-301,-46,146,-314
12283,3177,0,2023-03-01T18:50:56.140245,1645660,1268,1921,-457,-1152,-748,-298,-46,146,-314
12284,3178,0,2023-03-01T18:50:56.146673,1645666,1268,1921,-457,-1152,-748,-298,-46,146,-314
12285,3179,0,2023-03-01T18:50:56.151451,1645671,1268,1921,-457,-1152,-748,-298,-46,146,-314
12286,3180,0,2023-03-01T18:50:56.156887,1645676,1268,1921,-457,-1152,-748,-298,-46,146,-314
12287,3181,0,2023-03-01T18:50:56.162071,1645681,1269,1925,-451,-1141,-739,-302,-46,146,-314
12288,3182,0,2023-03-01T18:50:56.168554,1645688,1269,1925,-451,-1141,-739,-302,-46,146,-314
12289,3183,0,2023-03-01T18:50:56.174207,1645693,1269,1925,-451,-1141,-739,-302,-46,146,-314
12290,3184,0,2023-03-01T18:50:56.179073,1645699,1264,1917,-459,-1113,-773,-296,-46,146,-314
12291,3185,0,2023-03-01T18:50:56.184315,1645704,1264,1917,-459,-1113,-773,-296,-46,146,-314
12292,3186,0,2023-03-01T18:50:56.189464,1645709,1264,1917,-459,-1113,-773,-296,-46,146,-314
12293,3187,0,2023-03-01T18:50:56.194784,1645714,1264,1917,-459,-1113,-773,-296,-46,146,-314
12294,3188,0,2023-03-01T18:50:56.199870,1645719,1264,1917,-446,-1137,-748,-305,-51,153,-319
12295,3189,0,2023-03-01T18:50:56.206102,1645725,1264,1917,-446,-1137,-748,-305,-51,153,-319
12296,3190,0,2023-03-01T18:50:56.210977,1645730,1264,1917,-446,-1137,-748,-305,-51,153,-319
12297,3191,0,2023-03-01T18:50:56.216784,1645736,1264,1917,-446,-1137,-748,-305,-51,153,-319
12298,3192,0,2023-03-01T18:50:56.222074,1645742,1266,1919,-456,-1141,-748,-296,-51,153,-319
12299,3193,0,2023-03-01T18:50:56.228461,1645748,1266,1919,-456,-1141,-748,-296,-51,153,-319
12300,3194,0,2023-03-01T18:50:56.233346,1645753,1266,1919,-456,-1141,-748,-296,-51,153,-319
12301,3195,0,2023-03-01T18:50:56.238588,1645758,1266,1919,-456,-1141,-748,-296,-51,153,-319
12302,3196,0,2023-03-01T18:50:56.244175,1645764,1270,1919,-453,-1152,-745,-301,-51,153,-319
12303,3197,0,2023-03-01T18:50:56.249512,1645769,1270,1919,-453,-1152,-745,-301,-51,153,-319
12304,3198,0,2023-03-01T18:50:56.254088,1645773,1270,1919,-453,-1152,-745,-301,-51,153,-319
12305,3199,0,2023-03-01T18:50:56.259342,1645778,1266,1919,-460,-1156,-755,-300,-51,153,-319
12306,3200,0,2023-03-01T18:50:56.265070,1645785,1266,1919,-460,-1156,-755,-300,-51,153,-319
12307,3201,0,2023-03-01T18:50:56.270057,1645790,1266,1919,-460,-1156,-755,-300,-51,153,-319
12308,3202,0,2023-03-01T18:50:56.275583,1645795,1266,1919,-460,-1156,-755,-300,-51,153,-319
12309,3203,0,2023-03-01T18:50:56.280518,1645800,1266,1923,-449,-1138,-760,-306,-51,153,-319
12310,3204,0,2023-03-01T18:50:56.285848,1645805,1266,1923,-449,-1138,-760,-306,-51,153,-319
12311,3205,0,2023-03-01T18:50:56.290523,1645810,1266,1923,-449,-1138,-760,-306,-51,153,-319
12312,3206,0,2023-03-01T18:50:56.295054,1645814,1266,1923,-449,-1138,-760,-306,-51,153,-319
12313,3207,0,2023-03-01T18:50:56.300026,1645819,1264,1918,-459,-1134,-773,-298,-51,153,-319
12314,3208,0,2023-03-01T18:50:56.306300,1645826,1264,1918,-459,-1134,-773,-298,-51,153,-319
12315,3209,0,2023-03-01T18:50:56.310849,1645831,1264,1918,-459,-1134,-773,-298,-51,153,-319
12316,3210,0,2023-03-01T18:50:56.316924,1645836,1264,1918,-459,-1134,-773,-298,-51,153,-319
12317,3211,0,2023-03-01T18:50:56.322146,1645842,1268,1922,-443,-1143,-756,-295,-47,149,-323
12318,3212,0,2023-03-01T18:50:56.328522,1645848,1268,1922,-443,-1143,-756,-295,-47,149,-323
12319,3213,0,2023-03-01T18:50:56.333583,1645853,1268,1922,-443,-1143,-756,-295,-47,149,-323
12320,3214,0,2023-03-01T18:50:56.339074,1645858,1264,1919,-453,-1147,-762,-295,-47,149,-323
12321,3215,0,2023-03-01T18:50:56.345274,1645864,1264,1919,-453,-1147,-762,-295,-47,149,-323
12322,3216,0,2023-03-01T18:50:56.349866,1645870,1264,1919,-453,-1147,-762,-295,-47,149,-323
12323,3217,0,2023-03-01T18:50:56.355302,1645875,1264,1919,-453,-1147,-762,-295,-47,149,-323
12324,3218,0,2023-03-01T18:50:56.360222,1645880,1267,1919,-455,-1146,-755,-308,-47,149,-323
12325,3219,0,2023-03-01T18:50:56.366139,1645886,1267,1919,-455,-1146,-755,-308,-47,149,-323
12326,3220,0,2023-03-01T18:50:56.371351,1645891,1267,1919,-455,-1146,-755,-308,-47,149,-323
12327,3221,0,2023-03-01T18:50:56.376960,1645896,1267,1919,-455,-1146,-755,-308,-47,149,-323
12328,3222,0,2023-03-01T18:50:56.381814,1645901,1270,1918,-452,-1146,-752,-301,-47,149,-323
12329,3223,0,2023-03-01T18:50:56.388218,1645907,1270,1918,-452,-1146,-752,-301,-47,149,-323
12330,3224,0,2023-03-01T18:50:56.393302,1645913,1270,1918,-452,-1146,-752,-301,-47,149,-323
12331,3225,0,2023-03-01T18:50:56.399043,1645919,1271,1921,-452,-1132,-755,-307,-47,149,-323
12332,3226,0,2023-03-01T18:50:56.405188,1645925,1271,1921,-452,-1132,-755,-307,-47,149,-323
12333,3227,0,2023-03-01T18:50:56.410200,1645930,1271,1921,-452,-1132,-755,-307,-47,149,-323
12334,3228,0,2023-03-01T18:50:56.415523,1645935,1271,1921,-452,-1132,-755,-307,-47,149,-323
12335,3229,0,2023-03-01T18:50:56.420299,1645940,1267,1916,-462,-1120,-774,-301,-47,149,-323
12336,3230,0,2023-03-01T18:50:56.426071,1645945,1267,1916,-462,-1120,-774,-301,-47,149,-323
12337,3231,0,2023-03-01T18:50:56.431518,1645950,1267,1916,-462,-1120,-774,-301,-47,149,-323
12338,3232,0,2023-03-01T18:50:56.436873,1645957,1267,1916,-462,-1120,-774,-301,-47,149,-323
12339,3233,0,2023-03-01T18:50:56.441692,1645961,1269,1920,-452,-1154,-757,-303,-49,149,-313
12340,3234,0,2023-03-01T18:50:56.447392,1645967,1269,1920,-452,-1154,-757,-303,-49,149,-313
12341,3235,0,2023-03-01T18:50:56.452120,1645972,1269,1920,-452,-1154,-757,-303,-49,149,-313
12342,3236,0,2023-03-01T18:50:56.457583,1645977,1269,1920,-452,-1154,-757,-303,-49,149,-313
12343,3237,0,2023-03-01T18:50:56.462549,1645982,1270,1916,-463,-1155,-770,-296,-49,149,-313
12344,3238,0,2023-03-01T18:50:56.467851,1645987,1270,1916,-463,-1155,-770,-296,-49,149,-313
12345,3239,0,2023-03-01T18:50:56.472786,1645992,1270,1916,-463,-1155,-770,-296,-49,149,-313
12346,3240,0,2023-03-01T18:50:56.477973,1645998,1270,1916,-463,-1155,-770,-296,-49,149,-313
12347,3241,0,2023-03-01T18:50:56.482976,1646003,1269,1920,-454,-1159,-762,-300,-49,149,-313
12348,3242,0,2023-03-01T18:50:56.488885,1646009,1269,1920,-454,-1159,-762,-300,-49,149,-313
12349,3243,0,2023-03-01T18:50:56.494714,1646014,1269,1920,-454,-1159,-762,-300,-49,149,-313
12350,3244,0,2023-03-01T18:50:56.499717,1646019,1271,1918,-455,-1166,-768,-299,-49,149,-313
12351,3245,0,2023-03-01T18:50:56.505320,1646025,1271,1918,-455,-1166,-768,-299,-49,149,-313
12352,3246,0,2023-03-01T18:50:56.510369,1646030,1271,1918,-455,-1166,-768,-299,-49,149,-313
12353,3247,0,2023-03-01T18:50:56.515612,1646035,1271,1918,-455,-1166,-768,-299,-49,149,-313
12354,3248,0,2023-03-01T18:50:56.520551,1646040,1266,1919,-449,-1144,-786,-296,-49,149,-313
12355,3249,0,2023-03-01T18:50:56.526547,1646046,1266,1919,-449,-1144,-786,-296,-49,149,-313
12356,3250,0,2023-03-01T18:50:56.531445,1646051,1266,1919,-449,-1144,-786,-296,-49,149,-313
12357,3251,0,2023-03-01T18:50:56.537331,1646057,1266,1919,-449,-1144,-786,-296,-49,149,-313
12358,3252,0,2023-03-01T18:50:56.542266,1646062,1269,1915,-460,-1139,-790,-294,-49,149,-313
12359,3253,0,2023-03-01T18:50:56.547784,1646067,1269,1915,-460,-1139,-790,-294,-49,149,-313
12360,3254,0,2023-03-01T18:50:56.552641,1646072,1269,1915,-460,-1139,-790,-294,-49,149,-313
12361,3255,0,2023-03-01T18:50:56.558160,1646077,1269,1915,-460,-1139,-790,-294,-49,149,-313
12362,3256,0,2023-03-01T18:50:56.562884,1646083,1271,1921,-458,-1156,-777,-302,-49,149,-313
12363,3257,0,2023-03-01T18:50:56.568081,1646088,1271,1921,-458,-1156,-777,-302,-49,149,-313
12364,3258,0,2023-03-01T18:50:56.573550,1646093,1271,1921,-458,-1156,-777,-302,-49,149,-313
12365,3259,0,2023-03-01T18:50:56.579118,1646099,1267,1915,-457,-1154,-775,-294,-49,149,-313
12366,3260,0,2023-03-01T18:50:56.584835,1646104,1267,1915,-457,-1154,-775,-294,-50,150,-304
12367,3261,0,2023-03-01T18:50:56.589972,1646109,1267,1915,-457,-1154,-775,-294,-50,150,-304
12368,3262,0,2023-03-01T18:50:56.595652,1646115,1267,1915,-457,-1154,-775,-294,-50,150,-304
12369,3263,0,2023-03-01T18:50:56.600406,1646120,1267,1917,-452,-1167,-774,-303,-50,150,-304
12370,3264,0,2023-03-01T18:50:56.605828,1646126,1267,1917,-452,-1167,-774,-303,-50,150,-304
12371,3265,0,2023-03-01T18:50:56.610563,1646130,1267,1917,-452,-1167,-774,-303,-50,150,-304
12372,3266,0,2023-03-01T18:50:56.616237,1646136,1267,1917,-452,-1167,-774,-303,-50,150,-304
12373,3267,0,2023-03-01T18:50:56.621196,1646141,1269,1920,-460,-1172,-789,-295,-50,150,-304
12374,3268,0,2023-03-01T18:50:56.627089,1646147,1269,1920,-460,-1172,-789,-295,-50,150,-304
12375,3269,0,2023-03-01T18:50:56.631810,1646151,1269,1920,-460,-1172,-789,-295,-50,150,-304
12376,3270,0,2023-03-01T18:50:56.637383,1646157,1269,1920,-460,-1172,-789,-295,-50,150,-304
12377,3271,0,2023-03-01T18:50:56.642649,1646162,1269,1921,-446,-1159,-777,-301,-50,150,-304
12378,3272,0,2023-03-01T18:50:56.648559,1646169,1269,1921,-446,-1159,-777,-301,-50,150,-304
12379,3273,0,2023-03-01T18:50:56.654207,1646174,1269,1921,-446,-1159,-777,-301,-50,150,-304
12380,3274,0,2023-03-01T18:50:56.659068,1646179,1269,1921,-446,-1159,-777,-301,-50,150,-304
12381,3275,0,2023-03-01T18:50:56.663741,1646183,1267,1913,-463,-1155,-815,-289,-50,150,-304
12382,3276,0,2023-03-01T18:50:56.669636,1646189,1267,1913,-463,-1155,-815,-289,-50,150,-304
12383,3277,0,2023-03-01T18:50:56.675232,1646195,1267,1913,-463,-1155,-815,-289,-50,150,-304
12384,3278,0,2023-03-01T18:50:56.680153,1646199,1268,1921,-451,-1167,-778,-305,-50,150,-304
12385,3279,0,2023-03-01T18:50:56.686133,1646205,1268,1921,-451,-1167,-778,-305,-50,150,-304
12386,3280,0,2023-03-01T18:50:56.691127,1646211,1268,1921,-451,-1167,-778,-305,-50,150,-304
12387,3281,0,2023-03-01T18:50:56.696746,1646216,1268,1921,-451,-1167,-778,-305,-50,150,-304
12388,3282,0,2023-03-01T18:50:56.701609,1646221,1265,1914,-454,-1157,-781,-292,-54,152,-318
12389,3283,0,2023-03-01T18:50:56.707555,1646227,1265,1914,-454,-1157,-781,-292,-54,152,-318
12390,3284,0,2023-03-01T18:50:56.712395,1646232,1265,1914,-454,-1157,-781,-292,-54,152,-318
12391,3285,0,2023-03-01T18:50:56.718170,1646237,1265,1914,-454,-1157,-781,-292,-54,152,-318
12392,3286,0,2023-03-01T18:50:56.723117,1646242,1270,1919,-450,-1164,-771,-303,-54,152,-318
12393,3287,0,2023-03-01T18:50:56.729064,1646248,1270,1919,-450,-1164,-771,-303,-54,152,-318
12394,3288,0,2023-03-01T18:50:56.734530,1646255,1270,1919,-450,-1164,-771,-303,-54,152,-318
12395,3289,0,2023-03-01T18:50:56.739181,1646259,1270,1919,-450,-1164,-771,-303,-54,152,-318
12396,3290,0,2023-03-01T18:50:56.744254,1646264,1268,1915,-457,-1155,-779,-298,-54,152,-318
12397,3291,0,2023-03-01T18:50:56.749509,1646269,1268,1915,-457,-1155,-779,-298,-54,152,-318
12398,3292,0,2023-03-01T18:50:56.754781,1646274,1268,1915,-457,-1155,-779,-298,-54,152,-318
12399,3293,0,2023-03-01T18:50:56.759972,1646279,1274,1923,-459,-1158,-778,-303,-54,152,-318
12400,3294,0,2023-03-01T18:50:56.766515,1646286,1274,1923,-459,-1158,-778,-303,-54,152,-318
12401,3295,0,2023-03-01T18:50:56.771724,1646291,1274,1923,-459,-1158,-778,-303,-54,152,-318
12402,3296,0,2023-03-01T18:50:56.777229,1646297,1274,1923,-459,-1158,-778,-303,-54,152,-318
12403,3297,0,2023-03-01T18:50:56.782258,1646302,1267,1913,-457,-1138,-814,-279,-54,152,-318
12404,3298,0,2023-03-01T18:50:56.789150,1646309,1267,1913,-457,-1138,-814,-279,-54,152,-318
12405,3299,0,2023-03-01T18:50:56.794940,1646314,1267,1913,-457,-1138,-814,-279,-54,152,-318
12406,3300,0,2023-03-01T18:50:56.799825,1646319,1264,1919,-453,-1151,-782,-307,-54,152,-318
12407,3301,0,2023-03-01T18:50:56.806350,1646326,1264,1919,-453,-1151,-782,-307,-54,152,-318
12408,3302,0,2023-03-01T18:50:56.811112,1646330,1264,1919,-453,-1151,-782,-307,-54,152,-318
12409,3303,0,2023-03-01T18:50:56.816764,1646337,1264,1919,-453,-1151,-782,-307,-54,152,-318
12410,3304,0,2023-03-01T18:50:56.821359,1646341,1267,1916,-457,-1166,-789,-295,-54,152,-318
12411,3305,0,2023-03-01T18:50:56.828087,1646348,1267,1916,-457,-1166,-789,-295,-54,152,-318
12412,3306,0,2023-03-01T18:50:56.833039,1646353,1267,1916,-457,-1166,-789,-295,-54,152,-318
12413,3307,0,2023-03-01T18:50:56.838608,1646358,1267,1916,-457,-1166,-789,-295,-54,152,-318
12414,3308,0,2023-03-01T18:50:56.843542,1646363,1273,1918,-448,-1171,-777,-301,-62,156,-318
12415,3309,0,2023-03-01T18:50:56.849393,1646369,1273,1918,-448,-1171,-777,-301,-62,156,-318
12416,3310,0,2023-03-01T18:50:56.854343,1646373,1273,1918,-448,-1171,-777,-301,-62,156,-318
12417,3311,0,2023-03-01T18:50:56.859416,1646379,1273,1918,-448,-1171,-777,-301,-62,156,-318
12418,3312,0,2023-03-01T18:50:56.864920,1646384,1268,1916,-461,-1165,-788,-294,-62,156,-318
12419,3313,0,2023-03-01T18:50:56.870477,1646390,1268,1916,-461,-1165,-788,-294,-62,156,-318
12420,3314,0,2023-03-01T18:50:56.876124,1646396,1268,1916,-461,-1165,-788,-294,-62,156,-318
12421,3315,0,2023-03-01T18:50:56.881154,1646401,1267,1917,-458,-1167,-784,-302,-62,156,-318
12422,3316,0,2023-03-01T18:50:56.887717,1646407,1267,1917,-458,-1167,-784,-302,-62,156,-318
12423,3317,0,2023-03-01T18:50:56.892822,1646412,1267,1917,-458,-1167,-784,-302,-62,156,-318
12424,3318,0,2023-03-01T18:50:56.898355,1646418,1267,1917,-458,-1167,-784,-302,-62,156,-318
12425,3319,0,2023-03-01T18:50:56.903524,1646424,1269,1926,-451,-1156,-779,-303,-62,156,-318
12426,3320,0,2023-03-01T18:50:56.909514,1646429,1269,1926,-451,-1156,-779,-303,-62,156,-318
12427,3321,0,2023-03-01T18:50:56.915467,1646435,1269,1926,-451,-1156,-779,-303,-62,156,-318
12428,3322,0,2023-03-01T18:50:56.920889,1646440,1271,1914,-459,-1148,-805,-294,-62,156,-318
12429,3323,0,2023-03-01T18:50:56.927198,1646447,1271,1914,-459,-1148,-805,-294,-62,156,-318
12430,3324,0,2023-03-01T18:50:56.932239,1646452,1271,1914,-459,-1148,-805,-294,-62,156,-318
12431,3325,0,2023-03-01T18:50:56.937834,1646457,1271,1914,-459,-1148,-805,-294,-62,156,-318
12432,3326,0,2023-03-01T18:50:56.942488,1646462,1271,1918,-462,-1181,-793,-302,-62,156,-318
12433,3327,0,2023-03-01T18:50:56.947719,1646468,1271,1918,-462,-1181,-793,-302,-62,156,-318
12434,3328,0,2023-03-01T18:50:56.952441,1646472,1271,1918,-462,-1181,-793,-302,-62,156,-318
12435,3329,0,2023-03-01T18:50:56.957690,1646478,1271,1918,-462,-1181,-793,-302,-62,156,-318
12436,3330,0,2023-03-01T18:50:56.962648,1646482,1269,1914,-460,-1176,-792,-297,-51,161,-307
12437,3331,0,2023-03-01T18:50:56.968346,1646488,1269,1914,-460,-1176,-792,-297,-51,161,-307
12438,3332,0,2023-03-01T18:50:56.973270,1646493,1269,1914,-460,-1176,-792,-297,-51,161,-307
12439,3333,0,2023-03-01T18:50:56.979242,1646498,1269,1914,-460,-1176,-792,-297,-51,161,-307
12440,3334,0,2023-03-01T18:50:56.984241,1646503,1271,1919,-455,-1172,-779,-301,-51,161,-307
12441,3335,0,2023-03-01T18:50:56.990463,1646510,1271,1919,-455,-1172,-779,-301,-51,161,-307
12442,3336,0,2023-03-01T18:50:56.996066,1646516,1271,1919,-455,-1172,-779,-301,-51,161,-307
12443,3337,0,2023-03-01T18:50:57.001468,1646521,1272,1914,-453,-1165,-776,-295,-51,161,-307
12444,3338,0,2023-03-01T18:50:57.007527,1646527,1272,1914,-453,-1165,-776,-295,-51,161,-307
12445,3339,0,2023-03-01T18:50:57.012421,1646532,1272,1914,-453,-1165,-776,-295,-51,161,-307
12446,3340,0,2023-03-01T18:50:57.018110,1646537,1272,1914,-453,-1165,-776,-295,-51,161,-307
12447,3341,0,2023-03-01T18:50:57.022964,1646542,1269,1917,-453,-1162,-763,-302,-51,161,-307
12448,3342,0,2023-03-01T18:50:57.029145,1646548,1269,1917,-453,-1162,-763,-302,-51,161,-307
12449,3343,0,2023-03-01T18:50:57.034632,1646555,1269,1917,-453,-1162,-763,-302,-51,161,-307
12450,3344,0,2023-03-01T18:50:57.039655,1646559,1269,1917,-453,-1162,-763,-302,-51,161,-307
12451,3345,0,2023-03-01T18:50:57.044654,1646564,1270,1914,-457,-1144,-787,-283,-51,161,-307
12452,3346,0,2023-03-01T18:50:57.050269,1646570,1270,1914,-457,-1144,-787,-283,-51,161,-307
12453,3347,0,2023-03-01T18:50:57.056019,1646575,1270,1914,-457,-1144,-787,-283,-51,161,-307
12454,3348,0,2023-03-01T18:50:57.060392,1646580,1270,1915,-462,-1142,-794,-292,-51,161,-307
12455,3349,0,2023-03-01T18:50:57.066311,1646585,1270,1915,-462,-1142,-794,-292,-51,161,-307
12456,3350,0,2023-03-01T18:50:57.071021,1646590,1270,1915,-462,-1142,-794,-292,-51,161,-307
12457,3351,0,2023-03-01T18:50:57.076797,1646597,1270,1915,-462,-1142,-794,-292,-51,161,-307
12458,3352,0,2023-03-01T18:50:57.081579,1646601,1268,1918,-461,-1168,-794,-295,-51,161,-307
12459,3353,0,2023-03-01T18:50:57.087963,1646607,1268,1918,-461,-1168,-794,-295,-51,161,-307
12460,3354,0,2023-03-01T18:50:57.092882,1646612,1268,1918,-461,-1168,-794,-295,-51,161,-307
12461,3355,0,2023-03-01T18:50:57.098123,1646618,1268,1918,-461,-1168,-794,-295,-51,161,-307
12462,3356,0,2023-03-01T18:50:57.103185,1646623,1269,1914,-456,-1176,-784,-302,-58,154,-316
12463,3357,0,2023-03-01T18:50:57.109599,1646629,1269,1914,-456,-1176,-784,-302,-58,154,-316
12464,3358,0,2023-03-01T18:50:57.114171,1646633,1269,1914,-456,-1176,-784,-302,-58,154,-316
12465,3359,0,2023-03-01T18:50:57.118647,1646639,1269,1914,-456,-1176,-784,-302,-58,154,-316
12466,3360,0,2023-03-01T18:50:57.123088,1646643,1270,1919,-457,-1174,-784,-299,-58,154,-316
12467,3361,0,2023-03-01T18:50:57.128864,1646649,1270,1919,-457,-1174,-784,-299,-58,154,-316
12468,3362,0,2023-03-01T18:50:57.134124,1646654,1270,1919,-457,-1174,-784,-299,-58,154,-316
12469,3363,0,2023-03-01T18:50:57.138920,1646658,1270,1919,-457,-1174,-784,-299,-58,154,-316
12470,3364,0,2023-03-01T18:50:57.143610,1646663,1270,1919,-457,-1174,-784,-299,-58,154,-316
12471,3365,0,2023-03-01T18:50:57.149796,1646669,1270,1919,-457,-1174,-784,-299,-58,154,-316
12472,3366,0,2023-03-01T18:50:57.155473,1646674,1270,1919,-457,-1174,-784,-299,-58,154,-316
12473,3367,0,2023-03-01T18:50:57.160057,1646680,1268,1920,-456,-1180,-788,-306,-58,154,-316
12474,3368,0,2023-03-01T18:50:57.165952,1646686,1268,1920,-456,-1180,-788,-306,-58,154,-316
12475,3369,0,2023-03-01T18:50:57.170990,1646691,1268,1920,-456,-1180,-788,-306,-58,154,-316
12476,3370,0,2023-03-01T18:50:57.176919,1646697,1268,1920,-456,-1180,-788,-306,-58,154,-316
12477,3371,0,2023-03-01T18:50:57.181731,1646701,1273,1918,-459,-1165,-788,-297,-58,154,-316
12478,3372,0,2023-03-01T18:50:57.187832,1646707,1273,1918,-459,-1165,-788,-297,-58,154,-316
12479,3373,0,2023-03-01T18:50:57.192616,1646712,1273,1918,-459,-1165,-788,-297,-58,154,-316
12480,3374,0,2023-03-01T18:50:57.198400,1646717,1273,1918,-459,-1165,-788,-297,-58,154,-316
12481,3375,0,2023-03-01T18:50:57.203233,1646723,1272,1916,-456,-1158,-800,-291,-58,154,-316
12482,3376,0,2023-03-01T18:50:57.209041,1646729,1272,1916,-456,-1158,-800,-291,-58,154,-316
12483,3377,0,2023-03-01T18:50:57.215226,1646735,1272,1916,-456,-1158,-800,-291,-58,154,-316
12484,3378,0,2023-03-01T18:50:57.220423,1646740,1269,1916,-451,-1157,-816,-298,-58,154,-316
12485,3379,0,2023-03-01T18:50:57.226084,1646746,1269,1916,-451,-1157,-816,-298,-51,155,-313
12486,3380,0,2023-03-01T18:50:57.230643,1646750,1269,1916,-451,-1157,-816,-298,-51,155,-313
12487,3381,0,2023-03-01T18:50:57.236194,1646755,1269,1916,-451,-1157,-816,-298,-51,155,-313
12488,3382,0,2023-03-01T18:50:57.240660,1646760,1272,1919,-453,-1171,-789,-301,-51,155,-313
12489,3383,0,2023-03-01T18:50:57.246919,1646767,1272,1919,-453,-1171,-789,-301,-51,155,-313
12490,3384,0,2023-03-01T18:50:57.252365,1646772,1272,1919,-453,-1171,-789,-301,-51,155,-313
12491,3385,0,2023-03-01T18:50:57.257970,1646777,1272,1919,-453,-1171,-789,-301,-51,155,-313
12492,3386,0,2023-03-01T18:50:57.263192,1646783,1269,1915,-460,-1170,-801,-298,-51,155,-313
12493,3387,0,2023-03-01T18:50:57.268976,1646788,1269,1915,-460,-1170,-801,-298,-51,155,-313
12494,3388,0,2023-03-01T18:50:57.274556,1646794,1269,1915,-460,-1170,-801,-298,-51,155,-313
12495,3389,0,2023-03-01T18:50:57.279475,1646799,1269,1915,-460,-1170,-801,-298,-51,155,-313
12496,3390,0,2023-03-01T18:50:57.284715,1646804,1271,1917,-458,-1192,-803,-309,-51,155,-313
12497,3391,0,2023-03-01T18:50:57.289988,1646810,1271,1917,-458,-1192,-803,-309,-51,155,-313
12498,3392,0,2023-03-01T18:50:57.295638,1646815,1271,1917,-458,-1192,-803,-309,-51,155,-313
12499,3393,0,2023-03-01T18:50:57.300385,1646820,1267,1916,-463,-1193,-794,-297,-51,155,-313
12500,3394,0,2023-03-01T18:50:57.306776,1646826,1267,1916,-463,-1193,-794,-297,-51,155,-313
12501,3395,0,2023-03-01T18:50:57.312315,1646832,1267,1916,-463,-1193,-794,-297,-51,155,-313
12502,3396,0,2023-03-01T18:50:57.317910,1646837,1267,1916,-463,-1193,-794,-297,-51,155,-313
12503,3397,0,2023-03-01T18:50:57.322660,1646842,1268,1920,-459,-1176,-783,-306,-51,155,-313
12504,3398,0,2023-03-01T18:50:57.328361,1646849,1268,1920,-459,-1176,-783,-306,-51,155,-313
12505,3399,0,2023-03-01T18:50:57.333651,1646854,1268,1920,-459,-1176,-783,-306,-51,155,-313
12506,3400,0,2023-03-01T18:50:57.339433,1646859,1268,1920,-459,-1176,-783,-306,-51,155,-313
12507,3401,0,2023-03-01T18:50:57.344888,1646865,1269,1920,-463,-1174,-796,-297,-51,161,-305
12508,3402,0,2023-03-01T18:50:57.350533,1646870,1269,1920,-463,-1174,-796,-297,-51,161,-305
12509,3403,0,2023-03-01T18:50:57.356106,1646875,1269,1920,-463,-1174,-796,-297,-51,161,-305
12510,3404,0,2023-03-01T18:50:57.361160,1646880,1273,1920,-444,-1168,-786,-304,-51,161,-305
12511,3405,0,2023-03-01T18:50:57.366706,1646886,1273,1920,-444,-1168,-786,-304,-51,161,-305
12512,3406,0,2023-03-01T18:50:57.371280,1646891,1273,1920,-444,-1168,-786,-304,-51,161,-305
12513,3407,0,2023-03-01T18:50:57.376800,1646897,1273,1920,-444,-1168,-786,-304,-51,161,-305
12514,3408,0,2023-03-01T18:50:57.381430,1646901,1269,1911,-455,-1151,-821,-287,-51,161,-305
12515,3409,0,2023-03-01T18:50:57.387781,1646907,1269,1911,-455,-1151,-821,-287,-51,161,-305
12516,3410,0,2023-03-01T18:50:57.393053,1646913,1269,1911,-455,-1151,-821,-287,-51,161,-305
12517,3411,0,2023-03-01T18:50:57.398492,1646918,1269,1911,-455,-1151,-821,-287,-51,161,-305
12518,3412,0,2023-03-01T18:50:57.403150,1646923,1272,1917,-450,-1165,-801,-308,-51,161,-305
12519,3413,0,2023-03-01T18:50:57.408620,1646928,1272,1917,-450,-1165,-801,-308,-51,161,-305
12520,3414,0,2023-03-01T18:50:57.413475,1646932,1272,1917,-450,-1165,-801,-308,-51,161,-305
12521,3415,0,2023-03-01T18:50:57.419537,1646939,1272,1917,-450,-1165,-801,-308,-51,161,-305
12522,3416,0,2023-03-01T18:50:57.424930,1646945,1269,1914,-467,-1177,-805,-302,-51,161,-305
12523,3417,0,2023-03-01T18:50:57.431101,1646951,1269,1914,-467,-1177,-805,-302,-51,161,-305
12524,3418,0,2023-03-01T18:50:57.436548,1646956,1269,1914,-467,-1177,-805,-302,-51,161,-305
12525,3419,0,2023-03-01T18:50:57.441556,1646961,1274,1917,-459,-1177,-789,-302,-51,161,-305
12526,3420,0,2023-03-01T18:50:57.447942,1646967,1274,1917,-459,-1177,-789,-302,-51,161,-305
12527,3421,0,2023-03-01T18:50:57.452855,1646972,1274,1917,-459,-1177,-789,-302,-51,161,-305
12528,3422,0,2023-03-01T18:50:57.458199,1646978,1274,1917,-459,-1177,-789,-302,-51,161,-305
12529,3423,0,2023-03-01T18:50:57.462915,1646983,1271,1918,-458,-1180,-796,-295,-51,161,-305
12530,3424,0,2023-03-01T18:50:57.469256,1646989,1271,1918,-458,-1180,-796,-295,-51,161,-305
12531,3425,0,2023-03-01T18:50:57.474984,1646994,1271,1918,-458,-1180,-796,-295,-51,161,-305
12532,3426,0,2023-03-01T18:50:57.479908,1646999,1271,1918,-458,-1180,-796,-295,-51,161,-305
12533,3427,0,2023-03-01T18:50:57.485492,1647005,1268,1916,-448,-1173,-797,-299,-45,149,-315
12534,3428,0,2023-03-01T18:50:57.491059,1647010,1268,1916,-448,-1173,-797,-299,-45,149,-315
12535,3429,0,2023-03-01T18:50:57.496635,1647016,1268,1916,-448,-1173,-797,-299,-45,149,-315
12536,3430,0,2023-03-01T18:50:57.501440,1647021,1272,1917,-458,-1178,-800,-299,-45,149,-315
12537,3431,0,2023-03-01T18:50:57.506808,1647027,1272,1917,-458,-1178,-800,-299,-45,149,-315
12538,3432,0,2023-03-01T18:50:57.512531,1647032,1272,1917,-458,-1178,-800,-299,-45,149,-315
12539,3433,0,2023-03-01T18:50:57.518371,1647038,1272,1917,-458,-1178,-800,-299,-45,149,-315
12540,3434,0,2023-03-01T18:50:57.523178,1647043,1272,1919,-455,-1176,-790,-303,-45,149,-315
12541,3435,0,2023-03-01T18:50:57.529821,1647049,1272,1919,-455,-1176,-790,-303,-45,149,-315
12542,3436,0,2023-03-01T18:50:57.535719,1647055,1272,1919,-455,-1176,-790,-303,-45,149,-315
12543,3437,0,2023-03-01T18:50:57.540271,1647059,1272,1909,-457,-1159,-816,-295,-45,149,-315
12544,3438,0,2023-03-01T18:50:57.546569,1647067,1272,1909,-457,-1159,-816,-295,-45,149,-315
12545,3439,0,2023-03-01T18:50:57.551399,1647071,1272,1909,-457,-1159,-816,-295,-45,149,-315
12546,3440,0,2023-03-01T18:50:57.557775,1647076,1272,1909,-457,-1159,-816,-295,-45,149,-315
12547,3441,0,2023-03-01T18:50:57.562922,1647082,1267,1909,-456,-1146,-795,-297,-45,149,-315
12548,3442,0,2023-03-01T18:50:57.568860,1647088,1267,1909,-456,-1146,-795,-297,-45,149,-315
12549,3443,0,2023-03-01T18:50:57.574300,1647093,1267,1909,-456,-1146,-795,-297,-45,149,-315
12550,3444,0,2023-03-01T18:50:57.579303,1647098,1267,1909,-456,-1146,-795,-297,-45,149,-315
12551,3445,0,2023-03-01T18:50:57.584284,1647104,1272,1918,-457,-1178,-802,-299,-45,149,-315
12552,3446,0,2023-03-01T18:50:57.590231,1647110,1272,1918,-457,-1178,-802,-299,-45,149,-315
12553,3447,0,2023-03-01T18:50:57.595532,1647115,1272,1918,-457,-1178,-802,-299,-45,149,-315
12554,3448,0,2023-03-01T18:50:57.600314,1647120,1272,1918,-457,-1178,-802,-299,-45,149,-315
12555,3449,0,2023-03-01T18:50:57.605561,1647125,1273,1918,-457,-1184,-795,-292,-51,155,-315
12556,3450,0,2023-03-01T18:50:57.610031,1647130,1273,1918,-457,-1184,-795,-292,-51,155,-315
12557,3451,0,2023-03-01T18:50:57.615338,1647135,1273,1918,-457,-1184,-795,-292,-51,155,-315
12558,3452,0,2023-03-01T18:50:57.620120,1647139,1273,1918,-457,-1184,-795,-292,-51,155,-315
12559,3453,0,2023-03-01T18:50:57.624813,1647144,1270,1915,-458,-1183,-784,-300,-51,155,-315
12560,3454,0,2023-03-01T18:50:57.630319,1647150,1270,1915,-458,-1183,-784,-300,-51,155,-315
12561,3455,0,2023-03-01T18:50:57.636033,1647156,1270,1915,-458,-1183,-784,-300,-51,155,-315
12562,3456,0,2023-03-01T18:50:57.640914,1647161,1269,1914,-454,-1176,-789,-303,-51,155,-315
12563,3457,0,2023-03-01T18:50:57.647253,1647167,1269,1914,-454,-1176,-789,-303,-51,155,-315
12564,3458,0,2023-03-01T18:50:57.652231,1647172,1269,1914,-454,-1176,-789,-303,-51,155,-315
12565,3459,0,2023-03-01T18:50:57.657780,1647177,1269,1914,-454,-1176,-789,-303,-51,155,-315
12566,3460,0,2023-03-01T18:50:57.663134,1647182,1273,1914,-455,-1166,-779,-312,-51,155,-315
12567,3461,0,2023-03-01T18:50:57.669454,1647190,1273,1914,-455,-1166,-779,-312,-51,155,-315
12568,3462,0,2023-03-01T18:50:57.675020,1647195,1273,1914,-455,-1166,-779,-312,-51,155,-315
12569,3463,0,2023-03-01T18:50:57.679913,1647200,1273,1914,-455,-1166,-779,-312,-51,155,-315
12570,3464,0,2023-03-01T18:50:57.684891,1647205,1273,1917,-460,-1167,-779,-302,-51,155,-315
12571,3465,0,2023-03-01T18:50:57.690319,1647210,1273,1917,-460,-1167,-779,-302,-51,155,-315
12572,3466,0,2023-03-01T18:50:57.695905,1647215,1273,1917,-460,-1167,-779,-302,-51,155,-315
12573,3467,0,2023-03-01T18:50:57.700664,1647220,1271,1913,-454,-1164,-815,-290,-51,155,-315
12574,3468,0,2023-03-01T18:50:57.706715,1647226,1271,1913,-454,-1164,-815,-290,-51,155,-315
12575,3469,0,2023-03-01T18:50:57.711574,1647232,1271,1913,-454,-1164,-815,-290,-51,155,-315
12576,3470,0,2023-03-01T18:50:57.717242,1647237,1271,1913,-454,-1164,-815,-290,-51,155,-315
12577,3471,0,2023-03-01T18:50:57.722393,1647242,1273,1917,-464,-1159,-826,-297,-51,155,-315
12578,3472,0,2023-03-01T18:50:57.729040,1647249,1273,1917,-464,-1159,-826,-297,-51,155,-315
12579,3473,0,2023-03-01T18:50:57.734360,1647254,1273,1917,-464,-1159,-826,-297,-51,155,-315
12580,3474,0,2023-03-01T18:50:57.739029,1647259,1273,1917,-464,-1159,-826,-297,-51,155,-315
12581,3475,0,2023-03-01T18:50:57.744323,1647263,1272,1917,-449,-1177,-803,-295,-51,153,-309
12582,3476,0,2023-03-01T18:50:57.749612,1647269,1272,1917,-449,-1177,-803,-295,-51,153,-309
12583,3477,0,2023-03-01T18:50:57.755211,1647275,1272,1917,-449,-1177,-803,-295,-51,153,-309
12584,3478,0,2023-03-01T18:50:57.760054,1647280,1272,1917,-449,-1177,-803,-295,-51,153,-309
12585,3479,0,2023-03-01T18:50:57.765251,1647285,1274,1912,-457,-1188,-807,-293,-51,153,-309
12586,3480,0,2023-03-01T18:50:57.770456,1647290,1274,1912,-457,-1188,-807,-293,-51,153,-309
12587,3481,0,2023-03-01T18:50:57.776264,1647296,1274,1912,-457,-1188,-807,-293,-51,153,-309
12588,3482,0,2023-03-01T18:50:57.781267,1647301,1272,1916,-455,-1195,-793,-300,-51,153,-309
12589,3483,0,2023-03-01T18:50:57.787376,1647307,1272,1916,-455,-1195,-793,-300,-51,153,-309
12590,3484,0,2023-03-01T18:50:57.792252,1647312,1272,1916,-455,-1195,-793,-300,-51,153,-309
12591,3485,0,2023-03-01T18:50:57.797201,1647316,1272,1916,-455,-1195,-793,-300,-51,153,-309
12592,3486,0,2023-03-01T18:50:57.802412,1647322,1273,1914,-453,-1180,-805,-304,-51,153,-309
12593,3487,0,2023-03-01T18:50:57.808259,1647328,1273,1914,-453,-1180,-805,-304,-51,153,-309
12594,3488,0,2023-03-01T18:50:57.813372,1647333,1273,1914,-453,-1180,-805,-304,-51,153,-309
12595,3489,0,2023-03-01T18:50:57.818876,1647339,1273,1914,-453,-1180,-805,-304,-51,153,-309
12596,3490,0,2023-03-01T18:50:57.823534,1647343,1276,1918,-458,-1186,-791,-300,-51,153,-309
12597,3491,0,2023-03-01T18:50:57.829437,1647349,1276,1918,-458,-1186,-791,-300,-51,153,-309
12598,3492,0,2023-03-01T18:50:57.835125,1647354,1276,1918,-458,-1186,-791,-300,-51,153,-309
12599,3493,0,2023-03-01T18:50:57.840679,1647361,1276,1918,-458,-1186,-791,-300,-51,153,-309
