,Unnamed: 0,imu,server_time,arduino_time,ax,ay,az,gx,gy,gz,mx,my,mz
12600,3494,0,2023-03-01T18:50:57.846055,1647366,1274,1910,-463,-1176,-785,-285,-51,153,-309
12601,3495,0,2023-03-01T18:50:57.851327,1647371,1274,1910,-463,-1176,-785,-285,-51,153,-309
12602,3496,0,2023-03-01T18:50:57.858683,1647378,1274,1910,-463,-1176,-785,-285,-51,153,-309
12603,3497,0,2023-03-01T18:50:57.863422,1647383,1272,1916,-451,-1179,-779,-308,-53,157,-311
12604,3498,0,2023-03-01T18:50:57.869428,1647389,1272,1916,-451,-1179,-779,-308,-53,157,-311
12605,3499,0,2023-03-01T18:50:57.875962,1647395,1272,1916,-451,-1179,-779,-308,-53,157,-311
12606,3500,0,2023-03-01T18:50:57.881352,1647400,1272,1911,-454,-1162,-813,-295,-53,157,-311
12607,3501,0,2023-03-01T18:50:57.888130,1647408,1272,1911,-454,-1162,-813,-295,-53,157,-311
12608,3502,0,2023-03-01T18:50:57.893277,1647413,1272,1911,-454,-1162,-813,-295,-53,157,-311
12609,3503,0,2023-03-01T18:50:57.898455,1647418,1272,1911,-454,-1162,-813,-295,-53,157,-311
12610,3504,0,2023-03-01T18:50:57.903471,1647423,1274,1914,-457,-1170,-811,-301,-53,157,-311
12611,3505,0,2023-03-01T18:50:57.909333,1647429,1274,1914,-457,-1170,-811,-301,-53,157,-311
12612,3506,0,2023-03-01T18:50:57.915066,1647434,1274,1914,-457,-1170,-811,-301,-53,157,-311
12613,3507,0,2023-03-01T18:50:57.919969,1647439,1274,1914,-457,-1170,-811,-301,-53,157,-311
12614,3508,0,2023-03-01T18:50:57.924966,1647444,1273,1914,-464,-1185,-800,-302,-53,157,-311
12615,3509,0,2023-03-01T18:50:57.930504,1647451,1273,1914,-464,-1185,-800,-302,-53,157,-311
12616,3510,0,2023-03-01T18:50:57.936372,1647456,1273,1914,-464,-1185,-800,-302,-53,157,-311
12617,3511,0,2023-03-01T18:50:57.941557,1647461,1271,1911,-458,-1174,-794,-302,-53,157,-311
12618,3512,0,2023-03-01T18:50:57.947969,1647467,1271,1911,-458,-1174,-794,-302,-53,157,-311
12619,3513,0,2023-03-01T18:50:57.952982,1647472,1271,1911,-458,-1174,-794,-302,-53,157,-311
12620,3514,0,2023-03-01T18:50:57.958562,1647478,1271,1911,-458,-1174,-794,-302,-53,157,-311
12621,3515,0,2023-03-01T18:50:57.964594,1647484,1271,1915,-454,-1175,-793,-306,-53,157,-311
12622,3516,0,2023-03-01T18:50:57.970685,1647491,1271,1915,-454,-1175,-793,-306,-53,157,-311
12623,3517,0,2023-03-01T18:50:57.976729,1647497,1271,1915,-454,-1175,-793,-306,-53,157,-311
12624,3518,0,2023-03-01T18:50:57.981615,1647501,1273,1916,-459,-1175,-794,-305,-53,157,-311
12625,3519,0,2023-03-01T18:50:57.987992,1647507,1273,1916,-459,-1175,-794,-305,-53,157,-311
12626,3520,0,2023-03-01T18:50:57.992888,1647512,1273,1916,-459,-1175,-794,-305,-53,157,-311
12627,3521,0,2023-03-01T18:50:57.998656,1647518,1273,1916,-459,-1175,-794,-305,-53,157,-311
12628,3522,0,2023-03-01T18:50:58.004335,1647523,1273,1914,-451,-1173,-792,-311,-54,154,-318
12629,3523,0,2023-03-01T18:50:58.010380,1647529,1273,1914,-451,-1173,-792,-311,-54,154,-318
12630,3524,0,2023-03-01T18:50:58.016112,1647536,1273,1914,-451,-1173,-792,-311,-54,154,-318
12631,3525,0,2023-03-01T18:50:58.021183,1647541,1273,1913,-456,-1175,-795,-301,-54,154,-318
12632,3526,0,2023-03-01T18:50:58.027196,1647547,1273,1913,-456,-1175,-795,-301,-54,154,-318
12633,3527,0,2023-03-01T18:50:58.032582,1647552,1273,1913,-456,-1175,-795,-301,-54,154,-318
12634,3528,0,2023-03-01T18:50:58.037217,1647557,1273,1913,-456,-1175,-795,-301,-54,154,-318
12635,3529,0,2023-03-01T18:50:58.042050,1647562,1275,1914,-453,-1181,-786,-306,-54,154,-318
12636,3530,0,2023-03-01T18:50:58.047366,1647566,1275,1914,-453,-1181,-786,-306,-54,154,-318
12637,3531,0,2023-03-01T18:50:58.052300,1647571,1275,1914,-453,-1181,-786,-306,-54,154,-318
12638,3532,0,2023-03-01T18:50:58.057811,1647578,1275,1914,-453,-1181,-786,-306,-54,154,-318
12639,3533,0,2023-03-01T18:50:58.062750,1647583,1274,1909,-458,-1155,-803,-291,-54,154,-318
12640,3534,0,2023-03-01T18:50:58.069458,1647589,1274,1909,-458,-1155,-803,-291,-54,154,-318
12641,3535,0,2023-03-01T18:50:58.075125,1647595,1274,1909,-458,-1155,-803,-291,-54,154,-318
12642,3536,0,2023-03-01T18:50:58.080115,1647600,1274,1909,-458,-1155,-803,-291,-54,154,-318
12643,3537,0,2023-03-01T18:50:58.084762,1647604,1275,1912,-459,-1156,-795,-306,-54,154,-318
12644,3538,0,2023-03-01T18:50:58.090307,1647610,1275,1912,-459,-1156,-795,-306,-54,154,-318
12645,3539,0,2023-03-01T18:50:58.095813,1647616,1275,1912,-459,-1156,-795,-306,-54,154,-318
12646,3540,0,2023-03-01T18:50:58.100525,1647621,1275,1912,-459,-1156,-795,-306,-54,154,-318
12647,3541,0,2023-03-01T18:50:58.105519,1647625,1272,1915,-463,-1165,-791,-301,-54,154,-318
12648,3542,0,2023-03-01T18:50:58.110840,1647631,1272,1915,-463,-1165,-791,-301,-54,154,-318
12649,3543,0,2023-03-01T18:50:58.116392,1647636,1272,1915,-463,-1165,-791,-301,-54,154,-318
12650,3544,0,2023-03-01T18:50:58.121473,1647641,1273,1914,-453,-1172,-786,-294,-59,159,-319
12651,3545,0,2023-03-01T18:50:58.127302,1647647,1273,1914,-453,-1172,-786,-294,-59,159,-319
12652,3546,0,2023-03-01T18:50:58.131972,1647651,1273,1914,-453,-1172,-786,-294,-59,159,-319
12653,3547,0,2023-03-01T18:50:58.137737,1647657,1273,1914,-453,-1172,-786,-294,-59,159,-319
12654,3548,0,2023-03-01T18:50:58.142670,1647663,1275,1912,-449,-1178,-785,-310,-59,159,-319
12655,3549,0,2023-03-01T18:50:58.148514,1647668,1275,1912,-449,-1178,-785,-310,-59,159,-319
12656,3550,0,2023-03-01T18:50:58.153229,1647673,1275,1912,-449,-1178,-785,-310,-59,159,-319
12657,3551,0,2023-03-01T18:50:58.158458,1647678,1275,1912,-449,-1178,-785,-310,-59,159,-319
12658,3552,0,2023-03-01T18:50:58.163432,1647683,1273,1917,-458,-1174,-784,-306,-59,159,-319
12659,3553,0,2023-03-01T18:50:58.169359,1647689,1273,1917,-458,-1174,-784,-306,-59,159,-319
12660,3554,0,2023-03-01T18:50:58.174181,1647694,1273,1917,-458,-1174,-784,-306,-59,159,-319
12661,3555,0,2023-03-01T18:50:58.179219,1647698,1273,1917,-458,-1174,-784,-306,-59,159,-319
12662,3556,0,2023-03-01T18:50:58.184002,1647704,1274,1914,-455,-1164,-778,-307,-59,159,-319
12663,3557,0,2023-03-01T18:50:58.190016,1647710,1274,1914,-455,-1164,-778,-307,-59,159,-319
12664,3558,0,2023-03-01T18:50:58.195180,1647715,1274,1914,-455,-1164,-778,-307,-59,159,-319
12665,3559,0,2023-03-01T18:50:58.200261,1647720,1274,1914,-455,-1164,-778,-307,-59,159,-319
12666,3560,0,2023-03-01T18:50:58.205823,1647725,1275,1911,-456,-1168,-781,-301,-59,159,-319
12667,3561,0,2023-03-01T18:50:58.211249,1647731,1275,1911,-456,-1168,-781,-301,-59,159,-319
12668,3562,0,2023-03-01T18:50:58.215856,1647735,1275,1911,-456,-1168,-781,-301,-59,159,-319
12669,3563,0,2023-03-01T18:50:58.221036,1647740,1275,1911,-456,-1168,-781,-301,-59,159,-319
12670,3564,0,2023-03-01T18:50:58.225881,1647746,1273,1914,-455,-1175,-782,-301,-59,159,-319
12671,3565,0,2023-03-01T18:50:58.231656,1647751,1273,1914,-455,-1175,-782,-301,-59,159,-319
12672,3566,0,2023-03-01T18:50:58.238243,1647758,1273,1914,-455,-1175,-782,-301,-59,159,-319
12673,3567,0,2023-03-01T18:50:58.243040,1647763,1274,1910,-452,-1156,-801,-296,-53,155,-305
12674,3568,0,2023-03-01T18:50:58.248911,1647769,1274,1910,-452,-1156,-801,-296,-53,155,-305
12675,3569,0,2023-03-01T18:50:58.254335,1647774,1274,1910,-452,-1156,-801,-296,-53,155,-305
12676,3570,0,2023-03-01T18:50:58.259083,1647778,1274,1910,-452,-1156,-801,-296,-53,155,-305
12677,3571,0,2023-03-01T18:50:58.263665,1647783,1273,1913,-458,-1155,-799,-301,-53,155,-305
12678,3572,0,2023-03-01T18:50:58.269581,1647790,1273,1913,-458,-1155,-799,-301,-53,155,-305
12679,3573,0,2023-03-01T18:50:58.275214,1647795,1273,1913,-458,-1155,-799,-301,-53,155,-305
12680,3574,0,2023-03-01T18:50:58.280045,1647800,1273,1913,-458,-1155,-799,-301,-53,155,-305
12681,3575,0,2023-03-01T18:50:58.284531,1647804,1271,1911,-458,-1163,-781,-295,-53,155,-305
12682,3576,0,2023-03-01T18:50:58.289890,1647810,1271,1911,-458,-1163,-781,-295,-53,155,-305
12683,3577,0,2023-03-01T18:50:58.295521,1647815,1271,1911,-458,-1163,-781,-295,-53,155,-305
12684,3578,0,2023-03-01T18:50:58.300416,1647820,1271,1911,-458,-1163,-781,-295,-53,155,-305
12685,3579,0,2023-03-01T18:50:58.305222,1647824,1274,1914,-452,-1157,-774,-300,-53,155,-305
12686,3580,0,2023-03-01T18:50:58.310776,1647831,1274,1914,-452,-1157,-774,-300,-53,155,-305
12687,3581,0,2023-03-01T18:50:58.316510,1647837,1274,1914,-452,-1157,-774,-300,-53,155,-305
12688,3582,0,2023-03-01T18:50:58.321601,1647841,1272,1914,-453,-1160,-768,-301,-53,155,-305
12689,3583,0,2023-03-01T18:50:58.327189,1647847,1272,1914,-453,-1160,-768,-301,-53,155,-305
12690,3584,0,2023-03-01T18:50:58.331970,1647852,1272,1914,-453,-1160,-768,-301,-53,155,-305
12691,3585,0,2023-03-01T18:50:58.337603,1647857,1272,1914,-453,-1160,-768,-301,-53,155,-305
12692,3586,0,2023-03-01T18:50:58.342814,1647862,1275,1911,-458,-1158,-776,-300,-53,155,-305
12693,3587,0,2023-03-01T18:50:58.348217,1647867,1275,1911,-458,-1158,-776,-300,-53,155,-305
12694,3588,0,2023-03-01T18:50:58.353400,1647873,1275,1911,-458,-1158,-776,-300,-53,155,-305
12695,3589,0,2023-03-01T18:50:58.358882,1647879,1275,1911,-458,-1158,-776,-300,-53,155,-305
12696,3590,0,2023-03-01T18:50:58.363490,1647883,1277,1919,-454,-1162,-769,-304,-53,155,-305
12697,3591,0,2023-03-01T18:50:58.369004,1647889,1277,1919,-454,-1162,-769,-304,-53,155,-305
12698,3592,0,2023-03-01T18:50:58.373798,1647894,1277,1919,-454,-1162,-769,-304,-53,155,-305
12699,3593,0,2023-03-01T18:50:58.378239,1647898,1277,1919,-454,-1162,-769,-304,-53,155,-305
12700,3594,0,2023-03-01T18:50:58.383487,1647902,1277,1911,-452,-1158,-768,-296,-52,154,-310
12701,3595,0,2023-03-01T18:50:58.388776,1647908,1277,1911,-452,-1158,-768,-296,-52,154,-310
12702,3596,0,2023-03-01T18:50:58.393658,1647913,1277,1911,-452,-1158,-768,-296,-52,154,-310
12703,3597,0,2023-03-01T18:50:58.399849,1647919,1277,1911,-452,-1158,-768,-296,-52,154,-310
12704,3598,0,2023-03-01T18:50:58.405360,1647925,1277,1914,-453,-1163,-766,-306,-52,154,-310
12705,3599,0,2023-03-01T18:50:58.411691,1647931,1277,1914,-453,-1163,-766,-306,-52,154,-310
12706,3600,0,2023-03-01T18:50:58.417177,1647937,1277,1914,-453,-1163,-766,-306,-52,154,-310
12707,3601,0,2023-03-01T18:50:58.422275,1647942,1277,1913,-452,-1156,-803,-295,-52,154,-310
12708,3602,0,2023-03-01T18:50:58.428967,1647948,1277,1913,-452,-1156,-803,-295,-52,154,-310
12709,3603,0,2023-03-01T18:50:58.433679,1647953,1277,1913,-452,-1156,-803,-295,-52,154,-310
12710,3604,0,2023-03-01T18:50:58.439540,1647959,1277,1913,-452,-1156,-803,-295,-52,154,-310
12711,3605,0,2023-03-01T18:50:58.444283,1647964,1275,1910,-459,-1165,-824,-304,-52,154,-310
12712,3606,0,2023-03-01T18:50:58.450827,1647970,1275,1910,-459,-1165,-824,-304,-52,154,-310
12713,3607,0,2023-03-01T18:50:58.456264,1647976,1275,1910,-459,-1165,-824,-304,-52,154,-310
12714,3608,0,2023-03-01T18:50:58.461267,1647981,1275,1910,-459,-1165,-824,-304,-52,154,-310
12715,3609,0,2023-03-01T18:50:58.466238,1647986,1276,1913,-457,-1189,-813,-303,-52,154,-310
12716,3610,0,2023-03-01T18:50:58.472095,1647991,1276,1913,-457,-1189,-813,-303,-52,154,-310
12717,3611,0,2023-03-01T18:50:58.477786,1647997,1276,1913,-457,-1189,-813,-303,-52,154,-310
12718,3612,0,2023-03-01T18:50:58.482822,1648003,1274,1911,-460,-1190,-809,-308,-52,154,-310
12719,3613,0,2023-03-01T18:50:58.488281,1648008,1274,1911,-460,-1190,-809,-308,-52,154,-310
12720,3614,0,2023-03-01T18:50:58.493259,1648013,1274,1911,-460,-1190,-809,-308,-52,154,-310
12721,3615,0,2023-03-01T18:50:58.498892,1648019,1274,1911,-460,-1190,-809,-308,-52,154,-310
12722,3616,0,2023-03-01T18:50:58.503963,1648023,1271,1914,-448,-1195,-806,-304,-54,158,-312
12723,3617,0,2023-03-01T18:50:58.510201,1648030,1271,1914,-448,-1195,-806,-304,-54,158,-312
12724,3618,0,2023-03-01T18:50:58.516546,1648035,1271,1914,-448,-1195,-806,-304,-54,158,-312
12725,3619,0,2023-03-01T18:50:58.521505,1648041,1278,1916,-459,-1178,-812,-302,-54,158,-312
12726,3620,0,2023-03-01T18:50:58.527709,1648048,1278,1916,-459,-1178,-812,-302,-54,158,-312
12727,3621,0,2023-03-01T18:50:58.532586,1648052,1278,1916,-459,-1178,-812,-302,-54,158,-312
12728,3622,0,2023-03-01T18:50:58.538569,1648058,1278,1916,-459,-1178,-812,-302,-54,158,-312
12729,3623,0,2023-03-01T18:50:58.544159,1648064,1275,1914,-455,-1182,-810,-298,-54,158,-312
12730,3624,0,2023-03-01T18:50:58.550424,1648070,1275,1914,-455,-1182,-810,-298,-54,158,-312
12731,3625,0,2023-03-01T18:50:58.555488,1648075,1275,1914,-455,-1182,-810,-298,-54,158,-312
12732,3626,0,2023-03-01T18:50:58.560238,1648080,1275,1914,-455,-1182,-810,-298,-54,158,-312
12733,3627,0,2023-03-01T18:50:58.565402,1648084,1277,1909,-457,-1183,-800,-300,-54,158,-312
12734,3628,0,2023-03-01T18:50:58.571638,1648092,1277,1909,-457,-1183,-800,-300,-54,158,-312
12735,3629,0,2023-03-01T18:50:58.577127,1648097,1277,1909,-457,-1183,-800,-300,-54,158,-312
12736,3630,0,2023-03-01T18:50:58.581953,1648102,1274,1914,-456,-1181,-784,-310,-54,158,-312
12737,3631,0,2023-03-01T18:50:58.588615,1648108,1274,1914,-456,-1181,-784,-310,-54,158,-312
12738,3632,0,2023-03-01T18:50:58.593705,1648113,1274,1914,-456,-1181,-784,-310,-54,158,-312
12739,3633,0,2023-03-01T18:50:58.599271,1648119,1274,1914,-456,-1181,-784,-310,-54,158,-312
12740,3634,0,2023-03-01T18:50:58.604270,1648124,1277,1912,-459,-1164,-803,-302,-54,158,-312
12741,3635,0,2023-03-01T18:50:58.610432,1648131,1277,1912,-459,-1164,-803,-302,-54,158,-312
12742,3636,0,2023-03-01T18:50:58.615804,1648136,1277,1912,-459,-1164,-803,-302,-54,158,-312
12743,3637,0,2023-03-01T18:50:58.620802,1648140,1277,1912,-459,-1164,-803,-302,-54,158,-312
12744,3638,0,2023-03-01T18:50:58.625882,1648146,1274,1912,-463,-1166,-802,-301,-54,158,-312
12745,3639,0,2023-03-01T18:50:58.631750,1648151,1274,1912,-463,-1166,-802,-301,-54,158,-312
12746,3640,0,2023-03-01T18:50:58.637643,1648157,1274,1912,-463,-1166,-802,-301,-54,158,-312
12747,3641,0,2023-03-01T18:50:58.642542,1648162,1277,1914,-457,-1170,-786,-297,-52,148,-314
12748,3642,0,2023-03-01T18:50:58.648634,1648168,1277,1914,-457,-1170,-786,-297,-52,148,-314
12749,3643,0,2023-03-01T18:50:58.653909,1648174,1277,1914,-457,-1170,-786,-297,-52,148,-314
12750,3644,0,2023-03-01T18:50:58.659084,1648179,1277,1914,-457,-1170,-786,-297,-52,148,-314
12751,3645,0,2023-03-01T18:50:58.663620,1648184,1271,1909,-458,-1169,-789,-299,-52,148,-314
12752,3646,0,2023-03-01T18:50:58.669258,1648189,1271,1909,-458,-1169,-789,-299,-52,148,-314
12753,3647,0,2023-03-01T18:50:58.674677,1648194,1271,1909,-458,-1169,-789,-299,-52,148,-314
12754,3648,0,2023-03-01T18:50:58.679870,1648199,1271,1909,-458,-1169,-789,-299,-52,148,-314
12755,3649,0,2023-03-01T18:50:58.684722,1648204,1274,1911,-455,-1166,-784,-308,-52,148,-314
12756,3650,0,2023-03-01T18:50:58.689871,1648209,1274,1911,-455,-1166,-784,-308,-52,148,-314
12757,3651,0,2023-03-01T18:50:58.694809,1648215,1274,1911,-455,-1166,-784,-308,-52,148,-314
12758,3652,0,2023-03-01T18:50:58.699545,1648220,1274,1911,-455,-1166,-784,-308,-52,148,-314
12759,3653,0,2023-03-01T18:50:58.704413,1648224,1275,1914,-462,-1180,-790,-302,-52,148,-314
12760,3654,0,2023-03-01T18:50:58.710367,1648230,1275,1914,-462,-1180,-790,-302,-52,148,-314
12761,3655,0,2023-03-01T18:50:58.715385,1648235,1275,1914,-462,-1180,-790,-302,-52,148,-314
12762,3656,0,2023-03-01T18:50:58.720360,1648240,1275,1914,-462,-1180,-790,-302,-52,148,-314
12763,3657,0,2023-03-01T18:50:58.725301,1648245,1277,1915,-457,-1182,-783,-302,-52,148,-314
12764,3658,0,2023-03-01T18:50:58.730487,1648250,1277,1915,-457,-1182,-783,-302,-52,148,-314
12765,3659,0,2023-03-01T18:50:58.735472,1648256,1277,1915,-457,-1182,-783,-302,-52,148,-314
12766,3660,0,2023-03-01T18:50:58.740054,1648260,1277,1915,-457,-1182,-783,-302,-52,148,-314
12767,3661,0,2023-03-01T18:50:58.745462,1648265,1275,1911,-462,-1178,-789,-297,-52,148,-314
12768,3662,0,2023-03-01T18:50:58.752068,1648272,1275,1911,-462,-1178,-789,-297,-52,148,-314
12769,3663,0,2023-03-01T18:50:58.757824,1648277,1275,1911,-462,-1178,-789,-297,-52,148,-314
12770,3664,0,2023-03-01T18:50:58.762755,1648282,1278,1915,-448,-1176,-780,-303,-53,159,-313
12771,3665,0,2023-03-01T18:50:58.768944,1648288,1278,1915,-448,-1176,-780,-303,-53,159,-313
12772,3666,0,2023-03-01T18:50:58.773936,1648293,1278,1915,-448,-1176,-780,-303,-53,159,-313
12773,3667,0,2023-03-01T18:50:58.779210,1648300,1278,1915,-448,-1176,-780,-303,-53,159,-313
12774,3668,0,2023-03-01T18:50:58.784156,1648304,1275,1918,-454,-1171,-794,-295,-53,159,-313
12775,3669,0,2023-03-01T18:50:58.790299,1648310,1275,1918,-454,-1171,-794,-295,-53,159,-313
12776,3670,0,2023-03-01T18:50:58.796149,1648316,1275,1918,-454,-1171,-794,-295,-53,159,-313
12777,3671,0,2023-03-01T18:50:58.801077,1648321,1275,1918,-454,-1171,-794,-295,-53,159,-313
12778,3672,0,2023-03-01T18:50:58.806002,1648325,1278,1915,-458,-1151,-809,-299,-53,159,-313
12779,3673,0,2023-03-01T18:50:58.811254,1648331,1278,1915,-458,-1151,-809,-299,-53,159,-313
12780,3674,0,2023-03-01T18:50:58.816844,1648336,1278,1915,-458,-1151,-809,-299,-53,159,-313
12781,3675,0,2023-03-01T18:50:58.821743,1648342,1278,1915,-458,-1151,-809,-299,-53,159,-313
12782,3676,0,2023-03-01T18:50:58.826503,1648346,1272,1908,-459,-1166,-795,-296,-53,159,-313
12783,3677,0,2023-03-01T18:50:58.831880,1648352,1272,1908,-459,-1166,-795,-296,-53,159,-313
12784,3678,0,2023-03-01T18:50:58.837883,1648357,1272,1908,-459,-1166,-795,-296,-53,159,-313
12785,3679,0,2023-03-01T18:50:58.843249,1648363,1277,1913,-461,-1175,-789,-298,-53,159,-313
12786,3680,0,2023-03-01T18:50:58.849413,1648369,1277,1913,-461,-1175,-789,-298,-53,159,-313
12787,3681,0,2023-03-01T18:50:58.854819,1648374,1277,1913,-461,-1175,-789,-298,-53,159,-313
12788,3682,0,2023-03-01T18:50:58.859756,1648379,1277,1913,-461,-1175,-789,-298,-53,159,-313
12789,3683,0,2023-03-01T18:50:58.864808,1648385,1276,1916,-458,-1175,-783,-311,-53,159,-313
12790,3684,0,2023-03-01T18:50:58.870816,1648391,1276,1916,-458,-1175,-783,-311,-53,159,-313
12791,3685,0,2023-03-01T18:50:58.876694,1648396,1276,1916,-458,-1175,-783,-311,-53,159,-313
12792,3686,0,2023-03-01T18:50:58.881502,1648401,1276,1916,-458,-1175,-783,-311,-53,159,-313
12793,3687,0,2023-03-01T18:50:58.886526,1648406,1275,1915,-449,-1175,-794,-306,-60,160,-314
12794,3688,0,2023-03-01T18:50:58.892172,1648411,1275,1915,-449,-1175,-794,-306,-60,160,-314
12795,3689,0,2023-03-01T18:50:58.897741,1648417,1275,1915,-449,-1175,-794,-306,-60,160,-314
12796,3690,0,2023-03-01T18:50:58.902558,1648422,1275,1914,-452,-1175,-785,-303,-60,160,-314
12797,3691,0,2023-03-01T18:50:58.908208,1648428,1275,1914,-452,-1175,-785,-303,-60,160,-314
12798,3692,0,2023-03-01T18:50:58.913178,1648433,1275,1914,-452,-1175,-785,-303,-60,160,-314
12799,3693,0,2023-03-01T18:50:58.918513,1648438,1275,1914,-452,-1175,-785,-303,-60,160,-314
12800,3694,0,2023-03-01T18:50:58.923416,1648443,1278,1909,-458,-1181,-795,-301,-60,160,-314
12801,3695,0,2023-03-01T18:50:58.929610,1648449,1278,1909,-458,-1181,-795,-301,-60,160,-314
12802,3696,0,2023-03-01T18:50:58.935234,1648455,1278,1909,-458,-1181,-795,-301,-60,160,-314
12803,3697,0,2023-03-01T18:50:58.940326,1648459,1278,1909,-458,-1181,-795,-301,-60,160,-314
12804,3698,0,2023-03-01T18:50:58.945092,1648464,1277,1910,-459,-1171,-793,-305,-60,160,-314
12805,3699,0,2023-03-01T18:50:58.951640,1648471,1277,1910,-459,-1171,-793,-305,-60,160,-314
12806,3700,0,2023-03-01T18:50:58.957225,1648477,1277,1910,-459,-1171,-793,-305,-60,160,-314
12807,3701,0,2023-03-01T18:50:58.963515,1648483,1276,1919,-459,-1169,-797,-301,-60,160,-314
12808,3702,0,2023-03-01T18:50:58.969928,1648490,1276,1919,-459,-1169,-797,-301,-60,160,-314
12809,3703,0,2023-03-01T18:50:58.975533,1648495,1276,1919,-459,-1169,-797,-301,-60,160,-314
12810,3704,0,2023-03-01T18:50:58.980401,1648500,1276,1919,-459,-1169,-797,-301,-60,160,-314
12811,3705,0,2023-03-01T18:50:58.985383,1648505,1276,1907,-459,-1167,-824,-295,-60,160,-314
12812,3706,0,2023-03-01T18:50:58.991493,1648512,1276,1907,-459,-1167,-824,-295,-60,160,-314
12813,3707,0,2023-03-01T18:50:58.997324,1648517,1276,1907,-459,-1167,-824,-295,-60,160,-314
12814,3708,0,2023-03-01T18:50:59.002305,1648522,1277,1913,-459,-1178,-802,-305,-60,160,-314
12815,3709,0,2023-03-01T18:50:59.008532,1648528,1277,1913,-459,-1178,-802,-305,-60,160,-314
12816,3710,0,2023-03-01T18:50:59.013468,1648533,1277,1913,-459,-1178,-802,-305,-60,160,-314
12817,3711,0,2023-03-01T18:50:59.018995,1648539,1277,1913,-459,-1178,-802,-305,-60,160,-314
12818,3712,0,2023-03-01T18:50:59.024107,1648543,1275,1914,-457,-1185,-799,-294,-46,156,-312
12819,3713,0,2023-03-01T18:50:59.029705,1648549,1275,1914,-457,-1185,-799,-294,-46,156,-312
12820,3714,0,2023-03-01T18:50:59.035910,1648556,1275,1914,-457,-1185,-799,-294,-46,156,-312
12821,3715,0,2023-03-01T18:50:59.040693,1648561,1275,1914,-457,-1185,-799,-294,-46,156,-312
12822,3716,0,2023-03-01T18:50:59.045760,1648565,1277,1914,-451,-1183,-797,-300,-46,156,-312
12823,3717,0,2023-03-01T18:50:59.052089,1648571,1277,1914,-451,-1183,-797,-300,-46,156,-312
12824,3718,0,2023-03-01T18:50:59.057684,1648577,1277,1914,-451,-1183,-797,-300,-46,156,-312
12825,3719,0,2023-03-01T18:50:59.062765,1648582,1278,1914,-465,-1191,-805,-301,-46,156,-312
12826,3720,0,2023-03-01T18:50:59.068762,1648588,1278,1914,-465,-1191,-805,-301,-46,156,-312
12827,3721,0,2023-03-01T18:50:59.073679,1648593,1278,1914,-465,-1191,-805,-301,-46,156,-312
12828,3722,0,2023-03-01T18:50:59.079270,1648599,1278,1914,-465,-1191,-805,-301,-46,156,-312
12829,3723,0,2023-03-01T18:50:59.084067,1648604,1277,1911,-456,-1186,-792,-309,-46,156,-312
12830,3724,0,2023-03-01T18:50:59.090049,1648610,1277,1911,-456,-1186,-792,-309,-46,156,-312
12831,3725,0,2023-03-01T18:50:59.095188,1648615,1277,1911,-456,-1186,-792,-309,-46,156,-312
12832,3726,0,2023-03-01T18:50:59.099942,1648620,1277,1911,-456,-1186,-792,-309,-46,156,-312
12833,3727,0,2023-03-01T18:50:59.104934,1648624,1276,1912,-457,-1177,-790,-304,-46,156,-312
12834,3728,0,2023-03-01T18:50:59.111325,1648631,1276,1912,-457,-1177,-790,-304,-46,156,-312
12835,3729,0,2023-03-01T18:50:59.116773,1648636,1276,1912,-457,-1177,-790,-304,-46,156,-312
12836,3730,0,2023-03-01T18:50:59.121537,1648642,1276,1912,-457,-1177,-790,-304,-46,156,-312
12837,3731,0,2023-03-01T18:50:59.127306,1648647,1276,1913,-457,-1182,-788,-304,-46,156,-312
12838,3732,0,2023-03-01T18:50:59.132728,1648653,1276,1913,-457,-1182,-788,-304,-46,156,-312
12839,3733,0,2023-03-01T18:50:59.138247,1648658,1276,1913,-457,-1182,-788,-304,-46,156,-312
12840,3734,0,2023-03-01T18:50:59.143714,1648663,1276,1915,-453,-1185,-790,-296,-52,150,-296
12841,3735,0,2023-03-01T18:50:59.149832,1648669,1276,1915,-453,-1185,-790,-296,-52,150,-296
12842,3736,0,2023-03-01T18:50:59.155335,1648674,1276,1915,-453,-1185,-790,-296,-52,150,-296
12843,3737,0,2023-03-01T18:50:59.160400,1648680,1276,1915,-453,-1185,-790,-296,-52,150,-296
12844,3738,0,2023-03-01T18:50:59.167332,1648687,1276,1910,-457,-1169,-806,-294,-52,150,-296
12845,3739,0,2023-03-01T18:50:59.173349,1648693,1276,1910,-457,-1169,-806,-294,-52,150,-296
12846,3740,0,2023-03-01T18:50:59.178386,1648698,1276,1910,-457,-1169,-806,-294,-52,150,-296
12847,3741,0,2023-03-01T18:50:59.183451,1648703,1278,1913,-451,-1166,-786,-309,-52,150,-296
12848,3742,0,2023-03-01T18:50:59.193158,1648712,1278,1913,-451,-1166,-786,-309,-52,150,-296
12849,3743,0,2023-03-01T18:50:59.199052,1648718,1278,1913,-451,-1166,-786,-309,-52,150,-296
12850,3744,0,2023-03-01T18:50:59.204034,1648723,1275,1912,-458,-1165,-782,-301,-52,150,-296
12851,3745,0,2023-03-01T18:50:59.209367,1648730,1275,1912,-458,-1165,-782,-301,-52,150,-296
12852,3746,0,2023-03-01T18:50:59.214157,1648734,1275,1912,-458,-1165,-782,-301,-52,150,-296
12853,3747,0,2023-03-01T18:50:59.219305,1648739,1275,1912,-458,-1165,-782,-301,-52,150,-296
12854,3748,0,2023-03-01T18:50:59.224537,1648744,1277,1913,-461,-1171,-785,-295,-52,150,-296
12855,3749,0,2023-03-01T18:50:59.231064,1648751,1277,1913,-461,-1171,-785,-295,-52,150,-296
12856,3750,0,2023-03-01T18:50:59.236706,1648756,1277,1913,-461,-1171,-785,-295,-52,150,-296
12857,3751,0,2023-03-01T18:50:59.242030,1648761,1277,1913,-461,-1171,-785,-295,-52,150,-296
12858,3752,0,2023-03-01T18:50:59.246692,1648766,1277,1915,-458,-1163,-774,-301,-52,150,-296
12859,3753,0,2023-03-01T18:50:59.252201,1648772,1277,1915,-458,-1163,-774,-301,-52,150,-296
12860,3754,0,2023-03-01T18:50:59.257877,1648778,1277,1915,-458,-1163,-774,-301,-52,150,-296
12861,3755,0,2023-03-01T18:50:59.262920,1648783,1276,1913,-457,-1176,-783,-296,-52,150,-296
12862,3756,0,2023-03-01T18:50:59.268892,1648789,1276,1913,-457,-1176,-783,-296,-52,150,-296
12863,3757,0,2023-03-01T18:50:59.274925,1648794,1276,1913,-457,-1176,-783,-296,-52,150,-296
12864,3758,0,2023-03-01T18:50:59.280314,1648800,1276,1913,-457,-1176,-783,-296,-52,150,-296
12865,3759,0,2023-03-01T18:50:59.285039,1648804,1281,1913,-452,-1185,-799,-299,-59,157,-315
12866,3760,0,2023-03-01T18:50:59.290707,1648811,1281,1913,-452,-1185,-799,-299,-59,157,-315
12867,3761,0,2023-03-01T18:50:59.296252,1648816,1281,1913,-452,-1185,-799,-299,-59,157,-315
12868,3762,0,2023-03-01T18:50:59.301253,1648821,1281,1913,-452,-1185,-799,-299,-59,157,-315
12869,3763,0,2023-03-01T18:50:59.306740,1648826,1277,1909,-462,-1180,-783,-298,-59,157,-315
12870,3764,0,2023-03-01T18:50:59.312489,1648832,1277,1909,-462,-1180,-783,-298,-59,157,-315
12871,3765,0,2023-03-01T18:50:59.317885,1648837,1277,1909,-462,-1180,-783,-298,-59,157,-315
12872,3766,0,2023-03-01T18:50:59.322459,1648842,1278,1922,-458,-1179,-787,-307,-59,157,-315
12873,3767,0,2023-03-01T18:50:59.328855,1648848,1278,1922,-458,-1179,-787,-307,-59,157,-315
12874,3768,0,2023-03-01T18:50:59.333906,1648854,1278,1922,-458,-1179,-787,-307,-59,157,-315
12875,3769,0,2023-03-01T18:50:59.339208,1648859,1278,1922,-458,-1179,-787,-307,-59,157,-315
12876,3770,0,2023-03-01T18:50:59.344405,1648864,1274,1907,-460,-1158,-812,-297,-59,157,-315
12877,3771,0,2023-03-01T18:50:59.350402,1648870,1274,1907,-460,-1158,-812,-297,-59,157,-315
12878,3772,0,2023-03-01T18:50:59.356384,1648876,1274,1907,-460,-1158,-812,-297,-59,157,-315
12879,3773,0,2023-03-01T18:50:59.361601,1648881,1274,1907,-460,-1158,-812,-297,-59,157,-315
12880,3774,0,2023-03-01T18:50:59.366099,1648886,1275,1912,-454,-1172,-792,-304,-59,157,-315
12881,3775,0,2023-03-01T18:50:59.371345,1648891,1275,1912,-454,-1172,-792,-304,-59,157,-315
12882,3776,0,2023-03-01T18:50:59.377272,1648897,1275,1912,-454,-1172,-792,-304,-59,157,-315
12883,3777,0,2023-03-01T18:50:59.382391,1648902,1275,1912,-454,-1172,-792,-304,-59,157,-315
12884,3778,0,2023-03-01T18:50:59.387177,1648907,1277,1908,-459,-1168,-791,-293,-59,157,-315
12885,3779,0,2023-03-01T18:50:59.392631,1648912,1277,1908,-459,-1168,-791,-293,-59,157,-315
12886,3780,0,2023-03-01T18:50:59.397837,1648918,1277,1908,-459,-1168,-791,-293,-59,157,-315
12887,3781,0,2023-03-01T18:50:59.402602,1648922,1276,1915,-449,-1170,-773,-306,-59,157,-315
12888,3782,0,2023-03-01T18:50:59.408140,1648928,1276,1915,-449,-1170,-773,-306,-52,166,-312
12889,3783,0,2023-03-01T18:50:59.413061,1648932,1276,1915,-449,-1170,-773,-306,-52,166,-312
12890,3784,0,2023-03-01T18:50:59.418658,1648939,1276,1915,-449,-1170,-773,-306,-52,166,-312
12891,3785,0,2023-03-01T18:50:59.423328,1648943,1280,1913,-456,-1170,-773,-301,-52,166,-312
12892,3786,0,2023-03-01T18:50:59.429149,1648949,1280,1913,-456,-1170,-773,-301,-52,166,-312
12893,3787,0,2023-03-01T18:50:59.434061,1648954,1280,1913,-456,-1170,-773,-301,-52,166,-312
12894,3788,0,2023-03-01T18:50:59.438896,1648959,1280,1913,-456,-1170,-773,-301,-52,166,-312
12895,3789,0,2023-03-01T18:50:59.443684,1648963,1273,1910,-457,-1176,-775,-306,-52,166,-312
12896,3790,0,2023-03-01T18:50:59.450190,1648970,1273,1910,-457,-1176,-775,-306,-52,166,-312
12897,3791,0,2023-03-01T18:50:59.455664,1648975,1273,1910,-457,-1176,-775,-306,-52,166,-312
12898,3792,0,2023-03-01T18:50:59.460677,1648980,1273,1910,-457,-1176,-775,-306,-52,166,-312
12899,3793,0,2023-03-01T18:50:59.465474,1648986,1277,1909,-451,-1174,-771,-307,-52,166,-312
12900,3794,0,2023-03-01T18:50:59.471231,1648991,1277,1909,-451,-1174,-771,-307,-52,166,-312
12901,3795,0,2023-03-01T18:50:59.476480,1648996,1277,1909,-451,-1174,-771,-307,-52,166,-312
12902,3796,0,2023-03-01T18:50:59.481429,1649001,1277,1909,-451,-1174,-771,-307,-52,166,-312
12903,3797,0,2023-03-01T18:50:59.487132,1649007,1281,1912,-460,-1176,-762,-314,-52,166,-312
12904,3798,0,2023-03-01T18:50:59.492595,1649012,1281,1912,-460,-1176,-762,-314,-52,166,-312
12905,3799,0,2023-03-01T18:50:59.498014,1649017,1281,1912,-460,-1176,-762,-314,-52,166,-312
12906,3800,0,2023-03-01T18:50:59.503065,1649022,1282,1918,-452,-1161,-767,-311,-52,166,-312
12907,3801,0,2023-03-01T18:50:59.509017,1649029,1282,1918,-452,-1161,-767,-311,-52,166,-312
12908,3802,0,2023-03-01T18:50:59.514000,1649034,1282,1918,-452,-1161,-767,-311,-52,166,-312
12909,3803,0,2023-03-01T18:50:59.520282,1649039,1282,1918,-452,-1161,-767,-311,-52,166,-312
12910,3804,0,2023-03-01T18:50:59.525208,1649045,1274,1908,-461,-1140,-794,-295,-52,166,-312
12911,3805,0,2023-03-01T18:50:59.531429,1649051,1274,1908,-461,-1140,-794,-295,-52,166,-312
12912,3806,0,2023-03-01T18:50:59.536221,1649056,1274,1908,-461,-1140,-794,-295,-52,166,-312
12913,3807,0,2023-03-01T18:50:59.541375,1649061,1274,1908,-461,-1140,-794,-295,-52,166,-312
12914,3808,0,2023-03-01T18:50:59.546530,1649065,1276,1911,-452,-1152,-771,-298,-47,153,-315
12915,3809,0,2023-03-01T18:50:59.554070,1649074,1276,1911,-452,-1152,-771,-298,-47,153,-315
12916,3810,0,2023-03-01T18:50:59.559833,1649080,1276,1911,-452,-1152,-771,-298,-47,153,-315
12917,3811,0,2023-03-01T18:50:59.564520,1649084,1280,1911,-450,-1156,-770,-299,-47,153,-315
12918,3812,0,2023-03-01T18:50:59.570500,1649090,1280,1911,-450,-1156,-770,-299,-47,153,-315
12919,3813,0,2023-03-01T18:50:59.576360,1649096,1280,1911,-450,-1156,-770,-299,-47,153,-315
12920,3814,0,2023-03-01T18:50:59.581523,1649101,1280,1911,-450,-1156,-770,-299,-47,153,-315
12921,3815,0,2023-03-01T18:50:59.586356,1649106,1282,1916,-459,-1159,-763,-309,-47,153,-315
12922,3816,0,2023-03-01T18:50:59.591657,1649112,1282,1916,-459,-1159,-763,-309,-47,153,-315
12923,3817,0,2023-03-01T18:50:59.597068,1649117,1282,1916,-459,-1159,-763,-309,-47,153,-315
12924,3818,0,2023-03-01T18:50:59.602678,1649122,1282,1916,-459,-1159,-763,-309,-47,153,-315
12925,3819,0,2023-03-01T18:50:59.608666,1649128,1280,1908,-458,-1165,-775,-302,-47,153,-315
12926,3820,0,2023-03-01T18:50:59.614472,1649134,1280,1908,-458,-1165,-775,-302,-47,153,-315
12927,3821,0,2023-03-01T18:50:59.619954,1649140,1280,1908,-458,-1165,-775,-302,-47,153,-315
12928,3822,0,2023-03-01T18:50:59.624584,1649144,1278,1910,-456,-1179,-775,-305,-47,153,-315
12929,3823,0,2023-03-01T18:50:59.630894,1649150,1278,1910,-456,-1179,-775,-305,-47,153,-315
12930,3824,0,2023-03-01T18:50:59.636320,1649156,1278,1910,-456,-1179,-775,-305,-47,153,-315
12931,3825,0,2023-03-01T18:50:59.641931,1649162,1278,1910,-456,-1179,-775,-305,-47,153,-315
12932,3826,0,2023-03-01T18:50:59.646567,1649166,1277,1912,-459,-1173,-770,-305,-47,153,-315
12933,3827,0,2023-03-01T18:50:59.651814,1649172,1277,1912,-459,-1173,-770,-305,-47,153,-315
12934,3828,0,2023-03-01T18:50:59.657200,1649177,1277,1912,-459,-1173,-770,-305,-47,153,-315
12935,3829,0,2023-03-01T18:50:59.662504,1649182,1277,1912,-459,-1173,-770,-305,-47,153,-315
12936,3830,0,2023-03-01T18:50:59.667924,1649187,1283,1912,-453,-1172,-775,-306,-48,160,-306
12937,3831,0,2023-03-01T18:50:59.673507,1649193,1283,1912,-453,-1172,-775,-306,-48,160,-306
12938,3832,0,2023-03-01T18:50:59.678643,1649199,1283,1912,-453,-1172,-775,-306,-48,160,-306
12939,3833,0,2023-03-01T18:50:59.684148,1649204,1282,1917,-454,-1169,-778,-308,-48,160,-306
12940,3834,0,2023-03-01T18:50:59.690234,1649210,1282,1917,-454,-1169,-778,-308,-48,160,-306
12941,3835,0,2023-03-01T18:50:59.696439,1649216,1282,1917,-454,-1169,-778,-308,-48,160,-306
12942,3836,0,2023-03-01T18:50:59.701494,1649221,1282,1917,-454,-1169,-778,-308,-48,160,-306
12943,3837,0,2023-03-01T18:50:59.706259,1649226,1279,1909,-461,-1138,-800,-292,-48,160,-306
12944,3838,0,2023-03-01T18:50:59.713001,1649232,1279,1909,-461,-1138,-800,-292,-48,160,-306
12945,3839,0,2023-03-01T18:50:59.718596,1649239,1279,1909,-461,-1138,-800,-292,-48,160,-306
12946,3840,0,2023-03-01T18:50:59.724771,1649244,1279,1911,-450,-1149,-779,-308,-48,160,-306
12947,3841,0,2023-03-01T18:50:59.730534,1649251,1279,1911,-450,-1149,-779,-308,-48,160,-306
12948,3842,0,2023-03-01T18:50:59.735750,1649256,1279,1911,-450,-1149,-779,-308,-48,160,-306
12949,3843,0,2023-03-01T18:50:59.740357,1649260,1279,1911,-450,-1149,-779,-308,-48,160,-306
12950,3844,0,2023-03-01T18:50:59.745325,1649265,1281,1913,-465,-1171,-787,-299,-48,160,-306
12951,3845,0,2023-03-01T18:50:59.750192,1649269,1281,1913,-465,-1171,-787,-299,-48,160,-306
12952,3846,0,2023-03-01T18:50:59.756091,1649275,1281,1913,-465,-1171,-787,-299,-48,160,-306
12953,3847,0,2023-03-01T18:50:59.760928,1649281,1281,1913,-465,-1171,-787,-299,-48,160,-306
12954,3848,0,2023-03-01T18:50:59.765646,1649286,1276,1912,-456,-1171,-771,-302,-48,160,-306
12955,3849,0,2023-03-01T18:50:59.771788,1649292,1276,1912,-456,-1171,-771,-302,-48,160,-306
12956,3850,0,2023-03-01T18:50:59.777561,1649297,1276,1912,-456,-1171,-771,-302,-48,160,-306
12957,3851,0,2023-03-01T18:50:59.782450,1649302,1276,1912,-456,-1171,-771,-302,-48,160,-306
12958,3852,0,2023-03-01T18:50:59.787810,1649307,1279,1909,-452,-1167,-779,-296,-51,163,-301
12959,3853,0,2023-03-01T18:50:59.794625,1649314,1279,1909,-452,-1167,-779,-296,-51,163,-301
12960,3854,0,2023-03-01T18:50:59.800141,1649320,1279,1909,-452,-1167,-779,-296,-51,163,-301
12961,3855,0,2023-03-01T18:50:59.805000,1649325,1280,1915,-454,-1179,-782,-302,-51,163,-301
12962,3856,0,2023-03-01T18:50:59.810968,1649331,1280,1915,-454,-1179,-782,-302,-51,163,-301
12963,3857,0,2023-03-01T18:50:59.816471,1649336,1280,1915,-454,-1179,-782,-302,-51,163,-301
12964,3858,0,2023-03-01T18:50:59.822515,1649342,1280,1915,-454,-1179,-782,-302,-51,163,-301
12965,3859,0,2023-03-01T18:50:59.827658,1649347,1277,1912,-456,-1180,-779,-298,-51,163,-301
12966,3860,0,2023-03-01T18:50:59.833191,1649353,1277,1912,-456,-1180,-779,-298,-51,163,-301
12967,3861,0,2023-03-01T18:50:59.838496,1649358,1277,1912,-456,-1180,-779,-298,-51,163,-301
12968,3862,0,2023-03-01T18:50:59.843306,1649363,1281,1911,-461,-1182,-782,-299,-51,163,-301
12969,3863,0,2023-03-01T18:50:59.849418,1649370,1281,1911,-461,-1182,-782,-299,-51,163,-301
12970,3864,0,2023-03-01T18:50:59.854804,1649375,1281,1911,-461,-1182,-782,-299,-51,163,-301
12971,3865,0,2023-03-01T18:50:59.859613,1649380,1281,1911,-461,-1182,-782,-299,-51,163,-301
12972,3866,0,2023-03-01T18:50:59.864898,1649385,1280,1912,-463,-1171,-780,-307,-51,163,-301
12973,3867,0,2023-03-01T18:50:59.871358,1649391,1280,1912,-463,-1171,-780,-307,-51,163,-301
12974,3868,0,2023-03-01T18:50:59.876785,1649396,1280,1912,-463,-1171,-780,-307,-51,163,-301
12975,3869,0,2023-03-01T18:50:59.881821,1649401,1280,1912,-463,-1171,-780,-307,-51,163,-301
12976,3870,0,2023-03-01T18:50:59.887534,1649408,1277,1907,-448,-1151,-797,-303,-51,163,-301
12977,3871,0,2023-03-01T18:50:59.893162,1649413,1277,1907,-448,-1151,-797,-303,-51,163,-301
12978,3872,0,2023-03-01T18:50:59.898854,1649419,1277,1907,-448,-1151,-797,-303,-51,163,-301
12979,3873,0,2023-03-01T18:50:59.903999,1649424,1278,1914,-456,-1162,-791,-304,-51,163,-301
12980,3874,0,2023-03-01T18:50:59.909951,1649430,1278,1914,-456,-1162,-791,-304,-51,163,-301
12981,3875,0,2023-03-01T18:50:59.914529,1649434,1278,1914,-456,-1162,-791,-304,-51,163,-301
12982,3876,0,2023-03-01T18:50:59.919313,1649439,1278,1914,-456,-1162,-791,-304,-51,163,-301
12983,3877,0,2023-03-01T18:50:59.923722,1649443,1279,1909,-457,-1175,-781,-292,-46,154,-310
12984,3878,0,2023-03-01T18:50:59.930769,1649451,1279,1909,-457,-1175,-781,-292,-46,154,-310
12985,3879,0,2023-03-01T18:50:59.936298,1649457,1279,1909,-457,-1175,-781,-292,-46,154,-310
12986,3880,0,2023-03-01T18:50:59.941024,1649461,1279,1909,-457,-1175,-781,-292,-46,154,-310
12987,3881,0,2023-03-01T18:50:59.945922,1649466,1281,1909,-455,-1179,-778,-308,-46,154,-310
12988,3882,0,2023-03-01T18:50:59.951814,1649472,1281,1909,-455,-1179,-778,-308,-46,154,-310
12989,3883,0,2023-03-01T18:50:59.957815,1649477,1281,1909,-455,-1179,-778,-308,-46,154,-310
12990,3884,0,2023-03-01T18:50:59.962413,1649482,1281,1909,-455,-1179,-778,-308,-46,154,-310
12991,3885,0,2023-03-01T18:50:59.968000,1649487,1277,1908,-451,-1174,-786,-307,-46,154,-310
12992,3886,0,2023-03-01T18:50:59.973788,1649494,1277,1908,-451,-1174,-786,-307,-46,154,-310
12993,3887,0,2023-03-01T18:50:59.979702,1649500,1277,1908,-451,-1174,-786,-307,-46,154,-310
12994,3888,0,2023-03-01T18:50:59.984746,1649505,1283,1909,-458,-1168,-779,-306,-46,154,-310
12995,3889,0,2023-03-01T18:50:59.990711,1649511,1283,1909,-458,-1168,-779,-306,-46,154,-310
12996,3890,0,2023-03-01T18:50:59.996117,1649516,1283,1909,-458,-1168,-779,-306,-46,154,-310
12997,3891,0,2023-03-01T18:51:00.000825,1649520,1283,1909,-458,-1168,-779,-306,-46,154,-310
12998,3892,0,2023-03-01T18:51:00.005611,1649525,1280,1911,-458,-1173,-788,-308,-46,154,-310
12999,3893,0,2023-03-01T18:51:00.012402,1649532,1280,1911,-458,-1173,-788,-308,-46,154,-310
13000,3894,0,2023-03-01T18:51:00.018359,1649538,1280,1911,-458,-1173,-788,-308,-46,154,-310
13001,3895,0,2023-03-01T18:51:00.023310,1649543,1280,1911,-458,-1173,-788,-308,-46,154,-310
13002,3896,0,2023-03-01T18:51:00.028382,1649548,1278,1907,-455,-1177,-781,-294,-46,154,-310
13003,3897,0,2023-03-01T18:51:00.033752,1649554,1278,1907,-455,-1177,-781,-294,-46,154,-310
13004,3898,0,2023-03-01T18:51:00.038438,1649558,1278,1907,-455,-1177,-781,-294,-46,154,-310
13005,3899,0,2023-03-01T18:51:00.043600,1649563,1278,1907,-455,-1177,-781,-294,-46,154,-310
13006,3900,0,2023-03-01T18:51:00.048361,1649568,1280,1911,-456,-1172,-775,-306,-57,159,-313
13007,3901,0,2023-03-01T18:51:00.054015,1649573,1280,1911,-456,-1172,-775,-306,-57,159,-313
13008,3902,0,2023-03-01T18:51:00.059933,1649580,1280,1911,-456,-1172,-775,-306,-57,159,-313
13009,3903,0,2023-03-01T18:51:00.065451,1649585,1279,1906,-458,-1151,-799,-291,-57,159,-313
13010,3904,0,2023-03-01T18:51:00.070533,1649590,1279,1906,-458,-1151,-799,-291,-57,159,-313
13011,3905,0,2023-03-01T18:51:00.074987,1649595,1279,1906,-458,-1151,-799,-291,-57,159,-313
13012,3906,0,2023-03-01T18:51:00.079890,1649600,1279,1906,-458,-1151,-799,-291,-57,159,-313
13013,3907,0,2023-03-01T18:51:00.084725,1649604,1276,1911,-454,-1161,-783,-305,-57,159,-313
13014,3908,0,2023-03-01T18:51:00.090709,1649610,1276,1911,-454,-1161,-783,-305,-57,159,-313
13015,3909,0,2023-03-01T18:51:00.096362,1649616,1276,1911,-454,-1161,-783,-305,-57,159,-313
13016,3910,0,2023-03-01T18:51:00.102056,1649622,1276,1911,-454,-1161,-783,-305,-57,159,-313
13017,3911,0,2023-03-01T18:51:00.108044,1649628,1278,1909,-459,-1172,-778,-301,-57,159,-313
13018,3912,0,2023-03-01T18:51:00.113631,1649634,1278,1909,-459,-1172,-778,-301,-57,159,-313
13019,3913,0,2023-03-01T18:51:00.119163,1649639,1278,1909,-459,-1172,-778,-301,-57,159,-313
13020,3914,0,2023-03-01T18:51:00.123957,1649644,1282,1911,-466,-1174,-770,-304,-57,159,-313
13021,3915,0,2023-03-01T18:51:00.130204,1649650,1282,1911,-466,-1174,-770,-304,-57,159,-313
13022,3916,0,2023-03-01T18:51:00.135802,1649655,1282,1911,-466,-1174,-770,-304,-57,159,-313
13023,3917,0,2023-03-01T18:51:00.140895,1649660,1282,1911,-466,-1174,-770,-304,-57,159,-313
13024,3918,0,2023-03-01T18:51:00.146168,1649666,1277,1906,-457,-1172,-774,-305,-57,159,-313
13025,3919,0,2023-03-01T18:51:00.152394,1649672,1277,1906,-457,-1172,-774,-305,-57,159,-313
13026,3920,0,2023-03-01T18:51:00.157863,1649678,1277,1906,-457,-1172,-774,-305,-57,159,-313
13027,3921,0,2023-03-01T18:51:00.162531,1649682,1277,1906,-457,-1172,-774,-305,-57,159,-313
13028,3922,0,2023-03-01T18:51:00.167043,1649687,1282,1908,-459,-1174,-787,-303,-57,159,-313
13029,3923,0,2023-03-01T18:51:00.172374,1649692,1282,1908,-459,-1174,-787,-303,-57,159,-313
13030,3924,0,2023-03-01T18:51:00.177604,1649697,1282,1908,-459,-1174,-787,-303,-57,159,-313
13031,3925,0,2023-03-01T18:51:00.182837,1649702,1282,1908,-459,-1174,-787,-303,-57,159,-313
13032,3926,0,2023-03-01T18:51:00.188662,1649709,1282,1912,-458,-1180,-794,-301,-57,159,-321
13033,3927,0,2023-03-01T18:51:00.194192,1649714,1282,1912,-458,-1180,-794,-301,-57,159,-321
13034,3928,0,2023-03-01T18:51:00.199717,1649720,1282,1912,-458,-1180,-794,-301,-57,159,-321
13035,3929,0,2023-03-01T18:51:00.204819,1649724,1280,1910,-462,-1183,-792,-303,-57,159,-321
13036,3930,0,2023-03-01T18:51:00.210255,1649730,1280,1910,-462,-1183,-792,-303,-57,159,-321
13037,3931,0,2023-03-01T18:51:00.216132,1649735,1280,1910,-462,-1183,-792,-303,-57,159,-321
13038,3932,0,2023-03-01T18:51:00.221173,1649740,1280,1910,-462,-1183,-792,-303,-57,159,-321
13039,3933,0,2023-03-01T18:51:00.226093,1649745,1281,1910,-457,-1170,-789,-294,-57,159,-321
13040,3934,0,2023-03-01T18:51:00.232458,1649753,1281,1910,-457,-1170,-789,-294,-57,159,-321
13041,3935,0,2023-03-01T18:51:00.238372,1649758,1281,1910,-457,-1170,-789,-294,-57,159,-321
13042,3936,0,2023-03-01T18:51:00.243201,1649763,1281,1910,-457,-1170,-789,-294,-57,159,-321
13043,3937,0,2023-03-01T18:51:00.247918,1649768,1278,1903,-457,-1159,-808,-298,-57,159,-321
13044,3938,0,2023-03-01T18:51:00.253891,1649773,1278,1903,-457,-1159,-808,-298,-57,159,-321
13045,3939,0,2023-03-01T18:51:00.259774,1649779,1278,1903,-457,-1159,-808,-298,-57,159,-321
13046,3940,0,2023-03-01T18:51:00.264945,1649784,1283,1912,-460,-1173,-799,-307,-57,159,-321
13047,3941,0,2023-03-01T18:51:00.271398,1649792,1283,1912,-460,-1173,-799,-307,-57,159,-321
13048,3942,0,2023-03-01T18:51:00.277922,1649797,1283,1912,-460,-1173,-799,-307,-57,159,-321
13049,3943,0,2023-03-01T18:51:00.283094,1649803,1283,1912,-460,-1173,-799,-307,-57,159,-321
13050,3944,0,2023-03-01T18:51:00.288497,1649808,1280,1907,-458,-1173,-798,-301,-57,159,-321
13051,3945,0,2023-03-01T18:51:00.294108,1649814,1280,1907,-458,-1173,-798,-301,-57,159,-321
13052,3946,0,2023-03-01T18:51:00.299605,1649819,1280,1907,-458,-1173,-798,-301,-57,159,-321
13053,3947,0,2023-03-01T18:51:00.305052,1649824,1279,1907,-456,-1178,-780,-305,-56,160,-316
13054,3948,0,2023-03-01T18:51:00.311286,1649831,1279,1907,-456,-1178,-780,-305,-56,160,-316
13055,3949,0,2023-03-01T18:51:00.317260,1649837,1279,1907,-456,-1178,-780,-305,-56,160,-316
13056,3950,0,2023-03-01T18:51:00.322279,1649842,1279,1907,-456,-1178,-780,-305,-56,160,-316
13057,3951,0,2023-03-01T18:51:00.327818,1649848,1279,1906,-454,-1177,-783,-308,-56,160,-316
13058,3952,0,2023-03-01T18:51:00.333182,1649853,1279,1906,-454,-1177,-783,-308,-56,160,-316
13059,3953,0,2023-03-01T18:51:00.338908,1649858,1279,1906,-454,-1177,-783,-308,-56,160,-316
13060,3954,0,2023-03-01T18:51:00.344071,1649864,1279,1910,-459,-1179,-783,-301,-56,160,-316
13061,3955,0,2023-03-01T18:51:00.350040,1649870,1279,1910,-459,-1179,-783,-301,-56,160,-316
13062,3956,0,2023-03-01T18:51:00.355270,1649875,1279,1910,-459,-1179,-783,-301,-56,160,-316
13063,3957,0,2023-03-01T18:51:00.360002,1649880,1279,1910,-459,-1179,-783,-301,-56,160,-316
13064,3958,0,2023-03-01T18:51:00.365406,1649885,1281,1911,-466,-1180,-789,-301,-56,160,-316
13065,3959,0,2023-03-01T18:51:00.370675,1649891,1281,1911,-466,-1180,-789,-301,-56,160,-316
13066,3960,0,2023-03-01T18:51:00.376261,1649896,1281,1911,-466,-1180,-789,-301,-56,160,-316
13067,3961,0,2023-03-01T18:51:00.381189,1649901,1281,1911,-466,-1180,-789,-301,-56,160,-316
13068,3962,0,2023-03-01T18:51:00.385958,1649906,1280,1910,-461,-1179,-784,-299,-56,160,-316
13069,3963,0,2023-03-01T18:51:00.392358,1649912,1280,1910,-461,-1179,-784,-299,-56,160,-316
13070,3964,0,2023-03-01T18:51:00.397958,1649917,1280,1910,-461,-1179,-784,-299,-56,160,-316
13071,3965,0,2023-03-01T18:51:00.402927,1649923,1280,1910,-461,-1179,-784,-299,-56,160,-316
13072,3966,0,2023-03-01T18:51:00.408633,1649929,1281,1906,-456,-1178,-783,-315,-56,160,-316
13073,3967,0,2023-03-01T18:51:00.414039,1649934,1281,1906,-456,-1178,-783,-315,-56,160,-316
13074,3968,0,2023-03-01T18:51:00.419646,1649939,1281,1906,-456,-1178,-783,-315,-56,160,-316
13075,3969,0,2023-03-01T18:51:00.424569,1649944,1280,1901,-462,-1162,-800,-301,-56,160,-316
13076,3970,0,2023-03-01T18:51:00.430720,1649950,1280,1901,-462,-1162,-800,-301,-56,160,-316
13077,3971,0,2023-03-01T18:51:00.436489,1649956,1280,1901,-462,-1162,-800,-301,-56,160,-316
13078,3972,0,2023-03-01T18:51:00.441501,1649961,1280,1901,-462,-1162,-800,-301,-56,160,-316
13079,3973,0,2023-03-01T18:51:00.446242,1649966,1278,1909,-455,-1159,-778,-306,-50,156,-306
13080,3974,0,2023-03-01T18:51:00.452044,1649972,1278,1909,-455,-1159,-778,-306,-50,156,-306
13081,3975,0,2023-03-01T18:51:00.457404,1649977,1278,1909,-455,-1159,-778,-306,-50,156,-306
13082,3976,0,2023-03-01T18:51:00.462235,1649982,1278,1909,-455,-1159,-778,-306,-50,156,-306
13083,3977,0,2023-03-01T18:51:00.467623,1649987,1283,1910,-453,-1169,-782,-305,-50,156,-306
13084,3978,0,2023-03-01T18:51:00.473122,1649993,1283,1910,-453,-1169,-782,-305,-50,156,-306
13085,3979,0,2023-03-01T18:51:00.480309,1649999,1283,1910,-453,-1169,-782,-305,-50,156,-306
13086,3980,0,2023-03-01T18:51:00.485498,1650006,1281,1906,-462,-1172,-783,-303,-50,156,-306
13087,3981,0,2023-03-01T18:51:00.491796,1650012,1281,1906,-462,-1172,-783,-303,-50,156,-306
13088,3982,0,2023-03-01T18:51:00.497028,1650017,1281,1906,-462,-1172,-783,-303,-50,156,-306
13089,3983,0,2023-03-01T18:51:00.501788,1650022,1281,1906,-462,-1172,-783,-303,-50,156,-306
13090,3984,0,2023-03-01T18:51:00.506966,1650027,1281,1907,-455,-1169,-779,-305,-50,156,-306
13091,3985,0,2023-03-01T18:51:00.512891,1650032,1281,1907,-455,-1169,-779,-305,-50,156,-306
13092,3986,0,2023-03-01T18:51:00.518507,1650038,1281,1907,-455,-1169,-779,-305,-50,156,-306
13093,3987,0,2023-03-01T18:51:00.523365,1650043,1281,1907,-455,-1169,-779,-305,-50,156,-306
13094,3988,0,2023-03-01T18:51:00.529035,1650049,1282,1907,-462,-1176,-783,-306,-50,156,-306
13095,3989,0,2023-03-01T18:51:00.534884,1650055,1282,1907,-462,-1176,-783,-306,-50,156,-306
13096,3990,0,2023-03-01T18:51:00.540437,1650060,1282,1907,-462,-1176,-783,-306,-50,156,-306
13097,3991,0,2023-03-01T18:51:00.545340,1650065,1280,1910,-463,-1178,-791,-304,-50,156,-306
13098,3992,0,2023-03-01T18:51:00.551352,1650071,1280,1910,-463,-1178,-791,-304,-50,156,-306
13099,3993,0,2023-03-01T18:51:00.556673,1650076,1280,1910,-463,-1178,-791,-304,-50,156,-306
13100,3994,0,2023-03-01T18:51:00.561247,1650081,1280,1910,-463,-1178,-791,-304,-50,156,-306
13101,3995,0,2023-03-01T18:51:00.566391,1650086,1280,1908,-453,-1173,-783,-299,-52,156,-316
13102,3996,0,2023-03-01T18:51:00.572958,1650093,1280,1908,-453,-1173,-783,-299,-52,156,-316
13103,3997,0,2023-03-01T18:51:00.578602,1650099,1280,1908,-453,-1173,-783,-299,-52,156,-316
13104,3998,0,2023-03-01T18:51:00.583930,1650103,1280,1908,-453,-1173,-783,-299,-52,156,-316
13105,3999,0,2023-03-01T18:51:00.590589,1650110,1282,1911,-457,-1170,-781,-305,-52,156,-316
13106,4000,0,2023-03-01T18:51:00.596674,1650116,1282,1911,-457,-1170,-781,-305,-52,156,-316
13107,4001,0,2023-03-01T18:51:00.601890,1650121,1282,1911,-457,-1170,-781,-305,-52,156,-316
13108,4002,0,2023-03-01T18:51:00.606996,1650126,1281,1903,-459,-1154,-807,-296,-52,156,-316
13109,4003,0,2023-03-01T18:51:00.612783,1650132,1281,1903,-459,-1154,-807,-296,-52,156,-316
13110,4004,0,2023-03-01T18:51:00.618192,1650138,1281,1903,-459,-1154,-807,-296,-52,156,-316
13111,4005,0,2023-03-01T18:51:00.623634,1650143,1281,1903,-459,-1154,-807,-296,-52,156,-316
13112,4006,0,2023-03-01T18:51:00.628651,1650149,1281,1908,-460,-1158,-802,-304,-52,156,-316
13113,4007,0,2023-03-01T18:51:00.634332,1650154,1281,1908,-460,-1158,-802,-304,-52,156,-316
13114,4008,0,2023-03-01T18:51:00.639731,1650159,1281,1908,-460,-1158,-802,-304,-52,156,-316
13115,4009,0,2023-03-01T18:51:00.645670,1650164,1281,1909,-455,-1174,-791,-301,-52,156,-316
13116,4010,0,2023-03-01T18:51:00.652361,1650172,1281,1909,-455,-1174,-791,-301,-52,156,-316
13117,4011,0,2023-03-01T18:51:00.657618,1650178,1281,1909,-455,-1174,-791,-301,-52,156,-316
13118,4012,0,2023-03-01T18:51:00.662409,1650183,1281,1909,-455,-1174,-791,-301,-52,156,-316
13119,4013,0,2023-03-01T18:51:00.668181,1650188,1278,1910,-462,-1167,-779,-300,-52,156,-316
13120,4014,0,2023-03-01T18:51:00.673396,1650193,1278,1910,-462,-1167,-779,-300,-52,156,-316
13121,4015,0,2023-03-01T18:51:00.679434,1650199,1278,1910,-462,-1167,-779,-300,-52,156,-316
13122,4016,0,2023-03-01T18:51:00.684442,1650204,1279,1909,-460,-1173,-769,-307,-52,156,-316
13123,4017,0,2023-03-01T18:51:00.690440,1650210,1279,1909,-460,-1173,-769,-307,-50,166,-312
13124,4018,0,2023-03-01T18:51:00.695898,1650215,1279,1909,-460,-1173,-769,-307,-50,166,-312
13125,4019,0,2023-03-01T18:51:00.700806,1650221,1279,1909,-460,-1173,-769,-307,-50,166,-312
13126,4020,0,2023-03-01T18:51:00.705384,1650226,1280,1910,-458,-1177,-782,-297,-50,166,-312
13127,4021,0,2023-03-01T18:51:00.711096,1650231,1280,1910,-458,-1177,-782,-297,-50,166,-312
13128,4022,0,2023-03-01T18:51:00.716724,1650237,1280,1910,-458,-1177,-782,-297,-50,166,-312
13129,4023,0,2023-03-01T18:51:00.721513,1650241,1280,1910,-458,-1177,-782,-297,-50,166,-312
13130,4024,0,2023-03-01T18:51:00.726134,1650246,1280,1907,-453,-1174,-776,-305,-50,166,-312
13131,4025,0,2023-03-01T18:51:00.731659,1650251,1280,1907,-453,-1174,-776,-305,-50,166,-312
13132,4026,0,2023-03-01T18:51:00.737206,1650257,1280,1907,-453,-1174,-776,-305,-50,166,-312
13133,4027,0,2023-03-01T18:51:00.742083,1650262,1280,1907,-453,-1174,-776,-305,-50,166,-312
13134,4028,0,2023-03-01T18:51:00.747024,1650267,1282,1903,-457,-1176,-777,-299,-50,166,-312
13135,4029,0,2023-03-01T18:51:00.753109,1650273,1282,1903,-457,-1176,-777,-299,-50,166,-312
13136,4030,0,2023-03-01T18:51:00.758394,1650278,1282,1903,-457,-1176,-777,-299,-50,166,-312
13137,4031,0,2023-03-01T18:51:00.763247,1650283,1282,1903,-457,-1176,-777,-299,-50,166,-312
13138,4032,0,2023-03-01T18:51:00.769065,1650288,1282,1906,-455,-1173,-771,-305,-50,166,-312
13139,4033,0,2023-03-01T18:51:00.774478,1650294,1282,1906,-455,-1173,-771,-305,-50,166,-312
13140,4034,0,2023-03-01T18:51:00.779923,1650299,1282,1906,-455,-1173,-771,-305,-50,166,-312
13141,4035,0,2023-03-01T18:51:00.784961,1650305,1279,1906,-462,-1158,-803,-300,-50,166,-312
13142,4036,0,2023-03-01T18:51:00.790363,1650310,1279,1906,-462,-1158,-803,-300,-50,166,-312
13143,4037,0,2023-03-01T18:51:00.796228,1650316,1279,1906,-462,-1158,-803,-300,-50,166,-312
13144,4038,0,2023-03-01T18:51:00.800912,1650321,1279,1906,-462,-1158,-803,-300,-50,166,-312
13145,4039,0,2023-03-01T18:51:00.806320,1650326,1280,1909,-461,-1168,-794,-315,-50,166,-312
13146,4040,0,2023-03-01T18:51:00.812540,1650332,1280,1909,-461,-1168,-794,-315,-50,166,-312
13147,4041,0,2023-03-01T18:51:00.818226,1650338,1280,1909,-461,-1168,-794,-315,-50,166,-312
13148,4042,0,2023-03-01T18:51:00.823493,1650342,1280,1909,-461,-1168,-794,-315,-50,166,-312
13149,4043,0,2023-03-01T18:51:00.829436,1650350,1283,1908,-458,-1184,-797,-299,-51,159,-325
13150,4044,0,2023-03-01T18:51:00.834786,1650355,1283,1908,-458,-1184,-797,-299,-51,159,-325
13151,4045,0,2023-03-01T18:51:00.840400,1650360,1283,1908,-458,-1184,-797,-299,-51,159,-325
13152,4046,0,2023-03-01T18:51:00.845693,1650365,1280,1907,-459,-1187,-791,-298,-51,159,-325
13153,4047,0,2023-03-01T18:51:00.851396,1650371,1280,1907,-459,-1187,-791,-298,-51,159,-325
13154,4048,0,2023-03-01T18:51:00.857108,1650377,1280,1907,-459,-1187,-791,-298,-51,159,-325
13155,4049,0,2023-03-01T18:51:00.861940,1650382,1280,1907,-459,-1187,-791,-298,-51,159,-325
13156,4050,0,2023-03-01T18:51:00.866938,1650386,1279,1908,-458,-1182,-783,-302,-51,159,-325
13157,4051,0,2023-03-01T18:51:00.872715,1650393,1279,1908,-458,-1182,-783,-302,-51,159,-325
13158,4052,0,2023-03-01T18:51:00.877959,1650398,1279,1908,-458,-1182,-783,-302,-51,159,-325
13159,4053,0,2023-03-01T18:51:00.882730,1650403,1279,1908,-458,-1182,-783,-302,-51,159,-325
13160,4054,0,2023-03-01T18:51:00.887891,1650408,1282,1906,-461,-1177,-781,-304,-51,159,-325
13161,4055,0,2023-03-01T18:51:00.893023,1650413,1282,1906,-461,-1177,-781,-304,-51,159,-325
13162,4056,0,2023-03-01T18:51:00.898073,1650418,1282,1906,-461,-1177,-781,-304,-51,159,-325
13163,4057,0,2023-03-01T18:51:00.902664,1650422,1282,1906,-461,-1177,-781,-304,-51,159,-325
13164,4058,0,2023-03-01T18:51:00.907140,1650427,1285,1910,-458,-1182,-782,-304,-51,159,-325
13165,4059,0,2023-03-01T18:51:00.912669,1650433,1285,1910,-458,-1182,-782,-304,-51,159,-325
13166,4060,0,2023-03-01T18:51:00.919783,1650440,1285,1910,-458,-1182,-782,-304,-51,159,-325
13167,4061,0,2023-03-01T18:51:00.924467,1650445,1280,1906,-456,-1172,-785,-294,-51,159,-325
13168,4062,0,2023-03-01T18:51:00.930589,1650450,1280,1906,-456,-1172,-785,-294,-51,159,-325
13169,4063,0,2023-03-01T18:51:00.936712,1650456,1280,1906,-456,-1172,-785,-294,-51,159,-325
13170,4064,0,2023-03-01T18:51:00.941863,1650461,1280,1906,-456,-1172,-785,-294,-51,159,-325
13171,4065,0,2023-03-01T18:51:00.946616,1650466,1282,1907,-458,-1186,-785,-305,-60,156,-310
13172,4066,0,2023-03-01T18:51:00.952098,1650472,1282,1907,-458,-1186,-785,-305,-60,156,-310
13173,4067,0,2023-03-01T18:51:00.957592,1650478,1282,1907,-458,-1186,-785,-305,-60,156,-310
13174,4068,0,2023-03-01T18:51:00.962538,1650483,1282,1907,-458,-1186,-785,-305,-60,156,-310
13175,4069,0,2023-03-01T18:51:00.967560,1650488,1283,1904,-458,-1170,-791,-296,-60,156,-310
13176,4070,0,2023-03-01T18:51:00.972924,1650493,1283,1904,-458,-1170,-791,-296,-60,156,-310
13177,4071,0,2023-03-01T18:51:00.978246,1650498,1283,1904,-458,-1170,-791,-296,-60,156,-310
13178,4072,0,2023-03-01T18:51:00.983264,1650503,1283,1904,-458,-1170,-791,-296,-60,156,-310
13179,4073,0,2023-03-01T18:51:00.988789,1650508,1284,1905,-460,-1167,-797,-308,-60,156,-310
13180,4074,0,2023-03-01T18:51:00.994397,1650514,1284,1905,-460,-1167,-797,-308,-60,156,-310
13181,4075,0,2023-03-01T18:51:01.000521,1650521,1284,1905,-460,-1167,-797,-308,-60,156,-310
13182,4076,0,2023-03-01T18:51:01.005608,1650526,1284,1905,-460,-1167,-797,-308,-60,156,-310
13183,4077,0,2023-03-01T18:51:01.010717,1650530,1284,1905,-460,-1167,-797,-308,-60,156,-310
13184,4078,0,2023-03-01T18:51:01.016245,1650536,1284,1905,-460,-1167,-797,-308,-60,156,-310
13185,4079,0,2023-03-01T18:51:01.021268,1650541,1284,1905,-460,-1167,-797,-308,-60,156,-310
13186,4080,0,2023-03-01T18:51:01.026265,1650546,1284,1906,-459,-1170,-789,-303,-60,156,-310
13187,4081,0,2023-03-01T18:51:01.032427,1650552,1284,1906,-459,-1170,-789,-303,-60,156,-310
13188,4082,0,2023-03-01T18:51:01.037760,1650557,1284,1906,-459,-1170,-789,-303,-60,156,-310
13189,4083,0,2023-03-01T18:51:01.042448,1650562,1284,1906,-459,-1170,-789,-303,-60,156,-310
13190,4084,0,2023-03-01T18:51:01.047331,1650567,1285,1912,-461,-1173,-790,-311,-60,156,-310
13191,4085,0,2023-03-01T18:51:01.054015,1650574,1285,1912,-461,-1173,-790,-311,-60,156,-310
13192,4086,0,2023-03-01T18:51:01.059667,1650580,1285,1912,-461,-1173,-790,-311,-60,156,-310
13193,4087,0,2023-03-01T18:51:01.064984,1650584,1281,1911,-462,-1164,-782,-295,-60,156,-310
13194,4088,0,2023-03-01T18:51:01.071209,1650591,1281,1911,-462,-1164,-782,-295,-60,156,-310
13195,4089,0,2023-03-01T18:51:01.076795,1650596,1281,1911,-462,-1164,-782,-295,-60,156,-310
13196,4090,0,2023-03-01T18:51:01.081502,1650601,1281,1911,-462,-1164,-782,-295,-60,156,-310
13197,4091,0,2023-03-01T18:51:01.086403,1650607,1283,1906,-450,-1172,-773,-305,-59,155,-307
13198,4092,0,2023-03-01T18:51:01.092758,1650613,1283,1906,-450,-1172,-773,-305,-59,155,-307
13199,4093,0,2023-03-01T18:51:01.098407,1650618,1283,1906,-450,-1172,-773,-305,-59,155,-307
13200,4094,0,2023-03-01T18:51:01.103640,1650623,1283,1906,-450,-1172,-773,-305,-59,155,-307
13201,4095,0,2023-03-01T18:51:01.109250,1650629,1284,1909,-455,-1177,-781,-303,-59,155,-307
13202,4096,0,2023-03-01T18:51:01.114849,1650634,1284,1909,-455,-1177,-781,-303,-59,155,-307
13203,4097,0,2023-03-01T18:51:01.120307,1650640,1284,1909,-455,-1177,-781,-303,-59,155,-307
13204,4098,0,2023-03-01T18:51:01.125158,1650646,1287,1912,-460,-1181,-783,-310,-59,155,-307
13205,4099,0,2023-03-01T18:51:01.130432,1650651,1287,1912,-460,-1181,-783,-310,-59,155,-307
13206,4100,0,2023-03-01T18:51:01.136566,1650656,1287,1912,-460,-1181,-783,-310,-59,155,-307
13207,4101,0,2023-03-01T18:51:01.141929,1650662,1287,1912,-460,-1181,-783,-310,-59,155,-307
13208,4102,0,2023-03-01T18:51:01.146793,1650667,1283,1910,-459,-1175,-791,-299,-59,155,-307
13209,4103,0,2023-03-01T18:51:01.153093,1650672,1283,1910,-459,-1175,-791,-299,-59,155,-307
13210,4104,0,2023-03-01T18:51:01.158691,1650678,1283,1910,-459,-1175,-791,-299,-59,155,-307
13211,4105,0,2023-03-01T18:51:01.163576,1650683,1283,1910,-459,-1175,-791,-299,-59,155,-307
13212,4106,0,2023-03-01T18:51:01.168413,1650689,1284,1912,-460,-1155,-799,-301,-59,155,-307
13213,4107,0,2023-03-01T18:51:01.173900,1650694,1284,1912,-460,-1155,-799,-301,-59,155,-307
13214,4108,0,2023-03-01T18:51:01.179728,1650699,1284,1912,-460,-1155,-799,-301,-59,155,-307
13215,4109,0,2023-03-01T18:51:01.185119,1650705,1284,1912,-460,-1155,-799,-301,-59,155,-307
13216,4110,0,2023-03-01T18:51:01.190814,1650711,1281,1910,-456,-1170,-790,-300,-59,155,-307
13217,4111,0,2023-03-01T18:51:01.196801,1650717,1281,1910,-456,-1170,-790,-300,-59,155,-307
13218,4112,0,2023-03-01T18:51:01.201305,1650721,1281,1910,-456,-1170,-790,-300,-59,155,-307
13219,4113,0,2023-03-01T18:51:01.206128,1650726,1283,1908,-464,-1185,-796,-298,-54,162,-320
13220,4114,0,2023-03-01T18:51:01.213378,1650734,1283,1908,-464,-1185,-796,-298,-54,162,-320
13221,4115,0,2023-03-01T18:51:01.219033,1650739,1283,1908,-464,-1185,-796,-298,-54,162,-320
13222,4116,0,2023-03-01T18:51:01.223816,1650744,1283,1908,-464,-1185,-796,-298,-54,162,-320
13223,4117,0,2023-03-01T18:51:01.229138,1650749,1284,1912,-456,-1176,-783,-303,-54,162,-320
13224,4118,0,2023-03-01T18:51:01.234841,1650755,1284,1912,-456,-1176,-783,-303,-54,162,-320
13225,4119,0,2023-03-01T18:51:01.240496,1650760,1284,1912,-456,-1176,-783,-303,-54,162,-320
13226,4120,0,2023-03-01T18:51:01.245128,1650765,1283,1905,-453,-1180,-787,-300,-54,162,-320
13227,4121,0,2023-03-01T18:51:01.251662,1650771,1283,1905,-453,-1180,-787,-300,-54,162,-320
13228,4122,0,2023-03-01T18:51:01.257295,1650777,1283,1905,-453,-1180,-787,-300,-54,162,-320
13229,4123,0,2023-03-01T18:51:01.262165,1650782,1283,1905,-453,-1180,-787,-300,-54,162,-320
13230,4124,0,2023-03-01T18:51:01.267109,1650787,1286,1908,-464,-1179,-788,-309,-54,162,-320
13231,4125,0,2023-03-01T18:51:01.273532,1650793,1286,1908,-464,-1179,-788,-309,-54,162,-320
13232,4126,0,2023-03-01T18:51:01.279181,1650799,1286,1908,-464,-1179,-788,-309,-54,162,-320
13233,4127,0,2023-03-01T18:51:01.284364,1650804,1286,1908,-464,-1179,-788,-309,-54,162,-320
13234,4128,0,2023-03-01T18:51:01.290215,1650810,1280,1906,-458,-1186,-787,-306,-54,162,-320
13235,4129,0,2023-03-01T18:51:01.296343,1650817,1280,1906,-458,-1186,-787,-306,-54,162,-320
13236,4130,0,2023-03-01T18:51:01.301121,1650821,1280,1906,-458,-1186,-787,-306,-54,162,-320
13237,4131,0,2023-03-01T18:51:01.305639,1650826,1284,1910,-457,-1178,-785,-306,-54,162,-320
13238,4132,0,2023-03-01T18:51:01.311553,1650832,1284,1910,-457,-1178,-785,-306,-54,162,-320
13239,4133,0,2023-03-01T18:51:01.317184,1650837,1284,1910,-457,-1178,-785,-306,-54,162,-320
13240,4134,0,2023-03-01T18:51:01.322169,1650842,1284,1910,-457,-1178,-785,-306,-54,162,-320
13241,4135,0,2023-03-01T18:51:01.327353,1650847,1285,1914,-457,-1179,-796,-298,-54,162,-320
13242,4136,0,2023-03-01T18:51:01.333169,1650853,1285,1914,-457,-1179,-796,-298,-54,162,-320
13243,4137,0,2023-03-01T18:51:01.338739,1650859,1285,1914,-457,-1179,-796,-298,-54,162,-320
13244,4138,0,2023-03-01T18:51:01.343661,1650864,1285,1914,-457,-1179,-796,-298,-54,162,-320
13245,4139,0,2023-03-01T18:51:01.349279,1650869,1281,1906,-463,-1160,-820,-288,-49,151,-307
13246,4140,0,2023-03-01T18:51:01.355628,1650875,1281,1906,-463,-1160,-820,-288,-49,151,-307
13247,4141,0,2023-03-01T18:51:01.361226,1650881,1281,1906,-463,-1160,-820,-288,-49,151,-307
13248,4142,0,2023-03-01T18:51:01.366846,1650886,1284,1908,-449,-1166,-792,-308,-49,151,-307
13249,4143,0,2023-03-01T18:51:01.372621,1650892,1284,1908,-449,-1166,-792,-308,-49,151,-307
13250,4144,0,2023-03-01T18:51:01.377871,1650897,1284,1908,-449,-1166,-792,-308,-49,151,-307
13251,4145,0,2023-03-01T18:51:01.382980,1650903,1284,1908,-449,-1166,-792,-308,-49,151,-307
13252,4146,0,2023-03-01T18:51:01.388831,1650909,1285,1906,-456,-1172,-785,-302,-49,151,-307
13253,4147,0,2023-03-01T18:51:01.394398,1650914,1285,1906,-456,-1172,-785,-302,-49,151,-307
13254,4148,0,2023-03-01T18:51:01.399937,1650920,1285,1906,-456,-1172,-785,-302,-49,151,-307
13255,4149,0,2023-03-01T18:51:01.404618,1650924,1285,1906,-456,-1172,-785,-302,-49,151,-307
13256,4150,0,2023-03-01T18:51:01.409836,1650929,1286,1907,-461,-1181,-790,-312,-49,151,-307
13257,4151,0,2023-03-01T18:51:01.415632,1650935,1286,1907,-461,-1181,-790,-312,-49,151,-307
13258,4152,0,2023-03-01T18:51:01.421298,1650941,1286,1907,-461,-1181,-790,-312,-49,151,-307
13259,4153,0,2023-03-01T18:51:01.426169,1650947,1286,1906,-465,-1186,-791,-292,-49,151,-307
13260,4154,0,2023-03-01T18:51:01.432039,1650952,1286,1906,-465,-1186,-791,-292,-49,151,-307
13261,4155,0,2023-03-01T18:51:01.437513,1650957,1286,1906,-465,-1186,-791,-292,-49,151,-307
13262,4156,0,2023-03-01T18:51:01.442542,1650962,1286,1906,-465,-1186,-791,-292,-49,151,-307
13263,4157,0,2023-03-01T18:51:01.447483,1650967,1286,1905,-459,-1178,-788,-297,-49,151,-307
13264,4158,0,2023-03-01T18:51:01.453005,1650973,1286,1905,-459,-1178,-788,-297,-49,151,-307
13265,4159,0,2023-03-01T18:51:01.459119,1650979,1286,1905,-459,-1178,-788,-297,-49,151,-307
13266,4160,0,2023-03-01T18:51:01.464200,1650983,1286,1905,-459,-1178,-788,-297,-49,151,-307
13267,4161,0,2023-03-01T18:51:01.470059,1650990,1283,1906,-457,-1189,-802,-297,-46,160,-310
13268,4162,0,2023-03-01T18:51:01.475951,1650996,1283,1906,-457,-1189,-802,-297,-46,160,-310
13269,4163,0,2023-03-01T18:51:01.480426,1651001,1283,1906,-457,-1189,-802,-297,-46,160,-310
13270,4164,0,2023-03-01T18:51:01.485272,1651005,1286,1909,-457,-1188,-795,-309,-46,160,-310
13271,4165,0,2023-03-01T18:51:01.491233,1651011,1286,1909,-457,-1188,-795,-309,-46,160,-310
13272,4166,0,2023-03-01T18:51:01.497079,1651016,1286,1909,-457,-1188,-795,-309,-46,160,-310
13273,4167,0,2023-03-01T18:51:01.502114,1651021,1286,1909,-457,-1188,-795,-309,-46,160,-310
13274,4168,0,2023-03-01T18:51:01.506770,1651026,1285,1912,-455,-1175,-796,-303,-46,160,-310
13275,4169,0,2023-03-01T18:51:01.512946,1651033,1285,1912,-455,-1175,-796,-303,-46,160,-310
13276,4170,0,2023-03-01T18:51:01.518894,1651039,1285,1912,-455,-1175,-796,-303,-46,160,-310
13277,4171,0,2023-03-01T18:51:01.523719,1651044,1285,1912,-455,-1175,-796,-303,-46,160,-310
13278,4172,0,2023-03-01T18:51:01.529261,1651049,1286,1905,-465,-1164,-808,-284,-46,160,-310
13279,4173,0,2023-03-01T18:51:01.534775,1651054,1286,1905,-465,-1164,-808,-284,-46,160,-310
13280,4174,0,2023-03-01T18:51:01.539925,1651060,1286,1905,-465,-1164,-808,-284,-46,160,-310
13281,4175,0,2023-03-01T18:51:01.544979,1651064,1286,1905,-465,-1164,-808,-284,-46,160,-310
13282,4176,0,2023-03-01T18:51:01.550605,1651070,1284,1910,-461,-1175,-791,-299,-46,160,-310
13283,4177,0,2023-03-01T18:51:01.556370,1651076,1284,1910,-461,-1175,-791,-299,-46,160,-310
13284,4178,0,2023-03-01T18:51:01.561146,1651081,1284,1910,-461,-1175,-791,-299,-46,160,-310
13285,4179,0,2023-03-01T18:51:01.566114,1651086,1284,1906,-465,-1183,-798,-293,-46,160,-310
13286,4180,0,2023-03-01T18:51:01.572323,1651092,1284,1906,-465,-1183,-798,-293,-46,160,-310
13287,4181,0,2023-03-01T18:51:01.578141,1651098,1284,1906,-465,-1183,-798,-293,-46,160,-310
13288,4182,0,2023-03-01T18:51:01.583127,1651103,1284,1906,-465,-1183,-798,-293,-46,160,-310
13289,4183,0,2023-03-01T18:51:01.589321,1651108,1283,1909,-458,-1178,-792,-309,-53,163,-313
13290,4184,0,2023-03-01T18:51:01.595125,1651115,1283,1909,-458,-1178,-792,-309,-53,163,-313
13291,4185,0,2023-03-01T18:51:01.600515,1651121,1283,1909,-458,-1178,-792,-309,-53,163,-313
13292,4186,0,2023-03-01T18:51:01.605474,1651125,1283,1909,-458,-1178,-792,-309,-53,163,-313
13293,4187,0,2023-03-01T18:51:01.611149,1651131,1282,1907,-457,-1168,-780,-302,-53,163,-313
13294,4188,0,2023-03-01T18:51:01.617404,1651137,1282,1907,-457,-1168,-780,-302,-53,163,-313
13295,4189,0,2023-03-01T18:51:01.622074,1651142,1282,1907,-457,-1168,-780,-302,-53,163,-313
13296,4190,0,2023-03-01T18:51:01.627250,1651147,1285,1905,-459,-1176,-768,-309,-53,163,-313
13297,4191,0,2023-03-01T18:51:01.633375,1651153,1285,1905,-459,-1176,-768,-309,-53,163,-313
13298,4192,0,2023-03-01T18:51:01.638653,1651159,1285,1905,-459,-1176,-768,-309,-53,163,-313
13299,4193,0,2023-03-01T18:51:01.643407,1651164,1285,1905,-459,-1176,-768,-309,-53,163,-313
