,Unnamed: 0,imu,server_time,arduino_time,ax,ay,az,gx,gy,gz,mx,my,mz
13300,4194,0,2023-03-01T18:51:01.648088,1651168,1285,1906,-464,-1171,-771,-304,-53,163,-313
13301,4195,0,2023-03-01T18:51:01.653414,1651173,1285,1906,-464,-1171,-771,-304,-53,163,-313
13302,4196,0,2023-03-01T18:51:01.658649,1651179,1285,1906,-464,-1171,-771,-304,-53,163,-313
13303,4197,0,2023-03-01T18:51:01.663740,1651183,1285,1906,-464,-1171,-771,-304,-53,163,-313
13304,4198,0,2023-03-01T18:51:01.668352,1651188,1286,1907,-461,-1160,-766,-299,-53,163,-313
13305,4199,0,2023-03-01T18:51:01.673730,1651193,1286,1907,-461,-1160,-766,-299,-53,163,-313
13306,4200,0,2023-03-01T18:51:01.679413,1651200,1286,1907,-461,-1160,-766,-299,-53,163,-313
13307,4201,0,2023-03-01T18:51:01.684797,1651204,1286,1907,-461,-1160,-766,-299,-53,163,-313
13308,4202,0,2023-03-01T18:51:01.689754,1651210,1289,1912,-462,-1159,-775,-308,-53,163,-313
13309,4203,0,2023-03-01T18:51:01.694968,1651215,1289,1912,-462,-1159,-775,-308,-53,163,-313
13310,4204,0,2023-03-01T18:51:01.700653,1651220,1289,1912,-462,-1159,-775,-308,-53,163,-313
13311,4205,0,2023-03-01T18:51:01.705348,1651225,1289,1912,-462,-1159,-775,-308,-53,163,-313
13312,4206,0,2023-03-01T18:51:01.710173,1651230,1285,1904,-457,-1140,-792,-292,-53,163,-313
13313,4207,0,2023-03-01T18:51:01.716127,1651236,1285,1904,-457,-1140,-792,-292,-53,163,-313
13314,4208,0,2023-03-01T18:51:01.721120,1651240,1285,1904,-457,-1140,-792,-292,-53,163,-313
13315,4209,0,2023-03-01T18:51:01.726252,1651246,1281,1907,-451,-1166,-774,-309,-51,165,-311
13316,4210,0,2023-03-01T18:51:01.731996,1651252,1281,1907,-451,-1166,-774,-309,-51,165,-311
13317,4211,0,2023-03-01T18:51:01.737265,1651257,1281,1907,-451,-1166,-774,-309,-51,165,-311
13318,4212,0,2023-03-01T18:51:01.742105,1651262,1281,1907,-451,-1166,-774,-309,-51,165,-311
13319,4213,0,2023-03-01T18:51:01.746944,1651267,1286,1905,-463,-1172,-784,-296,-51,165,-311
13320,4214,0,2023-03-01T18:51:01.752977,1651273,1286,1905,-463,-1172,-784,-296,-51,165,-311
13321,4215,0,2023-03-01T18:51:01.758304,1651278,1286,1905,-463,-1172,-784,-296,-51,165,-311
13322,4216,0,2023-03-01T18:51:01.763412,1651283,1286,1905,-463,-1172,-784,-296,-51,165,-311
13323,4217,0,2023-03-01T18:51:01.769158,1651289,1289,1912,-461,-1172,-773,-311,-51,165,-311
13324,4218,0,2023-03-01T18:51:01.774350,1651295,1289,1912,-461,-1172,-773,-311,-51,165,-311
13325,4219,0,2023-03-01T18:51:01.779883,1651300,1289,1912,-461,-1172,-773,-311,-51,165,-311
13326,4220,0,2023-03-01T18:51:01.784829,1651304,1289,1912,-461,-1172,-773,-311,-51,165,-311
13327,4221,0,2023-03-01T18:51:01.791634,1651310,1286,1903,-457,-1166,-775,-311,-51,165,-311
13328,4222,0,2023-03-01T18:51:01.797525,1651317,1286,1903,-457,-1166,-775,-311,-51,165,-311
13329,4223,0,2023-03-01T18:51:01.802932,1651322,1286,1903,-457,-1166,-775,-311,-51,165,-311
13330,4224,0,2023-03-01T18:51:01.807927,1651328,1283,1906,-449,-1176,-780,-310,-51,165,-311
13331,4225,0,2023-03-01T18:51:01.813877,1651334,1283,1906,-449,-1176,-780,-310,-51,165,-311
13332,4226,0,2023-03-01T18:51:01.819452,1651340,1283,1906,-449,-1176,-780,-310,-51,165,-311
13333,4227,0,2023-03-01T18:51:01.825067,1651344,1283,1906,-449,-1176,-780,-310,-51,165,-311
13334,4228,0,2023-03-01T18:51:01.830017,1651350,1287,1904,-457,-1176,-783,-307,-51,165,-311
13335,4229,0,2023-03-01T18:51:01.835817,1651355,1287,1904,-457,-1176,-783,-307,-51,165,-311
13336,4230,0,2023-03-01T18:51:01.841469,1651361,1287,1904,-457,-1176,-783,-307,-51,165,-311
13337,4231,0,2023-03-01T18:51:01.847078,1651366,1287,1909,-462,-1177,-785,-300,-50,156,-308
13338,4232,0,2023-03-01T18:51:01.853931,1651374,1287,1909,-462,-1177,-785,-300,-50,156,-308
13339,4233,0,2023-03-01T18:51:01.859510,1651380,1287,1909,-462,-1177,-785,-300,-50,156,-308
13340,4234,0,2023-03-01T18:51:01.864421,1651384,1287,1909,-462,-1177,-785,-300,-50,156,-308
13341,4235,0,2023-03-01T18:51:01.869357,1651389,1289,1912,-460,-1178,-794,-303,-50,156,-308
13342,4236,0,2023-03-01T18:51:01.874704,1651394,1289,1912,-460,-1178,-794,-303,-50,156,-308
13343,4237,0,2023-03-01T18:51:01.880482,1651400,1289,1912,-460,-1178,-794,-303,-50,156,-308
13344,4238,0,2023-03-01T18:51:01.885894,1651405,1289,1912,-460,-1178,-794,-303,-50,156,-308
13345,4239,0,2023-03-01T18:51:01.891395,1651411,1283,1901,-460,-1160,-803,-289,-50,156,-308
13346,4240,0,2023-03-01T18:51:01.896976,1651417,1283,1901,-460,-1160,-803,-289,-50,156,-308
13347,4241,0,2023-03-01T18:51:01.902132,1651422,1283,1901,-460,-1160,-803,-289,-50,156,-308
13348,4242,0,2023-03-01T18:51:01.906863,1651427,1287,1910,-453,-1165,-788,-298,-50,156,-308
13349,4243,0,2023-03-01T18:51:01.913084,1651433,1287,1910,-453,-1165,-788,-298,-50,156,-308
13350,4244,0,2023-03-01T18:51:01.918560,1651438,1287,1910,-453,-1165,-788,-298,-50,156,-308
13351,4245,0,2023-03-01T18:51:01.923855,1651443,1287,1910,-453,-1165,-788,-298,-50,156,-308
13352,4246,0,2023-03-01T18:51:01.928659,1651448,1285,1908,-466,-1188,-803,-307,-50,156,-308
13353,4247,0,2023-03-01T18:51:01.934051,1651453,1285,1908,-466,-1188,-803,-307,-50,156,-308
13354,4248,0,2023-03-01T18:51:01.940096,1651460,1285,1908,-466,-1188,-803,-307,-50,156,-308
13355,4249,0,2023-03-01T18:51:01.944927,1651465,1285,1908,-466,-1188,-803,-307,-50,156,-308
13356,4250,0,2023-03-01T18:51:01.949602,1651470,1287,1910,-458,-1182,-790,-319,-50,156,-308
13357,4251,0,2023-03-01T18:51:01.955501,1651475,1287,1910,-458,-1182,-790,-319,-50,156,-308
13358,4252,0,2023-03-01T18:51:01.962000,1651482,1287,1910,-458,-1182,-790,-319,-50,156,-308
13359,4253,0,2023-03-01T18:51:01.966900,1651486,1286,1907,-461,-1181,-783,-304,-50,156,-308
13360,4254,0,2023-03-01T18:51:01.973246,1651492,1286,1907,-461,-1181,-783,-304,-50,156,-308
13361,4255,0,2023-03-01T18:51:01.978456,1651499,1286,1907,-461,-1181,-783,-304,-50,156,-308
13362,4256,0,2023-03-01T18:51:01.983895,1651504,1286,1907,-461,-1181,-783,-304,-50,156,-308
13363,4257,0,2023-03-01T18:51:01.989343,1651509,1287,1906,-460,-1179,-790,-317,-56,160,-314
13364,4258,0,2023-03-01T18:51:01.994667,1651515,1287,1906,-460,-1179,-790,-317,-56,160,-314
13365,4259,0,2023-03-01T18:51:02.000332,1651520,1287,1906,-460,-1179,-790,-317,-56,160,-314
13366,4260,0,2023-03-01T18:51:02.005937,1651526,1285,1906,-464,-1185,-793,-312,-56,160,-314
13367,4261,0,2023-03-01T18:51:02.012148,1651532,1285,1906,-464,-1185,-793,-312,-56,160,-314
13368,4262,0,2023-03-01T18:51:02.019698,1651539,1285,1906,-464,-1185,-793,-312,-56,160,-314
13369,4263,0,2023-03-01T18:51:02.025042,1651545,1285,1906,-464,-1185,-793,-312,-56,160,-314
13370,4264,0,2023-03-01T18:51:02.029747,1651550,1287,1903,-454,-1181,-777,-306,-56,160,-314
13371,4265,0,2023-03-01T18:51:02.035207,1651555,1287,1903,-454,-1181,-777,-306,-56,160,-314
13372,4266,0,2023-03-01T18:51:02.040280,1651560,1287,1903,-454,-1181,-777,-306,-56,160,-314
13373,4267,0,2023-03-01T18:51:02.045271,1651565,1287,1903,-454,-1181,-777,-306,-56,160,-314
13374,4268,0,2023-03-01T18:51:02.050074,1651570,1289,1908,-459,-1174,-783,-305,-56,160,-314
13375,4269,0,2023-03-01T18:51:02.056365,1651576,1289,1908,-459,-1174,-783,-305,-56,160,-314
13376,4270,0,2023-03-01T18:51:02.060897,1651580,1289,1908,-459,-1174,-783,-305,-56,160,-314
13377,4271,0,2023-03-01T18:51:02.065770,1651586,1289,1908,-459,-1174,-783,-305,-56,160,-314
13378,4272,0,2023-03-01T18:51:02.070649,1651591,1284,1900,-458,-1154,-810,-289,-56,160,-314
13379,4273,0,2023-03-01T18:51:02.076595,1651596,1284,1900,-458,-1154,-810,-289,-56,160,-314
13380,4274,0,2023-03-01T18:51:02.082258,1651601,1284,1900,-458,-1154,-810,-289,-56,160,-314
13381,4275,0,2023-03-01T18:51:02.087396,1651607,1290,1910,-455,-1171,-802,-306,-56,160,-314
13382,4276,0,2023-03-01T18:51:02.093362,1651613,1290,1910,-455,-1171,-802,-306,-56,160,-314
13383,4277,0,2023-03-01T18:51:02.098524,1651618,1290,1910,-455,-1171,-802,-306,-56,160,-314
13384,4278,0,2023-03-01T18:51:02.103572,1651623,1290,1910,-455,-1171,-802,-306,-56,160,-314
13385,4279,0,2023-03-01T18:51:02.109215,1651629,1289,1906,-464,-1186,-811,-287,-61,159,-313
13386,4280,0,2023-03-01T18:51:02.114739,1651635,1289,1906,-464,-1186,-811,-287,-61,159,-313
13387,4281,0,2023-03-01T18:51:02.120137,1651640,1289,1906,-464,-1186,-811,-287,-61,159,-313
13388,4282,0,2023-03-01T18:51:02.125136,1651645,1289,1906,-464,-1186,-811,-287,-61,159,-313
13389,4283,0,2023-03-01T18:51:02.131707,1651651,1290,1903,-460,-1178,-793,-297,-61,159,-313
13390,4284,0,2023-03-01T18:51:02.138156,1651658,1290,1903,-460,-1178,-793,-297,-61,159,-313
13391,4285,0,2023-03-01T18:51:02.142970,1651662,1290,1903,-460,-1178,-793,-297,-61,159,-313
13392,4286,0,2023-03-01T18:51:02.148003,1651667,1286,1903,-454,-1177,-791,-290,-61,159,-313
13393,4287,0,2023-03-01T18:51:02.154234,1651674,1286,1903,-454,-1177,-791,-290,-61,159,-313
13394,4288,0,2023-03-01T18:51:02.159970,1651680,1286,1903,-454,-1177,-791,-290,-61,159,-313
13395,4289,0,2023-03-01T18:51:02.164931,1651685,1286,1903,-454,-1177,-791,-290,-61,159,-313
13396,4290,0,2023-03-01T18:51:02.170492,1651690,1291,1908,-461,-1183,-793,-304,-61,159,-313
13397,4291,0,2023-03-01T18:51:02.176621,1651696,1291,1908,-461,-1183,-793,-304,-61,159,-313
13398,4292,0,2023-03-01T18:51:02.181602,1651701,1291,1908,-461,-1183,-793,-304,-61,159,-313
13399,4293,0,2023-03-01T18:51:02.186262,1651706,1284,1906,-455,-1190,-801,-311,-61,159,-313
13400,4294,0,2023-03-01T18:51:02.192374,1651713,1284,1906,-455,-1190,-801,-311,-61,159,-313
13401,4295,0,2023-03-01T18:51:02.198145,1651718,1284,1906,-455,-1190,-801,-311,-61,159,-313
13402,4296,0,2023-03-01T18:51:02.203359,1651723,1284,1906,-455,-1190,-801,-311,-61,159,-313
13403,4297,0,2023-03-01T18:51:02.208050,1651728,1285,1907,-463,-1190,-794,-306,-61,159,-313
13404,4298,0,2023-03-01T18:51:02.213828,1651734,1285,1907,-463,-1190,-794,-306,-61,159,-313
13405,4299,0,2023-03-01T18:51:02.219546,1651739,1285,1907,-463,-1190,-794,-306,-61,159,-313
13406,4300,0,2023-03-01T18:51:02.224828,1651745,1285,1907,-463,-1190,-794,-306,-61,159,-313
13407,4301,0,2023-03-01T18:51:02.230477,1651750,1286,1904,-459,-1181,-789,-301,-61,159,-313
13408,4302,0,2023-03-01T18:51:02.237218,1651757,1286,1904,-459,-1181,-789,-301,-61,159,-313
13409,4303,0,2023-03-01T18:51:02.242359,1651763,1286,1904,-459,-1181,-789,-301,-61,159,-313
13410,4304,0,2023-03-01T18:51:02.247430,1651767,1283,1898,-454,-1159,-812,-287,-51,151,-315
13411,4305,0,2023-03-01T18:51:02.253612,1651774,1283,1898,-454,-1159,-812,-287,-51,151,-315
13412,4306,0,2023-03-01T18:51:02.259114,1651779,1283,1898,-454,-1159,-812,-287,-51,151,-315
13413,4307,0,2023-03-01T18:51:02.264295,1651784,1283,1898,-454,-1159,-812,-287,-51,151,-315
13414,4308,0,2023-03-01T18:51:02.269857,1651789,1286,1910,-462,-1179,-804,-305,-51,151,-315
13415,4309,0,2023-03-01T18:51:02.275543,1651795,1286,1910,-462,-1179,-804,-305,-51,151,-315
13416,4310,0,2023-03-01T18:51:02.281101,1651801,1286,1910,-462,-1179,-804,-305,-51,151,-315
13417,4311,0,2023-03-01T18:51:02.285693,1651806,1286,1910,-462,-1179,-804,-305,-51,151,-315
13418,4312,0,2023-03-01T18:51:02.291754,1651812,1286,1910,-462,-1179,-804,-305,-51,151,-315
13419,4313,0,2023-03-01T18:51:02.297651,1651817,1286,1910,-462,-1179,-804,-305,-51,151,-315
13420,4314,0,2023-03-01T18:51:02.302883,1651822,1286,1910,-462,-1179,-804,-305,-51,151,-315
13421,4315,0,2023-03-01T18:51:02.307393,1651827,1285,1910,-459,-1174,-789,-304,-51,151,-315
13422,4316,0,2023-03-01T18:51:02.313212,1651833,1285,1910,-459,-1174,-789,-304,-51,151,-315
13423,4317,0,2023-03-01T18:51:02.318661,1651838,1285,1910,-459,-1174,-789,-304,-51,151,-315
13424,4318,0,2023-03-01T18:51:02.323746,1651844,1285,1910,-459,-1174,-789,-304,-51,151,-315
13425,4319,0,2023-03-01T18:51:02.328528,1651849,1289,1905,-457,-1186,-792,-309,-51,151,-315
13426,4320,0,2023-03-01T18:51:02.334113,1651854,1289,1905,-457,-1186,-792,-309,-51,151,-315
13427,4321,0,2023-03-01T18:51:02.339456,1651859,1289,1905,-457,-1186,-792,-309,-51,151,-315
13428,4322,0,2023-03-01T18:51:02.344324,1651864,1289,1905,-457,-1186,-792,-309,-51,151,-315
13429,4323,0,2023-03-01T18:51:02.349384,1651869,1288,1904,-461,-1181,-796,-296,-51,151,-315
13430,4324,0,2023-03-01T18:51:02.354423,1651874,1288,1904,-461,-1181,-796,-296,-51,151,-315
13431,4325,0,2023-03-01T18:51:02.360198,1651880,1288,1904,-461,-1181,-796,-296,-51,151,-315
13432,4326,0,2023-03-01T18:51:02.364808,1651885,1288,1904,-461,-1181,-796,-296,-51,151,-315
13433,4327,0,2023-03-01T18:51:02.369382,1651890,1285,1908,-455,-1182,-793,-303,-42,162,-312
13434,4328,0,2023-03-01T18:51:02.374536,1651895,1285,1908,-455,-1182,-793,-303,-42,162,-312
13435,4329,0,2023-03-01T18:51:02.380180,1651900,1285,1908,-455,-1182,-793,-303,-42,162,-312
13436,4330,0,2023-03-01T18:51:02.385175,1651905,1285,1908,-455,-1182,-793,-303,-42,162,-312
13437,4331,0,2023-03-01T18:51:02.390601,1651910,1286,1904,-459,-1180,-799,-299,-42,162,-312
13438,4332,0,2023-03-01T18:51:02.396604,1651916,1286,1904,-459,-1180,-799,-299,-42,162,-312
13439,4333,0,2023-03-01T18:51:02.401620,1651921,1286,1904,-459,-1180,-799,-299,-42,162,-312
13440,4334,0,2023-03-01T18:51:02.406778,1651927,1286,1901,-456,-1184,-797,-301,-42,162,-312
13441,4335,0,2023-03-01T18:51:02.413838,1651934,1286,1901,-456,-1184,-797,-301,-42,162,-312
13442,4336,0,2023-03-01T18:51:02.419428,1651939,1286,1901,-456,-1184,-797,-301,-42,162,-312
13443,4337,0,2023-03-01T18:51:02.424476,1651944,1286,1901,-456,-1184,-797,-301,-42,162,-312
13444,4338,0,2023-03-01T18:51:02.430264,1651950,1288,1902,-461,-1175,-820,-289,-42,162,-312
13445,4339,0,2023-03-01T18:51:02.436534,1651956,1288,1902,-461,-1175,-820,-289,-42,162,-312
13446,4340,0,2023-03-01T18:51:02.441710,1651961,1288,1902,-461,-1175,-820,-289,-42,162,-312
13447,4341,0,2023-03-01T18:51:02.446924,1651966,1285,1908,-466,-1179,-807,-307,-42,162,-312
13448,4342,0,2023-03-01T18:51:02.454535,1651975,1285,1908,-466,-1179,-807,-307,-42,162,-312
13449,4343,0,2023-03-01T18:51:02.459423,1651980,1285,1908,-466,-1179,-807,-307,-42,162,-312
13450,4344,0,2023-03-01T18:51:02.464700,1651984,1285,1908,-466,-1179,-807,-307,-42,162,-312
13451,4345,0,2023-03-01T18:51:02.470794,1651991,1291,1906,-458,-1181,-797,-299,-42,162,-312
13452,4346,0,2023-03-01T18:51:02.477318,1651997,1291,1906,-458,-1181,-797,-299,-42,162,-312
13453,4347,0,2023-03-01T18:51:02.482801,1652002,1291,1906,-458,-1181,-797,-299,-42,162,-312
13454,4348,0,2023-03-01T18:51:02.487874,1652007,1291,1900,-461,-1176,-795,-303,-53,165,-309
13455,4349,0,2023-03-01T18:51:02.494396,1652015,1291,1900,-461,-1176,-795,-303,-53,165,-309
13456,4350,0,2023-03-01T18:51:02.499834,1652020,1291,1900,-461,-1176,-795,-303,-53,165,-309
13457,4351,0,2023-03-01T18:51:02.504698,1652025,1291,1900,-461,-1176,-795,-303,-53,165,-309
13458,4352,0,2023-03-01T18:51:02.509563,1652029,1285,1902,-456,-1180,-799,-309,-53,165,-309
13459,4353,0,2023-03-01T18:51:02.516082,1652035,1285,1902,-456,-1180,-799,-309,-53,165,-309
13460,4354,0,2023-03-01T18:51:02.521986,1652041,1285,1902,-456,-1180,-799,-309,-53,165,-309
13461,4355,0,2023-03-01T18:51:02.527251,1652047,1290,1904,-461,-1186,-801,-302,-53,165,-309
13462,4356,0,2023-03-01T18:51:02.533126,1652052,1290,1904,-461,-1186,-801,-302,-53,165,-309
13463,4357,0,2023-03-01T18:51:02.538762,1652059,1290,1904,-461,-1186,-801,-302,-53,165,-309
13464,4358,0,2023-03-01T18:51:02.543775,1652064,1290,1904,-461,-1186,-801,-302,-53,165,-309
13465,4359,0,2023-03-01T18:51:02.548641,1652069,1289,1906,-458,-1190,-797,-303,-53,165,-309
13466,4360,0,2023-03-01T18:51:02.554575,1652074,1289,1906,-458,-1190,-797,-303,-53,165,-309
13467,4361,0,2023-03-01T18:51:02.560351,1652080,1289,1906,-458,-1190,-797,-303,-53,165,-309
13468,4362,0,2023-03-01T18:51:02.565197,1652085,1289,1906,-458,-1190,-797,-303,-53,165,-309
13469,4363,0,2023-03-01T18:51:02.570740,1652090,1283,1902,-459,-1196,-800,-298,-53,165,-309
13470,4364,0,2023-03-01T18:51:02.577119,1652097,1283,1902,-459,-1196,-800,-298,-53,165,-309
13471,4365,0,2023-03-01T18:51:02.582327,1652103,1283,1902,-459,-1196,-800,-298,-53,165,-309
13472,4366,0,2023-03-01T18:51:02.587173,1652107,1284,1912,-454,-1189,-798,-310,-53,165,-309
13473,4367,0,2023-03-01T18:51:02.592403,1652112,1284,1912,-454,-1189,-798,-310,-53,165,-309
13474,4368,0,2023-03-01T18:51:02.598144,1652118,1284,1912,-454,-1189,-798,-310,-53,165,-309
13475,4369,0,2023-03-01T18:51:02.602867,1652123,1284,1912,-454,-1189,-798,-310,-53,165,-309
13476,4370,0,2023-03-01T18:51:02.608497,1652128,1285,1901,-460,-1182,-822,-290,-53,165,-309
13477,4371,0,2023-03-01T18:51:02.614917,1652134,1285,1901,-460,-1182,-822,-290,-53,165,-309
13478,4372,0,2023-03-01T18:51:02.620482,1652141,1285,1901,-460,-1182,-822,-290,-53,165,-309
13479,4373,0,2023-03-01T18:51:02.625509,1652146,1285,1901,-460,-1182,-822,-290,-53,165,-309
13480,4374,0,2023-03-01T18:51:02.630417,1652150,1290,1909,-453,-1173,-810,-301,-55,165,-313
13481,4375,0,2023-03-01T18:51:02.637192,1652157,1290,1909,-453,-1173,-810,-301,-55,165,-313
13482,4376,0,2023-03-01T18:51:02.642373,1652162,1290,1909,-453,-1173,-810,-301,-55,165,-313
13483,4377,0,2023-03-01T18:51:02.647025,1652167,1291,1905,-460,-1185,-807,-303,-55,165,-313
13484,4378,0,2023-03-01T18:51:02.653475,1652173,1291,1905,-460,-1185,-807,-303,-55,165,-313
13485,4379,0,2023-03-01T18:51:02.659599,1652179,1291,1905,-460,-1185,-807,-303,-55,165,-313
13486,4380,0,2023-03-01T18:51:02.664554,1652185,1291,1905,-460,-1185,-807,-303,-55,165,-313
13487,4381,0,2023-03-01T18:51:02.669584,1652190,1288,1901,-453,-1187,-805,-301,-55,165,-313
13488,4382,0,2023-03-01T18:51:02.675450,1652195,1288,1901,-453,-1187,-805,-301,-55,165,-313
13489,4383,0,2023-03-01T18:51:02.680790,1652201,1288,1901,-453,-1187,-805,-301,-55,165,-313
13490,4384,0,2023-03-01T18:51:02.685905,1652205,1288,1901,-453,-1187,-805,-301,-55,165,-313
13491,4385,0,2023-03-01T18:51:02.691112,1652210,1291,1902,-459,-1199,-797,-302,-55,165,-313
13492,4386,0,2023-03-01T18:51:02.697568,1652217,1291,1902,-459,-1199,-797,-302,-55,165,-313
13493,4387,0,2023-03-01T18:51:02.702599,1652222,1291,1902,-459,-1199,-797,-302,-55,165,-313
13494,4388,0,2023-03-01T18:51:02.707687,1652228,1290,1903,-460,-1193,-792,-302,-55,165,-313
13495,4389,0,2023-03-01T18:51:02.714142,1652234,1290,1903,-460,-1193,-792,-302,-55,165,-313
13496,4390,0,2023-03-01T18:51:02.719952,1652240,1290,1903,-460,-1193,-792,-302,-55,165,-313
13497,4391,0,2023-03-01T18:51:02.724835,1652245,1290,1903,-460,-1193,-792,-302,-55,165,-313
13498,4392,0,2023-03-01T18:51:02.729708,1652249,1290,1903,-460,-1198,-804,-307,-55,165,-313
13499,4393,0,2023-03-01T18:51:02.735619,1652255,1290,1903,-460,-1198,-804,-307,-55,165,-313
13500,4394,0,2023-03-01T18:51:02.741041,1652260,1290,1903,-460,-1198,-804,-307,-55,165,-313
13501,4395,0,2023-03-01T18:51:02.746600,1652265,1290,1903,-460,-1198,-804,-307,-55,165,-313
13502,4396,0,2023-03-01T18:51:02.752486,1652273,1290,1903,-460,-1198,-804,-307,-52,162,-308
13503,4397,0,2023-03-01T18:51:02.758048,1652278,1290,1903,-460,-1198,-804,-307,-52,162,-308
13504,4398,0,2023-03-01T18:51:02.763409,1652283,1290,1903,-460,-1198,-804,-307,-52,162,-308
13505,4399,0,2023-03-01T18:51:02.768480,1652288,1290,1904,-457,-1178,-810,-299,-52,162,-308
13506,4400,0,2023-03-01T18:51:02.774477,1652294,1290,1904,-457,-1178,-810,-299,-52,162,-308
13507,4401,0,2023-03-01T18:51:02.780334,1652300,1290,1904,-457,-1178,-810,-299,-52,162,-308
13508,4402,0,2023-03-01T18:51:02.785409,1652305,1290,1904,-457,-1178,-810,-299,-52,162,-308
13509,4403,0,2023-03-01T18:51:02.790442,1652311,1292,1903,-462,-1166,-828,-298,-52,162,-308
13510,4404,0,2023-03-01T18:51:02.796964,1652317,1292,1903,-462,-1166,-828,-298,-52,162,-308
13511,4405,0,2023-03-01T18:51:02.801889,1652322,1292,1903,-462,-1166,-828,-298,-52,162,-308
13512,4406,0,2023-03-01T18:51:02.807250,1652327,1289,1907,-462,-1188,-801,-297,-52,162,-308
13513,4407,0,2023-03-01T18:51:02.813071,1652333,1289,1907,-462,-1188,-801,-297,-52,162,-308
13514,4408,0,2023-03-01T18:51:02.819048,1652338,1289,1907,-462,-1188,-801,-297,-52,162,-308
13515,4409,0,2023-03-01T18:51:02.824361,1652344,1289,1907,-462,-1188,-801,-297,-52,162,-308
13516,4410,0,2023-03-01T18:51:02.830292,1652350,1286,1901,-463,-1175,-792,-299,-52,162,-308
13517,4411,0,2023-03-01T18:51:02.835975,1652356,1286,1901,-463,-1175,-792,-299,-52,162,-308
13518,4412,0,2023-03-01T18:51:02.841241,1652362,1286,1901,-463,-1175,-792,-299,-52,162,-308
13519,4413,0,2023-03-01T18:51:02.846002,1652366,1286,1901,-463,-1175,-792,-299,-52,162,-308
13520,4414,0,2023-03-01T18:51:02.850489,1652371,1289,1910,-462,-1181,-779,-311,-52,162,-308
13521,4415,0,2023-03-01T18:51:02.856488,1652376,1289,1910,-462,-1181,-779,-311,-52,162,-308
13522,4416,0,2023-03-01T18:51:02.861470,1652381,1289,1910,-462,-1181,-779,-311,-52,162,-308
13523,4417,0,2023-03-01T18:51:02.866519,1652386,1289,1910,-462,-1181,-779,-311,-52,162,-308
13524,4418,0,2023-03-01T18:51:02.871235,1652391,1287,1901,-456,-1185,-790,-293,-52,162,-308
13525,4419,0,2023-03-01T18:51:02.877414,1652398,1287,1901,-456,-1185,-790,-293,-52,162,-308
13526,4420,0,2023-03-01T18:51:02.882182,1652402,1287,1901,-456,-1185,-790,-293,-52,162,-308
13527,4421,0,2023-03-01T18:51:02.887917,1652408,1294,1909,-454,-1184,-783,-307,-52,160,-308
13528,4422,0,2023-03-01T18:51:02.893956,1652414,1294,1909,-454,-1184,-783,-307,-52,160,-308
13529,4423,0,2023-03-01T18:51:02.899518,1652419,1294,1909,-454,-1184,-783,-307,-52,160,-308
13530,4424,0,2023-03-01T18:51:02.904374,1652424,1294,1909,-454,-1184,-783,-307,-52,160,-308
13531,4425,0,2023-03-01T18:51:02.909189,1652429,1286,1897,-459,-1144,-828,-290,-52,160,-308
13532,4426,0,2023-03-01T18:51:02.914903,1652434,1286,1897,-459,-1144,-828,-290,-52,160,-308
13533,4427,0,2023-03-01T18:51:02.920097,1652441,1286,1897,-459,-1144,-828,-290,-52,160,-308
13534,4428,0,2023-03-01T18:51:02.924887,1652445,1286,1897,-459,-1144,-828,-290,-52,160,-308
13535,4429,0,2023-03-01T18:51:02.929797,1652450,1289,1906,-460,-1162,-798,-307,-52,160,-308
13536,4430,0,2023-03-01T18:51:02.935329,1652455,1289,1906,-460,-1162,-798,-307,-52,160,-308
13537,4431,0,2023-03-01T18:51:02.940168,1652460,1289,1906,-460,-1162,-798,-307,-52,160,-308
13538,4432,0,2023-03-01T18:51:02.945224,1652465,1289,1906,-460,-1162,-798,-307,-52,160,-308
13539,4433,0,2023-03-01T18:51:02.950058,1652470,1292,1910,-461,-1171,-795,-300,-52,160,-308
13540,4434,0,2023-03-01T18:51:02.955662,1652475,1292,1910,-461,-1171,-795,-300,-52,160,-308
13541,4435,0,2023-03-01T18:51:02.961027,1652481,1292,1910,-461,-1171,-795,-300,-52,160,-308
13542,4436,0,2023-03-01T18:51:02.966027,1652486,1292,1910,-461,-1171,-795,-300,-52,160,-308
13543,4437,0,2023-03-01T18:51:02.970831,1652491,1291,1905,-467,-1166,-800,-291,-52,160,-308
13544,4438,0,2023-03-01T18:51:02.976678,1652497,1291,1905,-467,-1166,-800,-291,-52,160,-308
13545,4439,0,2023-03-01T18:51:02.981288,1652501,1291,1905,-467,-1166,-800,-291,-52,160,-308
13546,4440,0,2023-03-01T18:51:02.986518,1652506,1291,1905,-467,-1166,-800,-291,-52,160,-308
13547,4441,0,2023-03-01T18:51:02.992558,1652512,1288,1903,-462,-1175,-790,-300,-52,160,-308
13548,4442,0,2023-03-01T18:51:02.997819,1652517,1288,1903,-462,-1175,-790,-300,-52,160,-308
13549,4443,0,2023-03-01T18:51:03.002458,1652523,1288,1903,-462,-1175,-790,-300,-52,160,-308
13550,4444,0,2023-03-01T18:51:03.007387,1652528,1293,1908,-465,-1153,-803,-297,-60,166,-302
13551,4445,0,2023-03-01T18:51:03.013414,1652533,1293,1908,-465,-1153,-803,-297,-60,166,-302
13552,4446,0,2023-03-01T18:51:03.018804,1652538,1293,1908,-465,-1153,-803,-297,-60,166,-302
13553,4447,0,2023-03-01T18:51:03.023653,1652544,1293,1908,-465,-1153,-803,-297,-60,166,-302
13554,4448,0,2023-03-01T18:51:03.028877,1652548,1292,1906,-455,-1138,-820,-292,-60,166,-302
13555,4449,0,2023-03-01T18:51:03.034573,1652554,1292,1906,-455,-1138,-820,-292,-60,166,-302
13556,4450,0,2023-03-01T18:51:03.040075,1652559,1292,1906,-455,-1138,-820,-292,-60,166,-302
13557,4451,0,2023-03-01T18:51:03.044891,1652564,1292,1906,-455,-1138,-820,-292,-60,166,-302
13558,4452,0,2023-03-01T18:51:03.050931,1652571,1287,1901,-461,-1172,-803,-301,-60,166,-302
13559,4453,0,2023-03-01T18:51:03.057167,1652577,1287,1901,-461,-1172,-803,-301,-60,166,-302
13560,4454,0,2023-03-01T18:51:03.062034,1652582,1287,1901,-461,-1172,-803,-301,-60,166,-302
13561,4455,0,2023-03-01T18:51:03.066907,1652587,1287,1901,-461,-1172,-803,-301,-60,166,-302
13562,4456,0,2023-03-01T18:51:03.071533,1652591,1292,1903,-456,-1166,-804,-299,-60,166,-302
13563,4457,0,2023-03-01T18:51:03.077363,1652597,1292,1903,-456,-1166,-804,-299,-60,166,-302
13564,4458,0,2023-03-01T18:51:03.082838,1652602,1292,1903,-456,-1166,-804,-299,-60,166,-302
13565,4459,0,2023-03-01T18:51:03.087795,1652608,1289,1908,-464,-1151,-802,-294,-60,166,-302
13566,4460,0,2023-03-01T18:51:03.093625,1652614,1289,1908,-464,-1151,-802,-294,-60,166,-302
13567,4461,0,2023-03-01T18:51:03.099156,1652619,1289,1908,-464,-1151,-802,-294,-60,166,-302
13568,4462,0,2023-03-01T18:51:03.104071,1652624,1289,1908,-464,-1151,-802,-294,-60,166,-302
13569,4463,0,2023-03-01T18:51:03.109086,1652629,1293,1905,-462,-1168,-780,-306,-60,166,-302
13570,4464,0,2023-03-01T18:51:03.114601,1652634,1293,1905,-462,-1168,-780,-306,-60,166,-302
13571,4465,0,2023-03-01T18:51:03.119993,1652640,1293,1905,-462,-1168,-780,-306,-60,166,-302
13572,4466,0,2023-03-01T18:51:03.124511,1652644,1293,1905,-462,-1168,-780,-306,-60,166,-302
13573,4467,0,2023-03-01T18:51:03.129130,1652649,1288,1903,-454,-1143,-798,-294,-68,162,-314
13574,4468,0,2023-03-01T18:51:03.134787,1652655,1288,1903,-454,-1143,-798,-294,-68,162,-314
13575,4469,0,2023-03-01T18:51:03.140468,1652661,1288,1903,-454,-1143,-798,-294,-68,162,-314
13576,4470,0,2023-03-01T18:51:03.145169,1652665,1288,1903,-454,-1143,-798,-294,-68,162,-314
13577,4471,0,2023-03-01T18:51:03.150485,1652670,1292,1915,-466,-1143,-819,-299,-68,162,-314
13578,4472,0,2023-03-01T18:51:03.156711,1652676,1292,1915,-466,-1143,-819,-299,-68,162,-314
13579,4473,0,2023-03-01T18:51:03.162008,1652681,1292,1915,-466,-1143,-819,-299,-68,162,-314
13580,4474,0,2023-03-01T18:51:03.166944,1652686,1292,1915,-466,-1143,-819,-299,-68,162,-314
13581,4475,0,2023-03-01T18:51:03.172484,1652692,1284,1896,-456,-1122,-827,-287,-68,162,-314
13582,4476,0,2023-03-01T18:51:03.179521,1652700,1284,1896,-456,-1122,-827,-287,-68,162,-314
13583,4477,0,2023-03-01T18:51:03.184412,1652704,1284,1896,-456,-1122,-827,-287,-68,162,-314
13584,4478,0,2023-03-01T18:51:03.189350,1652709,1294,1896,-467,-1139,-813,-300,-68,162,-314
13585,4479,0,2023-03-01T18:51:03.195342,1652715,1294,1896,-467,-1139,-813,-300,-68,162,-314
13586,4480,0,2023-03-01T18:51:03.200844,1652721,1294,1896,-467,-1139,-813,-300,-68,162,-314
13587,4481,0,2023-03-01T18:51:03.205787,1652725,1294,1896,-467,-1139,-813,-300,-68,162,-314
13588,4482,0,2023-03-01T18:51:03.211669,1652731,1294,1917,-459,-1138,-811,-301,-68,162,-314
13589,4483,0,2023-03-01T18:51:03.218862,1652739,1294,1917,-459,-1138,-811,-301,-68,162,-314
13590,4484,0,2023-03-01T18:51:03.223784,1652744,1294,1917,-459,-1138,-811,-301,-68,162,-314
13591,4485,0,2023-03-01T18:51:03.228756,1652749,1292,1903,-472,-1135,-837,-283,-68,162,-314
13592,4486,0,2023-03-01T18:51:03.234569,1652755,1292,1903,-472,-1135,-837,-283,-68,162,-314
13593,4487,0,2023-03-01T18:51:03.240193,1652760,1292,1903,-472,-1135,-837,-283,-68,162,-314
13594,4488,0,2023-03-01T18:51:03.245046,1652765,1292,1903,-472,-1135,-837,-283,-68,162,-314
13595,4489,0,2023-03-01T18:51:03.250477,1652770,1288,1903,-449,-1117,-822,-292,-68,162,-314
13596,4490,0,2023-03-01T18:51:03.256221,1652776,1288,1903,-449,-1117,-822,-292,-68,162,-314
13597,4491,0,2023-03-01T18:51:03.261838,1652782,1288,1903,-449,-1117,-822,-292,-68,162,-314
13598,4492,0,2023-03-01T18:51:03.266897,1652787,1288,1903,-449,-1117,-822,-292,-68,162,-314
13599,4493,0,2023-03-01T18:51:03.272421,1652792,1295,1901,-480,-1127,-824,-277,-54,172,-306
13600,4494,0,2023-03-01T18:51:03.278973,1652799,1295,1901,-480,-1127,-824,-277,-54,172,-306
13601,4495,0,2023-03-01T18:51:03.283955,1652804,1295,1901,-480,-1127,-824,-277,-54,172,-306
13602,4496,0,2023-03-01T18:51:03.289015,1652809,1297,1914,-459,-1173,-764,-323,-54,172,-306
13603,4497,0,2023-03-01T18:51:03.295101,1652815,1297,1914,-459,-1173,-764,-323,-54,172,-306
13604,4498,0,2023-03-01T18:51:03.300709,1652820,1297,1914,-459,-1173,-764,-323,-54,172,-306
13605,4499,0,2023-03-01T18:51:03.305433,1652826,1297,1914,-459,-1173,-764,-323,-54,172,-306
13606,4500,0,2023-03-01T18:51:03.310678,1652831,1278,1873,-456,-1090,-866,-254,-54,172,-306
13607,4501,0,2023-03-01T18:51:03.316504,1652837,1278,1873,-456,-1090,-866,-254,-54,172,-306
13608,4502,0,2023-03-01T18:51:03.321622,1652841,1278,1873,-456,-1090,-866,-254,-54,172,-306
13609,4503,0,2023-03-01T18:51:03.326875,1652847,1278,1873,-456,-1090,-866,-254,-54,172,-306
13610,4504,0,2023-03-01T18:51:03.332360,1652852,1297,1913,-463,-1145,-787,-315,-54,172,-306
13611,4505,0,2023-03-01T18:51:03.338240,1652858,1297,1913,-463,-1145,-787,-315,-54,172,-306
13612,4506,0,2023-03-01T18:51:03.343352,1652864,1297,1913,-463,-1145,-787,-315,-54,172,-306
13613,4507,0,2023-03-01T18:51:03.348435,1652869,1308,1923,-470,-1129,-814,-291,-54,172,-306
13614,4508,0,2023-03-01T18:51:03.354910,1652875,1308,1923,-470,-1129,-814,-291,-54,172,-306
13615,4509,0,2023-03-01T18:51:03.360367,1652880,1308,1923,-470,-1129,-814,-291,-54,172,-306
13616,4510,0,2023-03-01T18:51:03.365513,1652885,1308,1923,-470,-1129,-814,-291,-54,172,-306
13617,4511,0,2023-03-01T18:51:03.370113,1652890,1286,1888,-474,-1099,-828,-284,-54,172,-306
13618,4512,0,2023-03-01T18:51:03.375492,1652895,1286,1888,-474,-1099,-828,-284,-54,172,-306
13619,4513,0,2023-03-01T18:51:03.381304,1652901,1286,1888,-474,-1099,-828,-284,-54,172,-306
13620,4514,0,2023-03-01T18:51:03.386558,1652907,1286,1888,-474,-1099,-828,-284,-54,172,-306
13621,4515,0,2023-03-01T18:51:03.392286,1652913,1298,1908,-455,-1125,-791,-305,-52,150,-306
13622,4516,0,2023-03-01T18:51:03.398782,1652919,1298,1908,-455,-1125,-791,-305,-52,150,-306
13623,4517,0,2023-03-01T18:51:03.403924,1652924,1298,1908,-455,-1125,-791,-305,-52,150,-306
13624,4518,0,2023-03-01T18:51:03.408860,1652929,1294,1894,-481,-1111,-839,-266,-52,150,-306
13625,4519,0,2023-03-01T18:51:03.415091,1652935,1294,1894,-481,-1111,-839,-266,-52,150,-306
13626,4520,0,2023-03-01T18:51:03.420410,1652940,1294,1894,-481,-1111,-839,-266,-52,150,-306
13627,4521,0,2023-03-01T18:51:03.425418,1652945,1294,1894,-481,-1111,-839,-266,-52,150,-306
13628,4522,0,2023-03-01T18:51:03.431911,1652951,1305,1926,-444,-1118,-777,-323,-52,150,-306
13629,4523,0,2023-03-01T18:51:03.438558,1652959,1305,1926,-444,-1118,-777,-323,-52,150,-306
13630,4524,0,2023-03-01T18:51:03.443450,1652964,1305,1926,-444,-1118,-777,-323,-52,150,-306
13631,4525,0,2023-03-01T18:51:03.448102,1652968,1282,1878,-493,-1092,-835,-252,-52,150,-306
13632,4526,0,2023-03-01T18:51:03.454241,1652974,1282,1878,-493,-1092,-835,-252,-52,150,-306
13633,4527,0,2023-03-01T18:51:03.459601,1652979,1282,1878,-493,-1092,-835,-252,-52,150,-306
13634,4528,0,2023-03-01T18:51:03.464689,1652984,1282,1878,-493,-1092,-835,-252,-52,150,-306
13635,4529,0,2023-03-01T18:51:03.470381,1652990,1291,1918,-440,-1076,-664,-343,-52,150,-306
13636,4530,0,2023-03-01T18:51:03.475815,1652996,1291,1918,-440,-1076,-664,-343,-52,150,-306
13637,4531,0,2023-03-01T18:51:03.482220,1653002,1291,1918,-440,-1076,-664,-343,-52,150,-306
13638,4532,0,2023-03-01T18:51:03.487916,1653008,1291,1918,-440,-1076,-664,-343,-52,150,-306
13639,4533,0,2023-03-01T18:51:03.493451,1653013,1287,1892,-475,-1017,-703,-273,-52,150,-306
13640,4534,0,2023-03-01T18:51:03.499126,1653019,1287,1892,-475,-1017,-703,-273,-52,150,-306
13641,4535,0,2023-03-01T18:51:03.504222,1653024,1287,1892,-475,-1017,-703,-273,-52,150,-306
13642,4536,0,2023-03-01T18:51:03.509019,1653029,1301,1931,-447,-997,-648,-324,-52,150,-306
13643,4537,0,2023-03-01T18:51:03.515981,1653036,1301,1931,-447,-997,-648,-324,-52,150,-306
13644,4538,0,2023-03-01T18:51:03.521944,1653042,1301,1931,-447,-997,-648,-324,-52,150,-306
13645,4539,0,2023-03-01T18:51:03.526675,1653047,1301,1931,-447,-997,-648,-324,-52,150,-306
13646,4540,0,2023-03-01T18:51:03.531870,1653051,1290,1888,-484,-969,-668,-277,-60,162,-316
13647,4541,0,2023-03-01T18:51:03.539187,1653058,1290,1888,-484,-969,-668,-277,-60,162,-316
13648,4542,0,2023-03-01T18:51:03.544668,1653064,1290,1888,-484,-969,-668,-277,-60,162,-316
13649,4543,0,2023-03-01T18:51:03.549687,1653069,1293,1910,-447,-984,-597,-336,-60,162,-316
13650,4544,0,2023-03-01T18:51:03.554956,1653074,1293,1910,-447,-984,-597,-336,-60,162,-316
13651,4545,0,2023-03-01T18:51:03.560798,1653081,1293,1910,-447,-984,-597,-336,-60,162,-316
13652,4546,0,2023-03-01T18:51:03.565750,1653086,1293,1910,-447,-984,-597,-336,-60,162,-316
13653,4547,0,2023-03-01T18:51:03.571570,1653091,1292,1895,-487,-996,-625,-306,-60,162,-316
13654,4548,0,2023-03-01T18:51:03.578428,1653098,1292,1895,-487,-996,-625,-306,-60,162,-316
13655,4549,0,2023-03-01T18:51:03.583379,1653103,1292,1895,-487,-996,-625,-306,-60,162,-316
13656,4550,0,2023-03-01T18:51:03.588177,1653108,1293,1906,-468,-1047,-570,-338,-60,162,-316
13657,4551,0,2023-03-01T18:51:03.594518,1653114,1293,1906,-468,-1047,-570,-338,-60,162,-316
13658,4552,0,2023-03-01T18:51:03.600216,1653121,1293,1906,-468,-1047,-570,-338,-60,162,-316
13659,4553,0,2023-03-01T18:51:03.605125,1653126,1293,1906,-468,-1047,-570,-338,-60,162,-316
13660,4554,0,2023-03-01T18:51:03.609913,1653130,1287,1902,-464,-1044,-574,-326,-60,162,-316
13661,4555,0,2023-03-01T18:51:03.615992,1653136,1287,1902,-464,-1044,-574,-326,-60,162,-316
13662,4556,0,2023-03-01T18:51:03.621756,1653141,1287,1902,-464,-1044,-574,-326,-60,162,-316
13663,4557,0,2023-03-01T18:51:03.626738,1653146,1287,1902,-464,-1044,-574,-326,-60,162,-316
13664,4558,0,2023-03-01T18:51:03.632421,1653152,1288,1904,-468,-1045,-568,-320,-60,162,-316
13665,4559,0,2023-03-01T18:51:03.638598,1653158,1288,1904,-468,-1045,-568,-320,-60,162,-316
13666,4560,0,2023-03-01T18:51:03.643873,1653164,1288,1904,-468,-1045,-568,-320,-60,162,-316
13667,4561,0,2023-03-01T18:51:03.648941,1653169,1294,1910,-458,-1042,-565,-327,-58,156,-306
13668,4562,0,2023-03-01T18:51:03.655736,1653176,1294,1910,-458,-1042,-565,-327,-58,156,-306
13669,4563,0,2023-03-01T18:51:03.661516,1653181,1294,1910,-458,-1042,-565,-327,-58,156,-306
13670,4564,0,2023-03-01T18:51:03.666672,1653186,1294,1910,-458,-1042,-565,-327,-58,156,-306
13671,4565,0,2023-03-01T18:51:03.671681,1653191,1289,1897,-473,-1020,-573,-313,-58,156,-306
13672,4566,0,2023-03-01T18:51:03.678263,1653198,1289,1897,-473,-1020,-573,-313,-58,156,-306
13673,4567,0,2023-03-01T18:51:03.683183,1653203,1289,1897,-473,-1020,-573,-313,-58,156,-306
13674,4568,0,2023-03-01T18:51:03.688047,1653208,1292,1903,-461,-1034,-568,-324,-58,156,-306
13675,4569,0,2023-03-01T18:51:03.693705,1653214,1292,1903,-461,-1034,-568,-324,-58,156,-306
13676,4570,0,2023-03-01T18:51:03.699711,1653220,1292,1903,-461,-1034,-568,-324,-58,156,-306
13677,4571,0,2023-03-01T18:51:03.704791,1653224,1292,1903,-461,-1034,-568,-324,-58,156,-306
13678,4572,0,2023-03-01T18:51:03.709877,1653230,1294,1898,-476,-1018,-571,-316,-58,156,-306
13679,4573,0,2023-03-01T18:51:03.716323,1653236,1294,1898,-476,-1018,-571,-316,-58,156,-306
13680,4574,0,2023-03-01T18:51:03.722406,1653242,1294,1898,-476,-1018,-571,-316,-58,156,-306
13681,4575,0,2023-03-01T18:51:03.727521,1653248,1294,1898,-476,-1018,-571,-316,-58,156,-306
13682,4576,0,2023-03-01T18:51:03.732645,1653253,1294,1905,-473,-1045,-564,-332,-58,156,-306
13683,4577,0,2023-03-01T18:51:03.739093,1653259,1294,1905,-473,-1045,-564,-332,-58,156,-306
13684,4578,0,2023-03-01T18:51:03.744186,1653264,1294,1905,-473,-1045,-564,-332,-58,156,-306
13685,4579,0,2023-03-01T18:51:03.749164,1653269,1294,1903,-467,-1042,-567,-327,-58,156,-306
13686,4580,0,2023-03-01T18:51:03.755882,1653275,1294,1903,-467,-1042,-567,-327,-58,156,-306
13687,4581,0,2023-03-01T18:51:03.762209,1653281,1294,1903,-467,-1042,-567,-327,-58,156,-306
13688,4582,0,2023-03-01T18:51:03.767161,1653287,1294,1903,-467,-1042,-567,-327,-58,156,-306
13689,4583,0,2023-03-01T18:51:03.772755,1653293,1289,1904,-471,-1048,-568,-329,-58,156,-306
13690,4584,0,2023-03-01T18:51:03.779000,1653299,1289,1904,-471,-1048,-568,-329,-58,156,-306
13691,4585,0,2023-03-01T18:51:03.784305,1653304,1289,1904,-471,-1048,-568,-329,-58,156,-306
13692,4586,0,2023-03-01T18:51:03.789451,1653309,1289,1904,-471,-1048,-568,-329,-61,167,-315
13693,4587,0,2023-03-01T18:51:03.795146,1653315,1289,1904,-471,-1048,-568,-329,-61,167,-315
13694,4588,0,2023-03-01T18:51:03.801076,1653321,1289,1904,-471,-1048,-568,-329,-61,167,-315
13695,4589,0,2023-03-01T18:51:03.806197,1653325,1289,1904,-471,-1048,-568,-329,-61,167,-315
13696,4590,0,2023-03-01T18:51:03.811919,1653331,1294,1903,-472,-1029,-574,-317,-61,167,-315
13697,4591,0,2023-03-01T18:51:03.818566,1653339,1294,1903,-472,-1029,-574,-317,-61,167,-315
13698,4592,0,2023-03-01T18:51:03.823746,1653344,1294,1903,-472,-1029,-574,-317,-61,167,-315
13699,4593,0,2023-03-01T18:51:03.828634,1653349,1293,1903,-473,-1038,-574,-312,-61,167,-315
13700,4594,0,2023-03-01T18:51:03.834527,1653354,1293,1903,-473,-1038,-574,-312,-61,167,-315
13701,4595,0,2023-03-01T18:51:03.840167,1653360,1293,1903,-473,-1038,-574,-312,-61,167,-315
13702,4596,0,2023-03-01T18:51:03.845278,1653365,1293,1903,-473,-1038,-574,-312,-61,167,-315
13703,4597,0,2023-03-01T18:51:03.850220,1653370,1292,1899,-465,-1034,-562,-319,-61,167,-315
13704,4598,0,2023-03-01T18:51:03.855800,1653376,1292,1899,-465,-1034,-562,-319,-61,167,-315
13705,4599,0,2023-03-01T18:51:03.861058,1653381,1292,1899,-465,-1034,-562,-319,-61,167,-315
13706,4600,0,2023-03-01T18:51:03.865644,1653386,1292,1899,-465,-1034,-562,-319,-61,167,-315
13707,4601,0,2023-03-01T18:51:03.873418,1653393,1293,1901,-474,-1035,-559,-327,-61,167,-315
13708,4602,0,2023-03-01T18:51:03.879393,1653399,1293,1901,-474,-1035,-559,-327,-61,167,-315
13709,4603,0,2023-03-01T18:51:03.884224,1653404,1293,1901,-474,-1035,-559,-327,-61,167,-315
13710,4604,0,2023-03-01T18:51:03.889129,1653409,1291,1904,-471,-1035,-561,-322,-61,167,-315
13711,4605,0,2023-03-01T18:51:03.894944,1653415,1291,1904,-471,-1035,-561,-322,-61,167,-315
13712,4606,0,2023-03-01T18:51:03.900417,1653421,1291,1904,-471,-1035,-561,-322,-61,167,-315
13713,4607,0,2023-03-01T18:51:03.905514,1653426,1291,1904,-471,-1035,-561,-322,-61,167,-315
13714,4608,0,2023-03-01T18:51:03.911290,1653431,1288,1905,-455,-1045,-565,-314,-57,155,-305
13715,4609,0,2023-03-01T18:51:03.917508,1653437,1288,1905,-455,-1045,-565,-314,-57,155,-305
13716,4610,0,2023-03-01T18:51:03.922317,1653442,1288,1905,-455,-1045,-565,-314,-57,155,-305
13717,4611,0,2023-03-01T18:51:03.927510,1653447,1288,1905,-455,-1045,-565,-314,-57,155,-305
13718,4612,0,2023-03-01T18:51:03.932909,1653452,1291,1905,-460,-1041,-587,-324,-57,155,-305
13719,4613,0,2023-03-01T18:51:03.939162,1653458,1291,1905,-460,-1041,-587,-324,-57,155,-305
13720,4614,0,2023-03-01T18:51:03.943962,1653464,1291,1905,-460,-1041,-587,-324,-57,155,-305
13721,4615,0,2023-03-01T18:51:03.948699,1653469,1297,1902,-463,-1050,-591,-323,-57,155,-305
13722,4616,0,2023-03-01T18:51:03.955264,1653475,1297,1902,-463,-1050,-591,-323,-57,155,-305
13723,4617,0,2023-03-01T18:51:03.960716,1653481,1297,1902,-463,-1050,-591,-323,-57,155,-305
13724,4618,0,2023-03-01T18:51:03.965350,1653485,1297,1902,-463,-1050,-591,-323,-57,155,-305
13725,4619,0,2023-03-01T18:51:03.970516,1653490,1293,1900,-474,-1055,-609,-320,-57,155,-305
13726,4620,0,2023-03-01T18:51:03.976505,1653496,1293,1900,-474,-1055,-609,-320,-57,155,-305
13727,4621,0,2023-03-01T18:51:03.983300,1653504,1293,1900,-474,-1055,-609,-320,-57,155,-305
13728,4622,0,2023-03-01T18:51:03.988214,1653508,1293,1900,-474,-1055,-609,-320,-57,155,-305
13729,4623,0,2023-03-01T18:51:03.994078,1653514,1300,1905,-460,-1066,-601,-316,-57,155,-305
13730,4624,0,2023-03-01T18:51:03.999929,1653520,1300,1905,-460,-1066,-601,-316,-57,155,-305
13731,4625,0,2023-03-01T18:51:04.004882,1653525,1300,1905,-460,-1066,-601,-316,-57,155,-305
13732,4626,0,2023-03-01T18:51:04.009893,1653529,1291,1897,-479,-1086,-679,-321,-57,155,-305
13733,4627,0,2023-03-01T18:51:04.015971,1653536,1291,1897,-479,-1086,-679,-321,-57,155,-305
13734,4628,0,2023-03-01T18:51:04.020967,1653541,1291,1897,-479,-1086,-679,-321,-57,155,-305
13735,4629,0,2023-03-01T18:51:04.025779,1653545,1291,1897,-479,-1086,-679,-321,-57,155,-305
13736,4630,0,2023-03-01T18:51:04.030491,1653551,1294,1909,-472,-1101,-640,-325,-58,156,-320
13737,4631,0,2023-03-01T18:51:04.035674,1653556,1294,1909,-472,-1101,-640,-325,-58,156,-320
13738,4632,0,2023-03-01T18:51:04.041111,1653561,1294,1909,-472,-1101,-640,-325,-58,156,-320
13739,4633,0,2023-03-01T18:51:04.046398,1653566,1294,1909,-472,-1101,-640,-325,-58,156,-320
13740,4634,0,2023-03-01T18:51:04.051347,1653571,1296,1900,-459,-1102,-669,-303,-58,156,-320
13741,4635,0,2023-03-01T18:51:04.057546,1653577,1296,1900,-459,-1102,-669,-303,-58,156,-320
13742,4636,0,2023-03-01T18:51:04.062612,1653582,1296,1900,-459,-1102,-669,-303,-58,156,-320
13743,4637,0,2023-03-01T18:51:04.067484,1653587,1296,1900,-459,-1102,-669,-303,-58,156,-320
13744,4638,0,2023-03-01T18:51:04.072224,1653593,1291,1902,-480,-1164,-750,-308,-58,156,-320
13745,4639,0,2023-03-01T18:51:04.078143,1653598,1291,1902,-480,-1164,-750,-308,-58,156,-320
13746,4640,0,2023-03-01T18:51:04.082970,1653603,1291,1902,-480,-1164,-750,-308,-58,156,-320
13747,4641,0,2023-03-01T18:51:04.088218,1653608,1291,1902,-480,-1164,-750,-308,-58,156,-320
13748,4642,0,2023-03-01T18:51:04.094336,1653614,1291,1901,-471,-1116,-676,-306,-58,156,-320
13749,4643,0,2023-03-01T18:51:04.099813,1653620,1291,1901,-471,-1116,-676,-306,-58,156,-320
13750,4644,0,2023-03-01T18:51:04.104658,1653624,1291,1901,-471,-1116,-676,-306,-58,156,-320
13751,4645,0,2023-03-01T18:51:04.109381,1653629,1292,1907,-462,-1076,-616,-333,-58,156,-320
13752,4646,0,2023-03-01T18:51:04.115192,1653635,1292,1907,-462,-1076,-616,-333,-58,156,-320
13753,4647,0,2023-03-01T18:51:04.120897,1653641,1292,1907,-462,-1076,-616,-333,-58,156,-320
13754,4648,0,2023-03-01T18:51:04.126063,1653646,1292,1907,-462,-1076,-616,-333,-58,156,-320
13755,4649,0,2023-03-01T18:51:04.130603,1653651,1291,1902,-456,-1078,-628,-308,-58,156,-320
13756,4650,0,2023-03-01T18:51:04.139525,1653659,1291,1902,-456,-1078,-628,-308,-58,156,-320
13757,4651,0,2023-03-01T18:51:04.144369,1653664,1291,1902,-456,-1078,-628,-308,-58,156,-320
13758,4652,0,2023-03-01T18:51:04.149170,1653669,1290,1896,-468,-1068,-673,-301,-58,156,-320
13759,4653,0,2023-03-01T18:51:04.155246,1653676,1290,1896,-468,-1068,-673,-301,-58,156,-320
13760,4654,0,2023-03-01T18:51:04.160426,1653681,1290,1896,-468,-1068,-673,-301,-58,156,-320
13761,4655,0,2023-03-01T18:51:04.165474,1653686,1290,1896,-468,-1068,-673,-301,-58,156,-320
13762,4656,0,2023-03-01T18:51:04.170745,1653691,1297,1905,-471,-1105,-711,-303,-48,164,-310
13763,4657,0,2023-03-01T18:51:04.176606,1653696,1297,1905,-471,-1105,-711,-303,-48,164,-310
13764,4658,0,2023-03-01T18:51:04.182195,1653702,1297,1905,-471,-1105,-711,-303,-48,164,-310
13765,4659,0,2023-03-01T18:51:04.186947,1653707,1297,1905,-471,-1105,-711,-303,-48,164,-310
13766,4660,0,2023-03-01T18:51:04.192034,1653711,1295,1898,-482,-1148,-763,-296,-48,164,-310
13767,4661,0,2023-03-01T18:51:04.198853,1653718,1295,1898,-482,-1148,-763,-296,-48,164,-310
13768,4662,0,2023-03-01T18:51:04.205128,1653725,1295,1898,-482,-1148,-763,-296,-48,164,-310
13769,4663,0,2023-03-01T18:51:04.210136,1653730,1292,1894,-468,-1197,-788,-310,-48,164,-310
13770,4664,0,2023-03-01T18:51:04.216266,1653736,1292,1894,-468,-1197,-788,-310,-48,164,-310
13771,4665,0,2023-03-01T18:51:04.221846,1653742,1292,1894,-468,-1197,-788,-310,-48,164,-310
13772,4666,0,2023-03-01T18:51:04.226942,1653746,1292,1894,-468,-1197,-788,-310,-48,164,-310
13773,4667,0,2023-03-01T18:51:04.232344,1653752,1295,1902,-470,-1232,-819,-298,-48,164,-310
13774,4668,0,2023-03-01T18:51:04.238655,1653758,1295,1902,-470,-1232,-819,-298,-48,164,-310
13775,4669,0,2023-03-01T18:51:04.243605,1653764,1295,1902,-470,-1232,-819,-298,-48,164,-310
13776,4670,0,2023-03-01T18:51:04.248612,1653769,1294,1909,-462,-1249,-844,-303,-48,164,-310
13777,4671,0,2023-03-01T18:51:04.255036,1653775,1294,1909,-462,-1249,-844,-303,-48,164,-310
13778,4672,0,2023-03-01T18:51:04.259902,1653780,1294,1909,-462,-1249,-844,-303,-48,164,-310
13779,4673,0,2023-03-01T18:51:04.264982,1653785,1294,1909,-462,-1249,-844,-303,-48,164,-310
13780,4674,0,2023-03-01T18:51:04.269838,1653790,1287,1900,-463,-1224,-832,-288,-48,164,-310
13781,4675,0,2023-03-01T18:51:04.275836,1653795,1287,1900,-463,-1224,-832,-288,-48,164,-310
13782,4676,0,2023-03-01T18:51:04.281721,1653801,1287,1900,-463,-1224,-832,-288,-48,164,-310
13783,4677,0,2023-03-01T18:51:04.286587,1653807,1287,1900,-463,-1224,-832,-288,-48,164,-310
13784,4678,0,2023-03-01T18:51:04.291477,1653812,1291,1905,-463,-1185,-787,-301,-51,161,-315
13785,4679,0,2023-03-01T18:51:04.297453,1653818,1291,1905,-463,-1185,-787,-301,-51,161,-315
13786,4680,0,2023-03-01T18:51:04.302395,1653822,1291,1905,-463,-1185,-787,-301,-51,161,-315
13787,4681,0,2023-03-01T18:51:04.307221,1653827,1291,1905,-463,-1185,-787,-301,-51,161,-315
13788,4682,0,2023-03-01T18:51:04.313187,1653833,1289,1898,-467,-1143,-759,-285,-51,161,-315
13789,4683,0,2023-03-01T18:51:04.319615,1653839,1289,1898,-467,-1143,-759,-285,-51,161,-315
13790,4684,0,2023-03-01T18:51:04.324611,1653844,1289,1898,-467,-1143,-759,-285,-51,161,-315
13791,4685,0,2023-03-01T18:51:04.329803,1653850,1293,1898,-468,-1131,-742,-297,-51,161,-315
13792,4686,0,2023-03-01T18:51:04.335360,1653856,1293,1898,-468,-1131,-742,-297,-51,161,-315
13793,4687,0,2023-03-01T18:51:04.341100,1653861,1293,1898,-468,-1131,-742,-297,-51,161,-315
13794,4688,0,2023-03-01T18:51:04.346053,1653866,1293,1898,-468,-1131,-742,-297,-51,161,-315
13795,4689,0,2023-03-01T18:51:04.350952,1653871,1297,1903,-472,-1133,-745,-311,-51,161,-315
13796,4690,0,2023-03-01T18:51:04.356688,1653876,1297,1903,-472,-1133,-745,-311,-51,161,-315
13797,4691,0,2023-03-01T18:51:04.361348,1653881,1297,1903,-472,-1133,-745,-311,-51,161,-315
13798,4692,0,2023-03-01T18:51:04.366079,1653886,1297,1903,-472,-1133,-745,-311,-51,161,-315
13799,4693,0,2023-03-01T18:51:04.372191,1653892,1292,1897,-467,-1158,-747,-304,-51,161,-315
13800,4694,0,2023-03-01T18:51:04.378167,1653898,1292,1897,-467,-1158,-747,-304,-51,161,-315
13801,4695,0,2023-03-01T18:51:04.383366,1653903,1292,1897,-467,-1158,-747,-304,-51,161,-315
13802,4696,0,2023-03-01T18:51:04.388229,1653908,1292,1897,-467,-1158,-747,-304,-51,161,-315
13803,4697,0,2023-03-01T18:51:04.393272,1653913,1295,1903,-475,-1184,-785,-299,-51,161,-315
13804,4698,0,2023-03-01T18:51:04.399122,1653919,1295,1903,-475,-1184,-785,-299,-51,161,-315
13805,4699,0,2023-03-01T18:51:04.404104,1653924,1295,1903,-475,-1184,-785,-299,-51,161,-315
13806,4700,0,2023-03-01T18:51:04.408651,1653928,1295,1903,-475,-1184,-785,-299,-51,161,-315
13807,4701,0,2023-03-01T18:51:04.413460,1653934,1296,1901,-465,-1187,-787,-297,-51,161,-315
13808,4702,0,2023-03-01T18:51:04.419634,1653940,1296,1901,-465,-1187,-787,-297,-51,161,-315
13809,4703,0,2023-03-01T18:51:04.424713,1653945,1296,1901,-465,-1187,-787,-297,-51,161,-315
13810,4704,0,2023-03-01T18:51:04.429623,1653950,1294,1901,-456,-1180,-794,-287,-52,168,-304
13811,4705,0,2023-03-01T18:51:04.434013,1653954,1294,1901,-456,-1180,-794,-287,-52,168,-304
13812,4706,0,2023-03-01T18:51:04.439467,1653959,1294,1901,-456,-1180,-794,-287,-52,168,-304
13813,4707,0,2023-03-01T18:51:04.444480,1653964,1294,1901,-456,-1180,-794,-287,-52,168,-304
13814,4708,0,2023-03-01T18:51:04.449424,1653969,1293,1904,-459,-1170,-778,-298,-52,168,-304
13815,4709,0,2023-03-01T18:51:04.455307,1653976,1293,1904,-459,-1170,-778,-298,-52,168,-304
13816,4710,0,2023-03-01T18:51:04.460594,1653981,1293,1904,-459,-1170,-778,-298,-52,168,-304
13817,4711,0,2023-03-01T18:51:04.465407,1653986,1293,1904,-459,-1170,-778,-298,-52,168,-304
13818,4712,0,2023-03-01T18:51:04.470523,1653990,1290,1898,-469,-1160,-770,-296,-52,168,-304
13819,4713,0,2023-03-01T18:51:04.476405,1653996,1290,1898,-469,-1160,-770,-296,-52,168,-304
13820,4714,0,2023-03-01T18:51:04.481462,1654001,1290,1898,-469,-1160,-770,-296,-52,168,-304
13821,4715,0,2023-03-01T18:51:04.486144,1654006,1290,1898,-469,-1160,-770,-296,-52,168,-304
13822,4716,0,2023-03-01T18:51:04.491823,1654011,1293,1903,-469,-1149,-765,-296,-52,168,-304
13823,4717,0,2023-03-01T18:51:04.497545,1654018,1293,1903,-469,-1149,-765,-296,-52,168,-304
13824,4718,0,2023-03-01T18:51:04.502214,1654023,1293,1903,-469,-1149,-765,-296,-52,168,-304
13825,4719,0,2023-03-01T18:51:04.507187,1654027,1293,1903,-469,-1149,-765,-296,-52,168,-304
13826,4720,0,2023-03-01T18:51:04.512164,1654032,1289,1899,-472,-1159,-766,-308,-52,168,-304
13827,4721,0,2023-03-01T18:51:04.518339,1654038,1289,1899,-472,-1159,-766,-308,-52,168,-304
13828,4722,0,2023-03-01T18:51:04.523254,1654043,1289,1899,-472,-1159,-766,-308,-52,168,-304
13829,4723,0,2023-03-01T18:51:04.528568,1654048,1289,1899,-472,-1159,-766,-308,-52,168,-304
13830,4724,0,2023-03-01T18:51:04.533922,1654053,1294,1906,-468,-1158,-769,-305,-52,168,-304
13831,4725,0,2023-03-01T18:51:04.540070,1654061,1294,1906,-468,-1158,-769,-305,-52,168,-304
13832,4726,0,2023-03-01T18:51:04.545038,1654065,1294,1906,-468,-1158,-769,-305,-52,168,-304
13833,4727,0,2023-03-01T18:51:04.549897,1654070,1292,1900,-474,-1156,-796,-291,-57,151,-313
13834,4728,0,2023-03-01T18:51:04.556103,1654076,1292,1900,-474,-1156,-796,-291,-57,151,-313
13835,4729,0,2023-03-01T18:51:04.561347,1654081,1292,1900,-474,-1156,-796,-291,-57,151,-313
13836,4730,0,2023-03-01T18:51:04.566609,1654086,1292,1900,-474,-1156,-796,-291,-57,151,-313
13837,4731,0,2023-03-01T18:51:04.572159,1654092,1298,1906,-459,-1173,-779,-299,-57,151,-313
13838,4732,0,2023-03-01T18:51:04.577846,1654097,1298,1906,-459,-1173,-779,-299,-57,151,-313
13839,4733,0,2023-03-01T18:51:04.582608,1654103,1298,1906,-459,-1173,-779,-299,-57,151,-313
13840,4734,0,2023-03-01T18:51:04.587838,1654108,1298,1906,-459,-1173,-779,-299,-57,151,-313
13841,4735,0,2023-03-01T18:51:04.593609,1654114,1294,1897,-469,-1164,-789,-291,-57,151,-313
13842,4736,0,2023-03-01T18:51:04.599183,1654120,1294,1897,-469,-1164,-789,-291,-57,151,-313
13843,4737,0,2023-03-01T18:51:04.604149,1654124,1294,1897,-469,-1164,-789,-291,-57,151,-313
13844,4738,0,2023-03-01T18:51:04.609084,1654129,1297,1904,-464,-1175,-782,-302,-57,151,-313
13845,4739,0,2023-03-01T18:51:04.614450,1654134,1297,1904,-464,-1175,-782,-302,-57,151,-313
13846,4740,0,2023-03-01T18:51:04.620201,1654140,1297,1904,-464,-1175,-782,-302,-57,151,-313
13847,4741,0,2023-03-01T18:51:04.625072,1654146,1297,1904,-464,-1175,-782,-302,-57,151,-313
13848,4742,0,2023-03-01T18:51:04.630069,1654150,1296,1900,-478,-1168,-788,-291,-57,151,-313
13849,4743,0,2023-03-01T18:51:04.635666,1654156,1296,1900,-478,-1168,-788,-291,-57,151,-313
13850,4744,0,2023-03-01T18:51:04.641046,1654161,1296,1900,-478,-1168,-788,-291,-57,151,-313
13851,4745,0,2023-03-01T18:51:04.645809,1654166,1296,1900,-478,-1168,-788,-291,-57,151,-313
13852,4746,0,2023-03-01T18:51:04.650463,1654170,1297,1908,-466,-1157,-778,-302,-57,151,-313
13853,4747,0,2023-03-01T18:51:04.655705,1654176,1297,1908,-466,-1157,-778,-302,-57,151,-313
13854,4748,0,2023-03-01T18:51:04.661345,1654181,1297,1908,-466,-1157,-778,-302,-57,151,-313
13855,4749,0,2023-03-01T18:51:04.666085,1654187,1297,1908,-466,-1157,-778,-302,-57,151,-313
13856,4750,0,2023-03-01T18:51:04.671194,1654191,1292,1900,-479,-1148,-805,-293,-57,151,-313
13857,4751,0,2023-03-01T18:51:04.677047,1654197,1292,1900,-479,-1148,-805,-293,-57,151,-313
13858,4752,0,2023-03-01T18:51:04.681764,1654202,1292,1900,-479,-1148,-805,-293,-57,151,-313
13859,4753,0,2023-03-01T18:51:04.686805,1654207,1292,1900,-479,-1148,-805,-293,-57,151,-313
13860,4754,0,2023-03-01T18:51:04.691481,1654212,1295,1900,-458,-1167,-775,-300,-58,164,-312
13861,4755,0,2023-03-01T18:51:04.697555,1654217,1295,1900,-458,-1167,-775,-300,-58,164,-312
13862,4756,0,2023-03-01T18:51:04.702609,1654222,1295,1900,-458,-1167,-775,-300,-58,164,-312
13863,4757,0,2023-03-01T18:51:04.707584,1654227,1295,1900,-458,-1167,-775,-300,-58,164,-312
13864,4758,0,2023-03-01T18:51:04.712223,1654233,1294,1898,-467,-1175,-779,-290,-58,164,-312
13865,4759,0,2023-03-01T18:51:04.718299,1654238,1294,1898,-467,-1175,-779,-290,-58,164,-312
13866,4760,0,2023-03-01T18:51:04.723323,1654243,1294,1898,-467,-1175,-779,-290,-58,164,-312
13867,4761,0,2023-03-01T18:51:04.728467,1654248,1294,1898,-467,-1175,-779,-290,-58,164,-312
13868,4762,0,2023-03-01T18:51:04.733232,1654253,1296,1907,-465,-1178,-769,-299,-58,164,-312
13869,4763,0,2023-03-01T18:51:04.739715,1654259,1296,1907,-465,-1178,-769,-299,-58,164,-312
13870,4764,0,2023-03-01T18:51:04.744524,1654264,1296,1907,-465,-1178,-769,-299,-58,164,-312
13871,4765,0,2023-03-01T18:51:04.749112,1654269,1297,1896,-469,-1175,-779,-299,-58,164,-312
13872,4766,0,2023-03-01T18:51:04.756605,1654276,1297,1896,-469,-1175,-779,-299,-58,164,-312
13873,4767,0,2023-03-01T18:51:04.762211,1654282,1297,1896,-469,-1175,-779,-299,-58,164,-312
13874,4768,0,2023-03-01T18:51:04.767485,1654287,1297,1896,-469,-1175,-779,-299,-58,164,-312
13875,4769,0,2023-03-01T18:51:04.772255,1654292,1296,1901,-470,-1171,-779,-305,-58,164,-312
13876,4770,0,2023-03-01T18:51:04.778389,1654298,1296,1901,-470,-1171,-779,-305,-58,164,-312
13877,4771,0,2023-03-01T18:51:04.783374,1654303,1296,1901,-470,-1171,-779,-305,-58,164,-312
13878,4772,0,2023-03-01T18:51:04.788222,1654308,1296,1901,-470,-1171,-779,-305,-58,164,-312
13879,4773,0,2023-03-01T18:51:04.793018,1654312,1294,1903,-470,-1163,-773,-306,-58,164,-312
13880,4774,0,2023-03-01T18:51:04.799295,1654319,1294,1903,-470,-1163,-773,-306,-58,164,-312
13881,4775,0,2023-03-01T18:51:04.804183,1654324,1294,1903,-470,-1163,-773,-306,-58,164,-312
13882,4776,0,2023-03-01T18:51:04.809149,1654329,1294,1903,-470,-1163,-773,-306,-58,164,-312
13883,4777,0,2023-03-01T18:51:04.814051,1654334,1295,1901,-469,-1172,-775,-305,-63,153,-307
13884,4778,0,2023-03-01T18:51:04.820576,1654341,1295,1901,-469,-1172,-775,-305,-63,153,-307
13885,4779,0,2023-03-01T18:51:04.825873,1654345,1295,1901,-469,-1172,-775,-305,-63,153,-307
13886,4780,0,2023-03-01T18:51:04.830898,1654350,1295,1899,-467,-1174,-776,-292,-63,153,-307
13887,4781,0,2023-03-01T18:51:04.837048,1654356,1295,1899,-467,-1174,-776,-292,-63,153,-307
13888,4782,0,2023-03-01T18:51:04.842517,1654363,1295,1899,-467,-1174,-776,-292,-63,153,-307
13889,4783,0,2023-03-01T18:51:04.847412,1654368,1295,1899,-467,-1174,-776,-292,-63,153,-307
13890,4784,0,2023-03-01T18:51:04.852619,1654373,1294,1899,-467,-1175,-767,-301,-63,153,-307
13891,4785,0,2023-03-01T18:51:04.858587,1654379,1294,1899,-467,-1175,-767,-301,-63,153,-307
13892,4786,0,2023-03-01T18:51:04.863701,1654383,1294,1899,-467,-1175,-767,-301,-63,153,-307
13893,4787,0,2023-03-01T18:51:04.868388,1654388,1294,1899,-467,-1175,-767,-301,-63,153,-307
13894,4788,0,2023-03-01T18:51:04.873974,1654394,1297,1903,-469,-1182,-776,-297,-63,153,-307
13895,4789,0,2023-03-01T18:51:04.879335,1654400,1297,1903,-469,-1182,-776,-297,-63,153,-307
13896,4790,0,2023-03-01T18:51:04.884187,1654405,1297,1903,-469,-1182,-776,-297,-63,153,-307
13897,4791,0,2023-03-01T18:51:04.889105,1654409,1297,1903,-469,-1182,-776,-297,-63,153,-307
13898,4792,0,2023-03-01T18:51:04.893781,1654414,1297,1897,-470,-1174,-777,-295,-63,153,-307
13899,4793,0,2023-03-01T18:51:04.900319,1654420,1297,1897,-470,-1174,-777,-295,-63,153,-307
13900,4794,0,2023-03-01T18:51:04.905164,1654425,1297,1897,-470,-1174,-777,-295,-63,153,-307
13901,4795,0,2023-03-01T18:51:04.910181,1654430,1295,1903,-467,-1172,-773,-307,-63,153,-307
13902,4796,0,2023-03-01T18:51:04.916026,1654436,1295,1903,-467,-1172,-773,-307,-63,153,-307
13903,4797,0,2023-03-01T18:51:04.921957,1654441,1295,1903,-467,-1172,-773,-307,-63,153,-307
13904,4798,0,2023-03-01T18:51:04.926780,1654447,1295,1903,-467,-1172,-773,-307,-63,153,-307
13905,4799,0,2023-03-01T18:51:04.932084,1654452,1294,1898,-470,-1185,-790,-300,-54,162,-302
13906,4800,0,2023-03-01T18:51:04.938294,1654458,1294,1898,-470,-1185,-790,-300,-54,162,-302
13907,4801,0,2023-03-01T18:51:04.943133,1654463,1294,1898,-470,-1185,-790,-300,-54,162,-302
13908,4802,0,2023-03-01T18:51:04.948062,1654468,1294,1898,-470,-1185,-790,-300,-54,162,-302
13909,4803,0,2023-03-01T18:51:04.953543,1654473,1291,1899,-468,-1183,-779,-297,-54,162,-302
13910,4804,0,2023-03-01T18:51:04.959429,1654479,1291,1899,-468,-1183,-779,-297,-54,162,-302
13911,4805,0,2023-03-01T18:51:04.964396,1654484,1291,1899,-468,-1183,-779,-297,-54,162,-302
13912,4806,0,2023-03-01T18:51:04.969221,1654490,1291,1899,-468,-1183,-779,-297,-54,162,-302
13913,4807,0,2023-03-01T18:51:04.974989,1654495,1298,1899,-468,-1185,-779,-295,-54,162,-302
13914,4808,0,2023-03-01T18:51:04.981039,1654501,1298,1899,-468,-1185,-779,-295,-54,162,-302
13915,4809,0,2023-03-01T18:51:04.985573,1654506,1298,1899,-468,-1185,-779,-295,-54,162,-302
13916,4810,0,2023-03-01T18:51:04.990264,1654510,1294,1906,-466,-1187,-783,-301,-54,162,-302
13917,4811,0,2023-03-01T18:51:04.996516,1654516,1294,1906,-466,-1187,-783,-301,-54,162,-302
13918,4812,0,2023-03-01T18:51:05.002285,1654522,1294,1906,-466,-1187,-783,-301,-54,162,-302
13919,4813,0,2023-03-01T18:51:05.007097,1654528,1294,1906,-466,-1187,-783,-301,-54,162,-302
13920,4814,0,2023-03-01T18:51:05.011896,1654532,1293,1901,-466,-1174,-796,-299,-54,162,-302
13921,4815,0,2023-03-01T18:51:05.017811,1654538,1293,1901,-466,-1174,-796,-299,-54,162,-302
13922,4816,0,2023-03-01T18:51:05.022488,1654543,1293,1901,-466,-1174,-796,-299,-54,162,-302
13923,4817,0,2023-03-01T18:51:05.027229,1654547,1293,1901,-466,-1174,-796,-299,-54,162,-302
13924,4818,0,2023-03-01T18:51:05.032266,1654552,1300,1902,-474,-1172,-791,-302,-54,162,-302
13925,4819,0,2023-03-01T18:51:05.038313,1654558,1300,1902,-474,-1172,-791,-302,-54,162,-302
13926,4820,0,2023-03-01T18:51:05.043101,1654563,1300,1902,-474,-1172,-791,-302,-54,162,-302
13927,4821,0,2023-03-01T18:51:05.048086,1654567,1300,1902,-474,-1172,-791,-302,-54,162,-302
13928,4822,0,2023-03-01T18:51:05.052922,1654573,1295,1901,-464,-1170,-786,-299,-54,162,-302
13929,4823,0,2023-03-01T18:51:05.058902,1654579,1295,1901,-464,-1170,-786,-299,-54,162,-302
13930,4824,0,2023-03-01T18:51:05.063733,1654584,1295,1901,-464,-1170,-786,-299,-54,162,-302
13931,4825,0,2023-03-01T18:51:05.068341,1654589,1295,1901,-464,-1170,-786,-299,-54,162,-302
13932,4826,0,2023-03-01T18:51:05.073325,1654593,1295,1901,-464,-1171,-778,-293,-55,159,-315
13933,4827,0,2023-03-01T18:51:05.079088,1654599,1295,1901,-464,-1171,-778,-293,-55,159,-315
13934,4828,0,2023-03-01T18:51:05.083976,1654604,1295,1901,-464,-1171,-778,-293,-55,159,-315
13935,4829,0,2023-03-01T18:51:05.088866,1654608,1295,1901,-464,-1171,-778,-293,-55,159,-315
13936,4830,0,2023-03-01T18:51:05.094537,1654615,1294,1899,-468,-1177,-788,-297,-55,159,-315
13937,4831,0,2023-03-01T18:51:05.100428,1654621,1294,1899,-468,-1177,-788,-297,-55,159,-315
13938,4832,0,2023-03-01T18:51:05.105434,1654626,1294,1899,-468,-1177,-788,-297,-55,159,-315
13939,4833,0,2023-03-01T18:51:05.110227,1654630,1299,1898,-465,-1184,-798,-290,-55,159,-315
13940,4834,0,2023-03-01T18:51:05.117327,1654637,1299,1898,-465,-1184,-798,-290,-55,159,-315
13941,4835,0,2023-03-01T18:51:05.123135,1654643,1299,1898,-465,-1184,-798,-290,-55,159,-315
13942,4836,0,2023-03-01T18:51:05.127788,1654648,1299,1898,-465,-1184,-798,-290,-55,159,-315
13943,4837,0,2023-03-01T18:51:05.132546,1654652,1296,1900,-466,-1189,-792,-295,-55,159,-315
13944,4838,0,2023-03-01T18:51:05.139368,1654660,1296,1900,-466,-1189,-792,-295,-55,159,-315
13945,4839,0,2023-03-01T18:51:05.144500,1654665,1296,1900,-466,-1189,-792,-295,-55,159,-315
13946,4840,0,2023-03-01T18:51:05.148945,1654669,1296,1900,-466,-1189,-792,-295,-55,159,-315
13947,4841,0,2023-03-01T18:51:05.153473,1654674,1295,1901,-462,-1190,-786,-297,-55,159,-315
13948,4842,0,2023-03-01T18:51:05.159077,1654679,1295,1901,-462,-1190,-786,-297,-55,159,-315
13949,4843,0,2023-03-01T18:51:05.164048,1654684,1295,1901,-462,-1190,-786,-297,-55,159,-315
13950,4844,0,2023-03-01T18:51:05.169084,1654689,1295,1901,-462,-1190,-786,-297,-55,159,-315
13951,4845,0,2023-03-01T18:51:05.174517,1654694,1296,1899,-474,-1180,-780,-304,-55,159,-315
13952,4846,0,2023-03-01T18:51:05.180318,1654701,1296,1899,-474,-1180,-780,-304,-55,159,-315
13953,4847,0,2023-03-01T18:51:05.185464,1654706,1296,1899,-474,-1180,-780,-304,-55,159,-315
13954,4848,0,2023-03-01T18:51:05.190197,1654710,1299,1900,-471,-1180,-784,-305,-48,160,-302
13955,4849,0,2023-03-01T18:51:05.198008,1654718,1299,1900,-471,-1180,-784,-305,-48,160,-302
13956,4850,0,2023-03-01T18:51:05.203985,1654724,1299,1900,-471,-1180,-784,-305,-48,160,-302
13957,4851,0,2023-03-01T18:51:05.208732,1654729,1299,1900,-471,-1180,-784,-305,-48,160,-302
13958,4852,0,2023-03-01T18:51:05.213965,1654734,1296,1901,-472,-1181,-780,-298,-48,160,-302
13959,4853,0,2023-03-01T18:51:05.220597,1654740,1296,1901,-472,-1181,-780,-298,-48,160,-302
13960,4854,0,2023-03-01T18:51:05.225882,1654746,1296,1901,-472,-1181,-780,-298,-48,160,-302
13961,4855,0,2023-03-01T18:51:05.231013,1654751,1294,1900,-470,-1174,-776,-300,-48,160,-302
13962,4856,0,2023-03-01T18:51:05.237161,1654757,1294,1900,-470,-1174,-776,-300,-48,160,-302
13963,4857,0,2023-03-01T18:51:05.242492,1654762,1294,1900,-470,-1174,-776,-300,-48,160,-302
13964,4858,0,2023-03-01T18:51:05.247388,1654767,1294,1900,-470,-1174,-776,-300,-48,160,-302
13965,4859,0,2023-03-01T18:51:05.252381,1654772,1299,1900,-472,-1182,-775,-301,-48,160,-302
13966,4860,0,2023-03-01T18:51:05.259168,1654779,1299,1900,-472,-1182,-775,-301,-48,160,-302
13967,4861,0,2023-03-01T18:51:05.264234,1654785,1299,1900,-472,-1182,-775,-301,-48,160,-302
13968,4862,0,2023-03-01T18:51:05.269220,1654789,1299,1900,-472,-1182,-775,-301,-48,160,-302
13969,4863,0,2023-03-01T18:51:05.274220,1654794,1298,1895,-466,-1190,-777,-304,-48,160,-302
13970,4864,0,2023-03-01T18:51:05.280620,1654801,1298,1895,-466,-1190,-777,-304,-48,160,-302
13971,4865,0,2023-03-01T18:51:05.285618,1654806,1298,1895,-466,-1190,-777,-304,-48,160,-302
13972,4866,0,2023-03-01T18:51:05.290444,1654810,1297,1902,-468,-1186,-786,-300,-48,160,-302
13973,4867,0,2023-03-01T18:51:05.296556,1654816,1297,1902,-468,-1186,-786,-300,-48,160,-302
13974,4868,0,2023-03-01T18:51:05.302977,1654822,1297,1902,-468,-1186,-786,-300,-48,160,-302
13975,4869,0,2023-03-01T18:51:05.308426,1654829,1297,1902,-468,-1186,-786,-300,-48,160,-302
13976,4870,0,2023-03-01T18:51:05.313791,1654834,1297,1895,-467,-1172,-782,-301,-48,160,-302
13977,4871,0,2023-03-01T18:51:05.319549,1654840,1297,1895,-467,-1172,-782,-301,-48,160,-302
13978,4872,0,2023-03-01T18:51:05.324621,1654845,1297,1895,-467,-1172,-782,-301,-48,160,-302
13979,4873,0,2023-03-01T18:51:05.329483,1654850,1297,1895,-467,-1172,-782,-301,-48,160,-302
13980,4874,0,2023-03-01T18:51:05.334927,1654855,1296,1893,-467,-1172,-787,-299,-59,155,-307
13981,4875,0,2023-03-01T18:51:05.341189,1654861,1296,1893,-467,-1172,-787,-299,-59,155,-307
13982,4876,0,2023-03-01T18:51:05.346047,1654866,1296,1893,-467,-1172,-787,-299,-59,155,-307
13983,4877,0,2023-03-01T18:51:05.350860,1654871,1298,1902,-472,-1184,-781,-291,-59,155,-307
13984,4878,0,2023-03-01T18:51:05.356558,1654877,1298,1902,-472,-1184,-781,-291,-59,155,-307
13985,4879,0,2023-03-01T18:51:05.362139,1654882,1298,1902,-472,-1184,-781,-291,-59,155,-307
13986,4880,0,2023-03-01T18:51:05.367144,1654887,1298,1902,-472,-1184,-781,-291,-59,155,-307
13987,4881,0,2023-03-01T18:51:05.371942,1654892,1297,1897,-461,-1175,-777,-301,-59,155,-307
13988,4882,0,2023-03-01T18:51:05.377784,1654898,1297,1897,-461,-1175,-777,-301,-59,155,-307
13989,4883,0,2023-03-01T18:51:05.382584,1654902,1297,1897,-461,-1175,-777,-301,-59,155,-307
13990,4884,0,2023-03-01T18:51:05.387678,1654907,1297,1897,-461,-1175,-777,-301,-59,155,-307
13991,4885,0,2023-03-01T18:51:05.392659,1654913,1295,1897,-464,-1180,-785,-298,-59,155,-307
13992,4886,0,2023-03-01T18:51:05.398637,1654919,1295,1897,-464,-1180,-785,-298,-59,155,-307
13993,4887,0,2023-03-01T18:51:05.403542,1654924,1295,1897,-464,-1180,-785,-298,-59,155,-307
13994,4888,0,2023-03-01T18:51:05.409175,1654929,1295,1897,-464,-1180,-785,-298,-59,155,-307
13995,4889,0,2023-03-01T18:51:05.414922,1654935,1296,1897,-465,-1181,-789,-292,-59,155,-307
13996,4890,0,2023-03-01T18:51:05.420985,1654941,1296,1897,-465,-1181,-789,-292,-59,155,-307
13997,4891,0,2023-03-01T18:51:05.425780,1654946,1296,1897,-465,-1181,-789,-292,-59,155,-307
13998,4892,0,2023-03-01T18:51:05.430644,1654950,1296,1900,-470,-1177,-780,-303,-59,155,-307
13999,4893,0,2023-03-01T18:51:05.435948,1654956,1296,1900,-470,-1177,-780,-303,-59,155,-307
