,Unnamed: 0,imu,server_time,arduino_time,ax,ay,az,gx,gy,gz,mx,my,mz
3606,6926,0,2023-03-10T14:06:55.793488,6293968,875,514,1538,-1010,-604,-270,121,181,-77
3607,6927,0,2023-03-10T14:06:55.799285,6293975,875,514,1538,-1010,-604,-270,121,181,-77
3608,6928,0,2023-03-10T14:06:55.803643,6293979,875,514,1538,-1010,-604,-270,121,181,-77
3609,6929,0,2023-03-10T14:06:55.808168,6293984,875,514,1538,-1010,-604,-270,121,181,-77
3610,6930,0,2023-03-10T14:06:55.812498,6293988,873,525,1514,-1035,-654,-252,121,181,-77
3611,6931,0,2023-03-10T14:06:55.817432,6293993,873,525,1514,-1035,-654,-252,121,181,-77
3612,6932,0,2023-03-10T14:06:55.822675,6293998,873,525,1514,-1035,-654,-252,121,181,-77
3613,6933,0,2023-03-10T14:06:55.827134,6294002,873,525,1514,-1035,-654,-252,121,181,-77
3614,6934,0,2023-03-10T14:06:55.831505,6294007,853,518,1526,-1015,-616,-206,121,181,-77
3615,6935,0,2023-03-10T14:06:55.836082,6294011,853,518,1526,-1015,-616,-206,121,181,-77
3616,6936,0,2023-03-10T14:06:55.841432,6294017,853,518,1526,-1015,-616,-206,121,181,-77
3617,6937,0,2023-03-10T14:06:55.846022,6294022,853,518,1526,-1015,-616,-206,121,181,-77
3618,6938,0,2023-03-10T14:06:55.850597,6294026,861,520,1531,-1038,-617,-280,120,182,-77
3619,6939,0,2023-03-10T14:06:55.855819,6294031,861,520,1531,-1038,-617,-280,120,182,-66
3620,6940,0,2023-03-10T14:06:55.860132,6294036,861,520,1531,-1038,-617,-280,120,182,-66
3621,6941,0,2023-03-10T14:06:55.864904,6294040,861,520,1531,-1038,-617,-280,120,182,-66
3622,6942,0,2023-03-10T14:06:55.869448,6294045,861,520,1531,-1038,-617,-280,120,182,-66
3623,6943,0,2023-03-10T14:06:55.874153,6294049,875,522,1523,-1048,-669,-289,120,182,-66
3624,6944,0,2023-03-10T14:06:55.879739,6294055,875,522,1523,-1048,-669,-289,120,182,-66
3625,6945,0,2023-03-10T14:06:55.884145,6294060,875,522,1523,-1048,-669,-289,120,182,-66
3626,6946,0,2023-03-10T14:06:55.888535,6294064,875,522,1523,-1048,-669,-289,120,182,-66
3627,6947,0,2023-03-10T14:06:55.893016,6294069,867,514,1522,-1038,-638,-242,120,182,-66
3628,6948,0,2023-03-10T14:06:55.898782,6294074,867,514,1522,-1038,-638,-242,120,182,-66
3629,6949,0,2023-03-10T14:06:55.903530,6294079,867,514,1522,-1038,-638,-242,120,182,-66
3630,6950,0,2023-03-10T14:06:55.908056,6294083,867,514,1522,-1038,-638,-242,120,182,-66
3631,6951,0,2023-03-10T14:06:55.912402,6294088,875,520,1514,-1027,-642,-266,120,182,-66
3632,6952,0,2023-03-10T14:06:55.917330,6294092,875,520,1514,-1027,-642,-266,120,182,-66
3633,6953,0,2023-03-10T14:06:55.922873,6294098,875,520,1514,-1027,-642,-266,120,182,-66
3634,6954,0,2023-03-10T14:06:55.927640,6294103,875,520,1514,-1027,-642,-266,120,182,-66
3635,6955,0,2023-03-10T14:06:55.932172,6294108,860,515,1512,-1026,-631,-243,120,182,-66
3636,6956,0,2023-03-10T14:06:55.937134,6294113,860,515,1512,-1026,-631,-243,120,182,-66
3637,6957,0,2023-03-10T14:06:55.942429,6294118,860,515,1512,-1026,-631,-243,120,182,-66
3638,6958,0,2023-03-10T14:06:55.946840,6294122,860,515,1512,-1026,-631,-243,120,182,-66
3639,6959,0,2023-03-10T14:06:55.951520,6294127,874,519,1526,-1039,-628,-285,120,182,-66
3640,6960,0,2023-03-10T14:06:55.956413,6294132,874,519,1526,-1039,-628,-285,120,182,-66
3641,6961,0,2023-03-10T14:06:55.960894,6294136,874,519,1526,-1039,-628,-285,120,182,-66
3642,6962,0,2023-03-10T14:06:55.965346,6294140,874,519,1526,-1039,-628,-285,120,182,-66
3643,6963,0,2023-03-10T14:06:55.969760,6294146,874,519,1526,-1039,-628,-285,120,182,-66
3644,6964,0,2023-03-10T14:06:55.974242,6294150,862,520,1520,-1042,-644,-242,120,182,-66
3645,6965,0,2023-03-10T14:06:55.979807,6294155,862,520,1520,-1042,-644,-242,120,182,-66
3646,6966,0,2023-03-10T14:06:55.984279,6294160,862,520,1520,-1042,-644,-242,120,182,-66
3647,6967,0,2023-03-10T14:06:55.988601,6294164,862,520,1520,-1042,-644,-242,120,182,-66
3648,6968,0,2023-03-10T14:06:55.993234,6294168,869,517,1529,-1021,-627,-223,125,183,-71
3649,6969,0,2023-03-10T14:06:55.998809,6294174,869,517,1529,-1021,-627,-223,125,183,-71
3650,6970,0,2023-03-10T14:06:56.003211,6294178,869,517,1529,-1021,-627,-223,125,183,-71
3651,6971,0,2023-03-10T14:06:56.007617,6294183,869,517,1529,-1021,-627,-223,125,183,-71
3652,6972,0,2023-03-10T14:06:56.012095,6294188,879,522,1514,-1042,-656,-284,125,183,-71
3653,6973,0,2023-03-10T14:06:56.017151,6294193,879,522,1514,-1042,-656,-284,125,183,-71
3654,6974,0,2023-03-10T14:06:56.022721,6294198,879,522,1514,-1042,-656,-284,125,183,-71
3655,6975,0,2023-03-10T14:06:56.027266,6294203,879,522,1514,-1042,-656,-284,125,183,-71
3656,6976,0,2023-03-10T14:06:56.031800,6294207,866,513,1505,-1043,-649,-243,125,183,-71
3657,6977,0,2023-03-10T14:06:56.036806,6294212,866,513,1505,-1043,-649,-243,125,183,-71
3658,6978,0,2023-03-10T14:06:56.041919,6294217,866,513,1505,-1043,-649,-243,125,183,-71
3659,6979,0,2023-03-10T14:06:56.046658,6294222,866,513,1505,-1043,-649,-243,125,183,-71
3660,6980,0,2023-03-10T14:06:56.051455,6294226,873,518,1516,-1018,-632,-259,125,183,-71
3661,6981,0,2023-03-10T14:06:56.056694,6294232,873,518,1516,-1018,-632,-259,125,183,-71
3662,6982,0,2023-03-10T14:06:56.061880,6294238,873,518,1516,-1018,-632,-259,125,183,-71
3663,6983,0,2023-03-10T14:06:56.066281,6294242,873,518,1516,-1018,-632,-259,125,183,-71
3664,6984,0,2023-03-10T14:06:56.070679,6294246,869,522,1530,-1034,-620,-235,125,183,-71
3665,6985,0,2023-03-10T14:06:56.075768,6294251,869,522,1530,-1034,-620,-235,125,183,-71
3666,6986,0,2023-03-10T14:06:56.081148,6294256,869,522,1530,-1034,-620,-235,125,183,-71
3667,6987,0,2023-03-10T14:06:56.085576,6294261,869,522,1530,-1034,-620,-235,125,183,-71
3668,6988,0,2023-03-10T14:06:56.090471,6294265,869,522,1530,-1034,-620,-235,125,183,-71
3669,6989,0,2023-03-10T14:06:56.095037,6294270,872,522,1528,-1024,-678,-247,125,183,-71
3670,6990,0,2023-03-10T14:06:56.099412,6294275,872,522,1528,-1024,-678,-247,125,183,-71
3671,6991,0,2023-03-10T14:06:56.103839,6294280,872,522,1528,-1024,-678,-247,125,183,-71
3672,6992,0,2023-03-10T14:06:56.108324,6294284,872,522,1528,-1024,-678,-247,125,183,-71
3673,6993,0,2023-03-10T14:06:56.112714,6294288,865,520,1516,-1065,-634,-285,127,181,-73
3674,6994,0,2023-03-10T14:06:56.117203,6294293,865,520,1516,-1065,-634,-285,127,181,-73
3675,6995,0,2023-03-10T14:06:56.122201,6294297,865,520,1516,-1065,-634,-285,127,181,-73
3676,6996,0,2023-03-10T14:06:56.126850,6294302,865,520,1516,-1065,-634,-285,127,181,-73
3677,6997,0,2023-03-10T14:06:56.131526,6294306,869,512,1524,-1024,-623,-239,127,181,-73
3678,6998,0,2023-03-10T14:06:56.136611,6294312,869,512,1524,-1024,-623,-239,127,181,-73
3679,6999,0,2023-03-10T14:06:56.141229,6294317,869,512,1524,-1024,-623,-239,127,181,-73
3680,7000,0,2023-03-10T14:06:56.146425,6294322,869,512,1524,-1024,-623,-239,127,181,-73
3681,7001,0,2023-03-10T14:06:56.150932,6294326,865,512,1518,-1013,-679,-244,127,181,-73
3682,7002,0,2023-03-10T14:06:56.155836,6294331,865,512,1518,-1013,-679,-244,127,181,-73
3683,7003,0,2023-03-10T14:06:56.160828,6294336,865,512,1518,-1013,-679,-244,127,181,-73
3684,7004,0,2023-03-10T14:06:56.165436,6294341,865,512,1518,-1013,-679,-244,127,181,-73
3685,7005,0,2023-03-10T14:06:56.169981,6294345,865,512,1518,-1013,-679,-244,127,181,-73
3686,7006,0,2023-03-10T14:06:56.174495,6294349,883,526,1521,-1037,-606,-289,127,181,-73
3687,7007,0,2023-03-10T14:06:56.179833,6294355,883,526,1521,-1037,-606,-289,127,181,-73
3688,7008,0,2023-03-10T14:06:56.184340,6294360,883,526,1521,-1037,-606,-289,127,181,-73
3689,7009,0,2023-03-10T14:06:56.188990,6294365,883,526,1521,-1037,-606,-289,127,181,-73
3690,7010,0,2023-03-10T14:06:56.193296,6294369,876,526,1523,-1015,-658,-235,127,181,-73
3691,7011,0,2023-03-10T14:06:56.198054,6294373,876,526,1523,-1015,-658,-235,127,181,-73
3692,7012,0,2023-03-10T14:06:56.202551,6294378,876,526,1523,-1015,-658,-235,127,181,-73
3693,7013,0,2023-03-10T14:06:56.207068,6294382,876,526,1523,-1015,-658,-235,127,181,-73
3694,7014,0,2023-03-10T14:06:56.211701,6294387,854,513,1512,-1037,-625,-216,127,181,-73
3695,7015,0,2023-03-10T14:06:56.216548,6294392,854,513,1512,-1037,-625,-216,127,181,-73
3696,7016,0,2023-03-10T14:06:56.220922,6294396,854,513,1512,-1037,-625,-216,127,181,-73
3697,7017,0,2023-03-10T14:06:56.225590,6294401,854,513,1512,-1037,-625,-216,127,181,-73
3698,7018,0,2023-03-10T14:06:56.230504,6294406,854,513,1512,-1037,-625,-216,127,181,-73
3699,7019,0,2023-03-10T14:06:56.234767,6294410,875,521,1522,-1047,-627,-287,119,175,-67
3700,7020,0,2023-03-10T14:06:56.240288,6294416,875,521,1522,-1047,-627,-287,119,175,-67
3701,7021,0,2023-03-10T14:06:56.245439,6294421,875,521,1522,-1047,-627,-287,119,175,-67
3702,7022,0,2023-03-10T14:06:56.249727,6294425,875,521,1522,-1047,-627,-287,119,175,-67
3703,7023,0,2023-03-10T14:06:56.254277,6294429,871,515,1514,-1041,-671,-260,119,175,-67
3704,7024,0,2023-03-10T14:06:56.259177,6294434,871,515,1514,-1041,-671,-260,119,175,-67
3705,7025,0,2023-03-10T14:06:56.263783,6294439,871,515,1514,-1041,-671,-260,119,175,-67
3706,7026,0,2023-03-10T14:06:56.268413,6294444,871,515,1514,-1041,-671,-260,119,175,-67
3707,7027,0,2023-03-10T14:06:56.272782,6294449,875,515,1525,-1044,-604,-248,119,175,-67
3708,7028,0,2023-03-10T14:06:56.277875,6294453,875,515,1525,-1044,-604,-248,119,175,-67
3709,7029,0,2023-03-10T14:06:56.282688,6294458,875,515,1525,-1044,-604,-248,119,175,-67
3710,7030,0,2023-03-10T14:06:56.287465,6294463,875,515,1525,-1044,-604,-248,119,175,-67
3711,7031,0,2023-03-10T14:06:56.291952,6294467,886,524,1518,-1028,-642,-269,119,175,-67
3712,7032,0,2023-03-10T14:06:56.296828,6294472,886,524,1518,-1028,-642,-269,119,175,-67
3713,7033,0,2023-03-10T14:06:56.301485,6294477,886,524,1518,-1028,-642,-269,119,175,-67
3714,7034,0,2023-03-10T14:06:56.306044,6294481,886,524,1518,-1028,-642,-269,119,175,-67
3715,7035,0,2023-03-10T14:06:56.310624,6294486,886,524,1518,-1028,-642,-269,119,175,-67
3716,7036,0,2023-03-10T14:06:56.315057,6294491,863,512,1524,-1038,-607,-231,119,175,-67
3717,7037,0,2023-03-10T14:06:56.320100,6294496,863,512,1524,-1038,-607,-231,119,175,-67
3718,7038,0,2023-03-10T14:06:56.324569,6294500,863,512,1524,-1038,-607,-231,119,175,-67
3719,7039,0,2023-03-10T14:06:56.328985,6294504,863,512,1524,-1038,-607,-231,119,175,-67
3720,7040,0,2023-03-10T14:06:56.333412,6294509,879,524,1519,-1019,-647,-269,119,175,-67
3721,7041,0,2023-03-10T14:06:56.338997,6294514,879,524,1519,-1019,-647,-269,119,175,-67
3722,7042,0,2023-03-10T14:06:56.343604,6294518,879,524,1519,-1019,-647,-269,119,175,-67
3723,7043,0,2023-03-10T14:06:56.348162,6294523,879,524,1519,-1019,-647,-269,119,175,-67
3724,7044,0,2023-03-10T14:06:56.352568,6294528,873,515,1511,-1044,-644,-242,119,175,-67
3725,7045,0,2023-03-10T14:06:56.357705,6294533,873,515,1511,-1044,-644,-242,119,175,-67
3726,7046,0,2023-03-10T14:06:56.363039,6294539,873,515,1511,-1044,-644,-242,119,175,-67
3727,7047,0,2023-03-10T14:06:56.367538,6294543,873,515,1511,-1044,-644,-242,119,175,-67
3728,7048,0,2023-03-10T14:06:56.372068,6294547,871,514,1517,-1031,-635,-252,127,187,-67
3729,7049,0,2023-03-10T14:06:56.377709,6294553,871,514,1517,-1031,-635,-252,127,187,-67
3730,7050,0,2023-03-10T14:06:56.382798,6294558,871,514,1517,-1031,-635,-252,127,187,-67
3731,7051,0,2023-03-10T14:06:56.387298,6294562,871,514,1517,-1031,-635,-252,127,187,-67
3732,7052,0,2023-03-10T14:06:56.391699,6294567,880,516,1534,-1026,-643,-228,127,187,-67
3733,7053,0,2023-03-10T14:06:56.396480,6294572,880,516,1534,-1026,-643,-228,127,187,-67
3734,7054,0,2023-03-10T14:06:56.401369,6294577,880,516,1534,-1026,-643,-228,127,187,-67
3735,7055,0,2023-03-10T14:06:56.405963,6294582,880,516,1534,-1026,-643,-228,127,187,-67
3736,7056,0,2023-03-10T14:06:56.410475,6294586,880,516,1534,-1026,-643,-228,127,187,-67
3737,7057,0,2023-03-10T14:06:56.414783,6294590,881,523,1520,-1024,-658,-264,127,187,-67
3738,7058,0,2023-03-10T14:06:56.420328,6294595,881,523,1520,-1024,-658,-264,127,187,-67
3739,7059,0,2023-03-10T14:06:56.424979,6294600,881,523,1520,-1024,-658,-264,127,187,-67
3740,7060,0,2023-03-10T14:06:56.429240,6294604,881,523,1520,-1024,-658,-264,127,187,-67
3741,7061,0,2023-03-10T14:06:56.433764,6294609,869,521,1513,-1049,-618,-248,127,187,-67
3742,7062,0,2023-03-10T14:06:56.438944,6294615,869,521,1513,-1049,-618,-248,127,187,-67
3743,7063,0,2023-03-10T14:06:56.443457,6294619,869,521,1513,-1049,-618,-248,127,187,-67
3744,7064,0,2023-03-10T14:06:56.447917,6294624,869,521,1513,-1049,-618,-248,127,187,-67
3745,7065,0,2023-03-10T14:06:56.452294,6294628,882,522,1527,-1018,-645,-257,127,187,-67
3746,7066,0,2023-03-10T14:06:56.457446,6294633,882,522,1527,-1018,-645,-257,127,187,-67
3747,7067,0,2023-03-10T14:06:56.462421,6294638,882,522,1527,-1018,-645,-257,127,187,-67
3748,7068,0,2023-03-10T14:06:56.466968,6294642,882,522,1527,-1018,-645,-257,127,187,-67
3749,7069,0,2023-03-10T14:06:56.471611,6294647,878,522,1506,-1051,-635,-257,127,187,-67
3750,7070,0,2023-03-10T14:06:56.476298,6294651,878,522,1506,-1051,-635,-257,127,187,-67
3751,7071,0,2023-03-10T14:06:56.480678,6294657,878,522,1506,-1051,-635,-257,127,187,-67
3752,7072,0,2023-03-10T14:06:56.485181,6294661,878,522,1506,-1051,-635,-257,127,187,-67
3753,7073,0,2023-03-10T14:06:56.489589,6294665,878,522,1506,-1051,-635,-257,127,187,-67
3754,7074,0,2023-03-10T14:06:56.493968,6294670,870,515,1522,-1020,-619,-200,117,181,-61
3755,7075,0,2023-03-10T14:06:56.499438,6294675,870,515,1522,-1020,-619,-200,117,181,-61
3756,7076,0,2023-03-10T14:06:56.504157,6294679,870,515,1522,-1020,-619,-200,117,181,-61
3757,7077,0,2023-03-10T14:06:56.508979,6294684,870,515,1522,-1020,-619,-200,117,181,-61
3758,7078,0,2023-03-10T14:06:56.513895,6294689,884,520,1531,-1018,-666,-254,117,181,-61
3759,7079,0,2023-03-10T14:06:56.519473,6294694,884,520,1531,-1018,-666,-254,117,181,-61
3760,7080,0,2023-03-10T14:06:56.524370,6294700,884,520,1531,-1018,-666,-254,117,181,-61
3761,7081,0,2023-03-10T14:06:56.528950,6294705,884,520,1531,-1018,-666,-254,117,181,-61
3762,7082,0,2023-03-10T14:06:56.533642,6294709,874,513,1508,-1063,-625,-262,117,181,-61
3763,7083,0,2023-03-10T14:06:56.539276,6294715,874,513,1508,-1063,-625,-262,117,181,-61
3764,7084,0,2023-03-10T14:06:56.543584,6294719,874,513,1508,-1063,-625,-262,117,181,-61
3765,7085,0,2023-03-10T14:06:56.548170,6294723,874,513,1508,-1063,-625,-262,117,181,-61
3766,7086,0,2023-03-10T14:06:56.552534,6294728,892,523,1522,-1016,-651,-265,117,181,-61
3767,7087,0,2023-03-10T14:06:56.557467,6294733,892,523,1522,-1016,-651,-265,117,181,-61
3768,7088,0,2023-03-10T14:06:56.563128,6294738,892,523,1522,-1016,-651,-265,117,181,-61
3769,7089,0,2023-03-10T14:06:56.567560,6294743,892,523,1522,-1016,-651,-265,117,181,-61
3770,7090,0,2023-03-10T14:06:56.571949,6294748,875,515,1518,-1041,-630,-263,117,181,-61
3771,7091,0,2023-03-10T14:06:56.576887,6294752,875,515,1518,-1041,-630,-263,117,181,-61
3772,7092,0,2023-03-10T14:06:56.582564,6294758,875,515,1518,-1041,-630,-263,117,181,-61
3773,7093,0,2023-03-10T14:06:56.587274,6294763,875,515,1518,-1041,-630,-263,117,181,-61
3774,7094,0,2023-03-10T14:06:56.591737,6294767,875,515,1518,-1041,-630,-263,117,181,-61
3775,7095,0,2023-03-10T14:06:56.596167,6294771,875,515,1518,-1041,-630,-263,117,181,-61
3776,7096,0,2023-03-10T14:06:56.601025,6294776,875,515,1518,-1041,-630,-263,117,181,-61
3777,7097,0,2023-03-10T14:06:56.605998,6294781,875,515,1518,-1041,-630,-263,117,181,-61
3778,7098,0,2023-03-10T14:06:56.610561,6294786,875,515,1518,-1041,-630,-263,117,181,-61
3779,7099,0,2023-03-10T14:06:56.615242,6294791,862,513,1515,-1023,-659,-212,117,181,-61
3780,7100,0,2023-03-10T14:06:56.620410,6294796,862,513,1515,-1023,-659,-212,117,181,-61
3781,7101,0,2023-03-10T14:06:56.624994,6294800,862,513,1515,-1023,-659,-212,117,181,-61
3782,7102,0,2023-03-10T14:06:56.629247,6294805,862,513,1515,-1023,-659,-212,117,181,-61
3783,7103,0,2023-03-10T14:06:56.633909,6294809,883,513,1530,-1029,-613,-266,121,187,-71
3784,7104,0,2023-03-10T14:06:56.639084,6294814,883,513,1530,-1029,-613,-266,121,187,-71
3785,7105,0,2023-03-10T14:06:56.644199,6294819,883,513,1530,-1029,-613,-266,121,187,-71
3786,7106,0,2023-03-10T14:06:56.648629,6294824,883,513,1530,-1029,-613,-266,121,187,-71
3787,7107,0,2023-03-10T14:06:56.653190,6294829,891,519,1509,-1034,-673,-266,121,187,-71
3788,7108,0,2023-03-10T14:06:56.658643,6294834,891,519,1509,-1034,-673,-266,121,187,-71
3789,7109,0,2023-03-10T14:06:56.662902,6294839,891,519,1509,-1034,-673,-266,121,187,-71
3790,7110,0,2023-03-10T14:06:56.667470,6294843,891,519,1509,-1034,-673,-266,121,187,-71
3791,7111,0,2023-03-10T14:06:56.671859,6294847,879,515,1513,-1024,-634,-231,121,187,-71
3792,7112,0,2023-03-10T14:06:56.677403,6294852,879,515,1513,-1024,-634,-231,121,187,-71
3793,7113,0,2023-03-10T14:06:56.682576,6294858,879,515,1513,-1024,-634,-231,121,187,-71
3794,7114,0,2023-03-10T14:06:56.687285,6294862,879,515,1513,-1024,-634,-231,121,187,-71
3795,7115,0,2023-03-10T14:06:56.692180,6294867,885,522,1525,-1033,-619,-263,121,187,-71
3796,7116,0,2023-03-10T14:06:56.697765,6294873,885,522,1525,-1033,-619,-263,121,187,-71
3797,7117,0,2023-03-10T14:06:56.703222,6294879,885,522,1525,-1033,-619,-263,121,187,-71
3798,7118,0,2023-03-10T14:06:56.707963,6294884,885,522,1525,-1033,-619,-263,121,187,-71
3799,7119,0,2023-03-10T14:06:56.712683,6294888,869,512,1503,-1032,-659,-248,121,187,-71
3800,7120,0,2023-03-10T14:06:56.718350,6294894,869,512,1503,-1032,-659,-248,121,187,-71
3801,7121,0,2023-03-10T14:06:56.722722,6294898,869,512,1503,-1032,-659,-248,121,187,-71
3802,7122,0,2023-03-10T14:06:56.727124,6294902,869,512,1503,-1032,-659,-248,121,187,-71
3803,7123,0,2023-03-10T14:06:56.731470,6294907,885,516,1514,-1046,-598,-270,121,187,-71
3804,7124,0,2023-03-10T14:06:56.736627,6294912,885,516,1514,-1046,-598,-270,121,187,-71
3805,7125,0,2023-03-10T14:06:56.740935,6294917,885,516,1514,-1046,-598,-270,121,187,-71
3806,7126,0,2023-03-10T14:06:56.745428,6294921,885,516,1514,-1046,-598,-270,121,187,-71
3807,7127,0,2023-03-10T14:06:56.750546,6294925,885,516,1514,-1046,-598,-270,121,187,-71
3808,7128,0,2023-03-10T14:06:56.755426,6294931,883,515,1523,-1015,-664,-261,122,178,-70
3809,7129,0,2023-03-10T14:06:56.761078,6294936,883,515,1523,-1015,-664,-261,122,178,-70
3810,7130,0,2023-03-10T14:06:56.765603,6294941,883,515,1523,-1015,-664,-261,122,178,-70
3811,7131,0,2023-03-10T14:06:56.770420,6294945,883,515,1523,-1015,-664,-261,122,178,-70
3812,7132,0,2023-03-10T14:06:56.775109,6294950,890,523,1504,-1040,-620,-240,122,178,-70
3813,7133,0,2023-03-10T14:06:56.780406,6294956,890,523,1504,-1040,-620,-240,122,178,-70
3814,7134,0,2023-03-10T14:06:56.785753,6294961,890,523,1504,-1040,-620,-240,122,178,-70
3815,7135,0,2023-03-10T14:06:56.790303,6294966,890,523,1504,-1040,-620,-240,122,178,-70
3816,7136,0,2023-03-10T14:06:56.794881,6294970,874,510,1515,-1009,-645,-199,122,178,-70
3817,7137,0,2023-03-10T14:06:56.800145,6294976,874,510,1515,-1009,-645,-199,122,178,-70
3818,7138,0,2023-03-10T14:06:56.805149,6294980,874,510,1515,-1009,-645,-199,122,178,-70
3819,7139,0,2023-03-10T14:06:56.809449,6294985,874,510,1515,-1009,-645,-199,122,178,-70
3820,7140,0,2023-03-10T14:06:56.813988,6294989,878,515,1512,-1028,-644,-265,122,178,-70
3821,7141,0,2023-03-10T14:06:56.819577,6294995,878,515,1512,-1028,-644,-265,122,178,-70
3822,7142,0,2023-03-10T14:06:56.824178,6295000,878,515,1512,-1028,-644,-265,122,178,-70
3823,7143,0,2023-03-10T14:06:56.828862,6295005,878,515,1512,-1028,-644,-265,122,178,-70
3824,7144,0,2023-03-10T14:06:56.833539,6295009,892,517,1513,-1045,-620,-261,122,178,-70
3825,7145,0,2023-03-10T14:06:56.838639,6295014,892,517,1513,-1045,-620,-261,122,178,-70
3826,7146,0,2023-03-10T14:06:56.844035,6295019,892,517,1513,-1045,-620,-261,122,178,-70
3827,7147,0,2023-03-10T14:06:56.848832,6295024,892,517,1513,-1045,-620,-261,122,178,-70
3828,7148,0,2023-03-10T14:06:56.853201,6295028,886,523,1516,-1025,-639,-269,122,178,-70
3829,7149,0,2023-03-10T14:06:56.858526,6295034,886,523,1516,-1025,-639,-269,122,178,-70
3830,7150,0,2023-03-10T14:06:56.863595,6295040,886,523,1516,-1025,-639,-269,122,178,-70
3831,7151,0,2023-03-10T14:06:56.868201,6295044,886,523,1516,-1025,-639,-269,122,178,-70
3832,7152,0,2023-03-10T14:06:56.872893,6295048,883,520,1504,-1050,-615,-251,122,178,-70
3833,7153,0,2023-03-10T14:06:56.877505,6295053,883,520,1504,-1050,-615,-251,122,178,-70
3834,7154,0,2023-03-10T14:06:56.882527,6295058,883,520,1504,-1050,-615,-251,122,178,-70
3835,7155,0,2023-03-10T14:06:56.887037,6295062,883,520,1504,-1050,-615,-251,122,178,-70
3836,7156,0,2023-03-10T14:06:56.891650,6295067,863,512,1524,-1013,-611,-218,125,187,-63
3837,7157,0,2023-03-10T14:06:56.896932,6295072,863,512,1524,-1013,-611,-218,125,187,-63
3838,7158,0,2023-03-10T14:06:56.901376,6295076,863,512,1524,-1013,-611,-218,125,187,-63
3839,7159,0,2023-03-10T14:06:56.906436,6295081,863,512,1524,-1013,-611,-218,125,187,-63
3840,7160,0,2023-03-10T14:06:56.910915,6295087,863,512,1524,-1013,-611,-218,125,187,-63
3841,7161,0,2023-03-10T14:06:56.915298,6295091,892,523,1528,-1035,-693,-287,125,187,-63
3842,7162,0,2023-03-10T14:06:56.920603,6295096,892,523,1528,-1035,-693,-287,125,187,-63
3843,7163,0,2023-03-10T14:06:56.925533,6295101,892,523,1528,-1035,-693,-287,125,187,-63
3844,7164,0,2023-03-10T14:06:56.930099,6295105,892,523,1528,-1035,-693,-287,125,187,-63
3845,7165,0,2023-03-10T14:06:56.934514,6295110,890,517,1512,-1038,-638,-246,125,187,-63
3846,7166,0,2023-03-10T14:06:56.939673,6295115,890,517,1512,-1038,-638,-246,125,187,-63
3847,7167,0,2023-03-10T14:06:56.944235,6295119,890,517,1512,-1038,-638,-246,125,187,-63
3848,7168,0,2023-03-10T14:06:56.948553,6295124,890,517,1512,-1038,-638,-246,125,187,-63
3849,7169,0,2023-03-10T14:06:56.952970,6295129,888,519,1506,-1026,-637,-258,125,187,-63
3850,7170,0,2023-03-10T14:06:56.957172,6295133,888,519,1506,-1026,-637,-258,125,187,-63
3851,7171,0,2023-03-10T14:06:56.962161,6295138,888,519,1506,-1026,-637,-258,125,187,-63
3852,7172,0,2023-03-10T14:06:56.966881,6295142,888,519,1506,-1026,-637,-258,125,187,-63
3853,7173,0,2023-03-10T14:06:56.971242,6295147,888,519,1506,-1026,-637,-258,125,187,-63
3854,7174,0,2023-03-10T14:06:56.976101,6295151,888,523,1512,-1028,-626,-232,125,187,-63
3855,7175,0,2023-03-10T14:06:56.981409,6295157,888,523,1512,-1028,-626,-232,125,187,-63
3856,7176,0,2023-03-10T14:06:56.986941,6295162,888,523,1512,-1028,-626,-232,125,187,-63
3857,7177,0,2023-03-10T14:06:56.991658,6295166,888,523,1512,-1028,-626,-232,125,187,-63
3858,7178,0,2023-03-10T14:06:56.996297,6295172,883,519,1520,-1024,-629,-233,125,187,-63
3859,7179,0,2023-03-10T14:06:57.001535,6295177,883,519,1520,-1024,-629,-233,125,187,-63
3860,7180,0,2023-03-10T14:06:57.005956,6295182,883,519,1520,-1024,-629,-233,125,187,-63
3861,7181,0,2023-03-10T14:06:57.010308,6295186,883,519,1520,-1024,-629,-233,125,187,-63
3862,7182,0,2023-03-10T14:06:57.014904,6295190,874,519,1511,-1050,-631,-282,116,180,-70
3863,7183,0,2023-03-10T14:06:57.020504,6295196,874,519,1511,-1050,-631,-282,116,180,-70
3864,7184,0,2023-03-10T14:06:57.025261,6295200,874,519,1511,-1050,-631,-282,116,180,-70
3865,7185,0,2023-03-10T14:06:57.029825,6295205,874,519,1511,-1050,-631,-282,116,180,-70
3866,7186,0,2023-03-10T14:06:57.034436,6295209,898,521,1518,-1039,-628,-250,116,180,-70
3867,7187,0,2023-03-10T14:06:57.039931,6295216,898,521,1518,-1039,-628,-250,116,180,-70
3868,7188,0,2023-03-10T14:06:57.044553,6295220,898,521,1518,-1039,-628,-250,116,180,-70
3869,7189,0,2023-03-10T14:06:57.049440,6295225,898,521,1518,-1039,-628,-250,116,180,-70
3870,7190,0,2023-03-10T14:06:57.053739,6295229,896,525,1513,-1025,-647,-267,116,180,-70
3871,7191,0,2023-03-10T14:06:57.058670,6295234,896,525,1513,-1025,-647,-267,116,180,-70
3872,7192,0,2023-03-10T14:06:57.063337,6295239,896,525,1513,-1025,-647,-267,116,180,-70
3873,7193,0,2023-03-10T14:06:57.067748,6295243,896,525,1513,-1025,-647,-267,116,180,-70
3874,7194,0,2023-03-10T14:06:57.072134,6295247,880,513,1498,-1046,-636,-227,116,180,-70
3875,7195,0,2023-03-10T14:06:57.077093,6295252,880,513,1498,-1046,-636,-227,116,180,-70
3876,7196,0,2023-03-10T14:06:57.081971,6295258,880,513,1498,-1046,-636,-227,116,180,-70
3877,7197,0,2023-03-10T14:06:57.086719,6295262,880,513,1498,-1046,-636,-227,116,180,-70
3878,7198,0,2023-03-10T14:06:57.090953,6295267,880,513,1498,-1046,-636,-227,116,180,-70
3879,7199,0,2023-03-10T14:06:57.095423,6295271,899,527,1526,-1012,-640,-263,116,180,-70
3880,7200,0,2023-03-10T14:06:57.100983,6295276,899,527,1526,-1012,-640,-263,116,180,-70
3881,7201,0,2023-03-10T14:06:57.105488,6295281,899,527,1526,-1012,-640,-263,116,180,-70
3882,7202,0,2023-03-10T14:06:57.109770,6295285,899,527,1526,-1012,-640,-263,116,180,-70
3883,7203,0,2023-03-10T14:06:57.114284,6295289,876,516,1502,-1054,-647,-249,116,180,-70
3884,7204,0,2023-03-10T14:06:57.119350,6295294,876,516,1502,-1054,-647,-249,116,180,-70
3885,7205,0,2023-03-10T14:06:57.123908,6295300,876,516,1502,-1054,-647,-249,116,180,-70
3886,7206,0,2023-03-10T14:06:57.128427,6295304,876,516,1502,-1054,-647,-249,116,180,-70
3887,7207,0,2023-03-10T14:06:57.132954,6295309,885,521,1515,-1037,-603,-259,116,176,-60
3888,7208,0,2023-03-10T14:06:57.138044,6295313,885,521,1515,-1037,-603,-259,116,176,-60
3889,7209,0,2023-03-10T14:06:57.142786,6295318,885,521,1515,-1037,-603,-259,116,176,-60
3890,7210,0,2023-03-10T14:06:57.147220,6295322,885,521,1515,-1037,-603,-259,116,176,-60
3891,7211,0,2023-03-10T14:06:57.151728,6295327,885,518,1526,-1029,-666,-251,116,176,-60
3892,7212,0,2023-03-10T14:06:57.156699,6295332,885,518,1526,-1029,-666,-251,116,176,-60
3893,7213,0,2023-03-10T14:06:57.161968,6295337,885,518,1526,-1029,-666,-251,116,176,-60
3894,7214,0,2023-03-10T14:06:57.166358,6295342,885,518,1526,-1029,-666,-251,116,176,-60
3895,7215,0,2023-03-10T14:06:57.170908,6295346,885,518,1526,-1029,-666,-251,116,176,-60
3896,7216,0,2023-03-10T14:06:57.175427,6295351,895,521,1511,-1039,-612,-255,116,176,-60
3897,7217,0,2023-03-10T14:06:57.180548,6295356,895,521,1511,-1039,-612,-255,116,176,-60
3898,7218,0,2023-03-10T14:06:57.184874,6295360,895,521,1511,-1039,-612,-255,116,176,-60
3899,7219,0,2023-03-10T14:06:57.189434,6295365,895,521,1511,-1039,-612,-255,116,176,-60
3900,7220,0,2023-03-10T14:06:57.194445,6295370,888,518,1510,-1023,-635,-244,116,176,-60
3901,7221,0,2023-03-10T14:06:57.199595,6295375,888,518,1510,-1023,-635,-244,116,176,-60
3902,7222,0,2023-03-10T14:06:57.204298,6295379,888,518,1510,-1023,-635,-244,116,176,-60
3903,7223,0,2023-03-10T14:06:57.208781,6295385,888,518,1510,-1023,-635,-244,116,176,-60
3904,7224,0,2023-03-10T14:06:57.213308,6295389,885,519,1508,-1031,-633,-249,116,176,-60
3905,7225,0,2023-03-10T14:06:57.218117,6295394,885,519,1508,-1031,-633,-249,116,176,-60
3906,7226,0,2023-03-10T14:06:57.223109,6295399,885,519,1508,-1031,-633,-249,116,176,-60
3907,7227,0,2023-03-10T14:06:57.228239,6295403,885,519,1508,-1031,-633,-249,116,176,-60
3908,7228,0,2023-03-10T14:06:57.233045,6295408,882,511,1516,-1041,-610,-241,116,176,-60
3909,7229,0,2023-03-10T14:06:57.237496,6295413,882,511,1516,-1041,-610,-241,116,176,-60
3910,7230,0,2023-03-10T14:06:57.242416,6295418,882,511,1516,-1041,-610,-241,116,176,-60
3911,7231,0,2023-03-10T14:06:57.246951,6295422,882,511,1516,-1041,-610,-241,116,176,-60
3912,7232,0,2023-03-10T14:06:57.251231,6295427,882,511,1516,-1041,-610,-241,116,176,-60
3913,7233,0,2023-03-10T14:06:57.255645,6295432,886,523,1512,-1024,-670,-266,116,176,-60
3914,7234,0,2023-03-10T14:06:57.261154,6295437,886,523,1512,-1024,-670,-266,116,176,-60
3915,7235,0,2023-03-10T14:06:57.265627,6295441,886,523,1512,-1024,-670,-266,116,176,-60
3916,7236,0,2023-03-10T14:06:57.270004,6295445,886,523,1512,-1024,-670,-266,116,176,-60
3917,7237,0,2023-03-10T14:06:57.274373,6295450,886,523,1512,-1024,-670,-266,114,182,-66
3918,7238,0,2023-03-10T14:06:57.278782,6295454,886,523,1512,-1024,-670,-266,114,182,-66
3919,7239,0,2023-03-10T14:06:57.283976,6295459,886,523,1512,-1024,-670,-266,114,182,-66
3920,7240,0,2023-03-10T14:06:57.288367,6295463,886,523,1512,-1024,-670,-266,114,182,-66
3921,7241,0,2023-03-10T14:06:57.292937,6295469,886,523,1512,-1024,-670,-266,114,182,-66
3922,7242,0,2023-03-10T14:06:57.297510,6295473,886,523,1512,-1024,-670,-266,114,182,-66
3923,7243,0,2023-03-10T14:06:57.302603,6295478,886,523,1512,-1024,-670,-266,114,182,-66
3924,7244,0,2023-03-10T14:06:57.307275,6295483,886,523,1512,-1024,-670,-266,114,182,-66
3925,7245,0,2023-03-10T14:06:57.311456,6295487,886,523,1512,-1024,-670,-266,114,182,-66
3926,7246,0,2023-03-10T14:06:57.316021,6295491,888,515,1498,-1053,-643,-272,114,182,-66
3927,7247,0,2023-03-10T14:06:57.321146,6295496,888,515,1498,-1053,-643,-272,114,182,-66
3928,7248,0,2023-03-10T14:06:57.325516,6295501,888,515,1498,-1053,-643,-272,114,182,-66
3929,7249,0,2023-03-10T14:06:57.330041,6295505,888,515,1498,-1053,-643,-272,114,182,-66
3930,7250,0,2023-03-10T14:06:57.334415,6295510,897,512,1516,-1020,-604,-258,114,182,-66
3931,7251,0,2023-03-10T14:06:57.338953,6295515,897,512,1516,-1020,-604,-258,114,182,-66
3932,7252,0,2023-03-10T14:06:57.343546,6295519,897,512,1516,-1020,-604,-258,114,182,-66
3933,7253,0,2023-03-10T14:06:57.347900,6295524,897,512,1516,-1020,-604,-258,114,182,-66
3934,7254,0,2023-03-10T14:06:57.352328,6295528,891,514,1509,-1036,-660,-242,114,182,-66
3935,7255,0,2023-03-10T14:06:57.357369,6295533,891,514,1509,-1036,-660,-242,114,182,-66
3936,7256,0,2023-03-10T14:06:57.362220,6295537,891,514,1509,-1036,-660,-242,114,182,-66
3937,7257,0,2023-03-10T14:06:57.366570,6295542,891,514,1509,-1036,-660,-242,114,182,-66
3938,7258,0,2023-03-10T14:06:57.371274,6295546,891,514,1509,-1036,-660,-242,114,182,-66
3939,7259,0,2023-03-10T14:06:57.375678,6295552,898,522,1515,-1046,-598,-267,114,182,-66
3940,7260,0,2023-03-10T14:06:57.380817,6295557,898,522,1515,-1046,-598,-267,114,182,-66
3941,7261,0,2023-03-10T14:06:57.385217,6295561,898,522,1515,-1046,-598,-267,114,182,-66
3942,7262,0,2023-03-10T14:06:57.389488,6295565,898,522,1515,-1046,-598,-267,114,182,-66
3943,7263,0,2023-03-10T14:06:57.393836,6295569,892,522,1517,-1025,-670,-259,126,182,-62
3944,7264,0,2023-03-10T14:06:57.398755,6295574,892,522,1517,-1025,-670,-259,126,182,-62
3945,7265,0,2023-03-10T14:06:57.403245,6295579,892,522,1517,-1025,-670,-259,126,182,-62
3946,7266,0,2023-03-10T14:06:57.407739,6295583,892,522,1517,-1025,-670,-259,126,182,-62
3947,7267,0,2023-03-10T14:06:57.412515,6295587,895,524,1503,-1050,-639,-261,126,182,-62
3948,7268,0,2023-03-10T14:06:57.417738,6295593,895,524,1503,-1050,-639,-261,126,182,-62
3949,7269,0,2023-03-10T14:06:57.422687,6295599,895,524,1503,-1050,-639,-261,126,182,-62
3950,7270,0,2023-03-10T14:06:57.427614,6295603,895,524,1503,-1050,-639,-261,126,182,-62
3951,7271,0,2023-03-10T14:06:57.432280,6295608,895,524,1503,-1050,-639,-261,126,182,-62
3952,7272,0,2023-03-10T14:06:57.436918,6295612,887,510,1509,-1029,-628,-212,126,182,-62
3953,7273,0,2023-03-10T14:06:57.443346,6295619,887,510,1509,-1029,-628,-212,126,182,-62
3954,7274,0,2023-03-10T14:06:57.447896,6295623,887,510,1509,-1029,-628,-212,126,182,-62
3955,7275,0,2023-03-10T14:06:57.452513,6295628,893,515,1514,-1021,-659,-250,126,182,-62
3956,7276,0,2023-03-10T14:06:57.457256,6295632,893,515,1514,-1021,-659,-250,126,182,-62
3957,7277,0,2023-03-10T14:06:57.462227,6295638,893,515,1514,-1021,-659,-250,126,182,-62
3958,7278,0,2023-03-10T14:06:57.466774,6295643,893,515,1514,-1021,-659,-250,126,182,-62
3959,7279,0,2023-03-10T14:06:57.471118,6295647,893,515,1514,-1021,-659,-250,126,182,-62
3960,7280,0,2023-03-10T14:06:57.475505,6295651,906,518,1509,-1050,-612,-264,126,182,-62
3961,7281,0,2023-03-10T14:06:57.480559,6295656,906,518,1509,-1050,-612,-264,126,182,-62
3962,7282,0,2023-03-10T14:06:57.485948,6295661,906,518,1509,-1050,-612,-264,126,182,-62
3963,7283,0,2023-03-10T14:06:57.490530,6295666,906,518,1509,-1050,-612,-264,126,182,-62
3964,7284,0,2023-03-10T14:06:57.495038,6295670,891,516,1518,-1004,-651,-218,126,182,-62
3965,7285,0,2023-03-10T14:06:57.500434,6295675,891,516,1518,-1004,-651,-218,126,182,-62
3966,7286,0,2023-03-10T14:06:57.504762,6295681,891,516,1518,-1004,-651,-218,126,182,-62
3967,7287,0,2023-03-10T14:06:57.509249,6295685,891,516,1518,-1004,-651,-218,126,182,-62
3968,7288,0,2023-03-10T14:06:57.513633,6295689,892,516,1511,-1037,-622,-262,126,182,-62
3969,7289,0,2023-03-10T14:06:57.519090,6295695,892,516,1511,-1037,-622,-262,126,182,-62
3970,7290,0,2023-03-10T14:06:57.523701,6295699,892,516,1511,-1037,-622,-262,126,182,-62
3971,7291,0,2023-03-10T14:06:57.528211,6295704,892,516,1511,-1037,-622,-262,126,182,-62
3972,7292,0,2023-03-10T14:06:57.532629,6295708,897,523,1511,-1041,-622,-281,123,173,-71
3973,7293,0,2023-03-10T14:06:57.537796,6295713,897,523,1511,-1041,-622,-281,123,173,-71
3974,7294,0,2023-03-10T14:06:57.542976,6295718,897,523,1511,-1041,-622,-281,123,173,-71
3975,7295,0,2023-03-10T14:06:57.547576,6295724,897,523,1511,-1041,-622,-281,123,173,-71
3976,7296,0,2023-03-10T14:06:57.552012,6295728,897,523,1511,-1041,-622,-281,123,173,-71
3977,7297,0,2023-03-10T14:06:57.556613,6295732,886,514,1510,-1037,-657,-253,123,173,-71
3978,7298,0,2023-03-10T14:06:57.562120,6295738,886,514,1510,-1037,-657,-253,123,173,-71
3979,7299,0,2023-03-10T14:06:57.566576,6295742,886,514,1510,-1037,-657,-253,123,173,-71
3980,7300,0,2023-03-10T14:06:57.570942,6295746,886,514,1510,-1037,-657,-253,123,173,-71
3981,7301,0,2023-03-10T14:06:57.575450,6295751,908,523,1511,-1038,-602,-264,123,173,-71
3982,7302,0,2023-03-10T14:06:57.580426,6295756,908,523,1511,-1038,-602,-264,123,173,-71
3983,7303,0,2023-03-10T14:06:57.585162,6295760,908,523,1511,-1038,-602,-264,123,173,-71
3984,7304,0,2023-03-10T14:06:57.589639,6295766,908,523,1511,-1038,-602,-264,123,173,-71
3985,7305,0,2023-03-10T14:06:57.594409,6295770,888,511,1509,-1022,-651,-201,123,173,-71
3986,7306,0,2023-03-10T14:06:57.600240,6295776,888,511,1509,-1022,-651,-201,123,173,-71
3987,7307,0,2023-03-10T14:06:57.604751,6295780,888,511,1509,-1022,-651,-201,123,173,-71
3988,7308,0,2023-03-10T14:06:57.609568,6295785,888,511,1509,-1022,-651,-201,123,173,-71
3989,7309,0,2023-03-10T14:06:57.614405,6295789,893,519,1510,-1038,-625,-247,123,173,-71
3990,7310,0,2023-03-10T14:06:57.619932,6295795,893,519,1510,-1038,-625,-247,123,173,-71
3991,7311,0,2023-03-10T14:06:57.624352,6295800,893,519,1510,-1038,-625,-247,123,173,-71
3992,7312,0,2023-03-10T14:06:57.628811,6295804,893,519,1510,-1038,-625,-247,123,173,-71
3993,7313,0,2023-03-10T14:06:57.633266,6295809,903,515,1510,-1039,-637,-271,123,173,-71
3994,7314,0,2023-03-10T14:06:57.638107,6295814,903,515,1510,-1039,-637,-271,123,173,-71
3995,7315,0,2023-03-10T14:06:57.643391,6295819,903,515,1510,-1039,-637,-271,123,173,-71
3996,7316,0,2023-03-10T14:06:57.647802,6295823,903,515,1510,-1039,-637,-271,123,173,-71
3997,7317,0,2023-03-10T14:06:57.652152,6295828,903,515,1510,-1039,-637,-271,123,173,-71
3998,7318,0,2023-03-10T14:06:57.656698,6295832,893,521,1505,-1030,-655,-253,129,187,-61
3999,7319,0,2023-03-10T14:06:57.661979,6295837,893,521,1505,-1030,-655,-253,129,187,-61
4000,7320,0,2023-03-10T14:06:57.666492,6295842,893,521,1505,-1030,-655,-253,129,187,-61
4001,7321,0,2023-03-10T14:06:57.671003,6295846,893,521,1505,-1030,-655,-253,129,187,-61
4002,7322,0,2023-03-10T14:06:57.675566,6295851,899,518,1512,-1054,-609,-255,129,187,-61
4003,7323,0,2023-03-10T14:06:57.680937,6295857,899,518,1512,-1054,-609,-255,129,187,-61
4004,7324,0,2023-03-10T14:06:57.685789,6295861,899,518,1512,-1054,-609,-255,129,187,-61
4005,7325,0,2023-03-10T14:06:57.690453,6295866,899,518,1512,-1054,-609,-255,129,187,-61
4006,7326,0,2023-03-10T14:06:57.695121,6295871,899,526,1515,-1025,-662,-268,129,187,-61
4007,7327,0,2023-03-10T14:06:57.700714,6295876,899,526,1515,-1025,-662,-268,129,187,-61
4008,7328,0,2023-03-10T14:06:57.705368,6295880,899,526,1515,-1025,-662,-268,129,187,-61
4009,7329,0,2023-03-10T14:06:57.709759,6295885,899,526,1515,-1025,-662,-268,129,187,-61
4010,7330,0,2023-03-10T14:06:57.714248,6295889,888,512,1513,-1039,-627,-207,129,187,-61
4011,7331,0,2023-03-10T14:06:57.720121,6295896,888,512,1513,-1039,-627,-207,129,187,-61
4012,7332,0,2023-03-10T14:06:57.724612,6295900,888,512,1513,-1039,-627,-207,129,187,-61
4013,7333,0,2023-03-10T14:06:57.729465,6295905,888,512,1513,-1039,-627,-207,129,187,-61
4014,7334,0,2023-03-10T14:06:57.733995,6295910,902,518,1517,-1027,-632,-276,129,187,-61
4015,7335,0,2023-03-10T14:06:57.739471,6295914,902,518,1517,-1027,-632,-276,129,187,-61
4016,7336,0,2023-03-10T14:06:57.744178,6295919,902,518,1517,-1027,-632,-276,129,187,-61
4017,7337,0,2023-03-10T14:06:57.748996,6295924,902,518,1517,-1027,-632,-276,129,187,-61
4018,7338,0,2023-03-10T14:06:57.753644,6295929,901,516,1502,-1041,-649,-258,129,187,-61
4019,7339,0,2023-03-10T14:06:57.759186,6295934,901,516,1502,-1041,-649,-258,129,187,-61
4020,7340,0,2023-03-10T14:06:57.765032,6295941,901,516,1502,-1041,-649,-258,129,187,-61
4021,7341,0,2023-03-10T14:06:57.769559,6295945,901,516,1502,-1041,-649,-258,129,187,-61
4022,7342,0,2023-03-10T14:06:57.774267,6295950,899,518,1513,-1025,-608,-258,127,173,-65
4023,7343,0,2023-03-10T14:06:57.780127,6295955,899,518,1513,-1025,-608,-258,127,173,-65
4024,7344,0,2023-03-10T14:06:57.784575,6295960,899,518,1513,-1025,-608,-258,127,173,-65
4025,7345,0,2023-03-10T14:06:57.789177,6295965,899,518,1513,-1025,-608,-258,127,173,-65
4026,7346,0,2023-03-10T14:06:57.793721,6295969,908,523,1511,-1032,-656,-263,127,173,-65
4027,7347,0,2023-03-10T14:06:57.799660,6295975,908,523,1511,-1032,-656,-263,127,173,-65
4028,7348,0,2023-03-10T14:06:57.804148,6295980,908,523,1511,-1032,-656,-263,127,173,-65
4029,7349,0,2023-03-10T14:06:57.808708,6295985,908,523,1511,-1032,-656,-263,127,173,-65
4030,7350,0,2023-03-10T14:06:57.813200,6295989,890,514,1516,-1030,-615,-210,127,173,-65
4031,7351,0,2023-03-10T14:06:57.818408,6295994,890,514,1516,-1030,-615,-210,127,173,-65
4032,7352,0,2023-03-10T14:06:57.823560,6295999,890,514,1516,-1030,-615,-210,127,173,-65
4033,7353,0,2023-03-10T14:06:57.829060,6296004,890,514,1516,-1030,-615,-210,127,173,-65
4034,7354,0,2023-03-10T14:06:57.833594,6296009,904,523,1508,-1042,-639,-284,127,173,-65
4035,7355,0,2023-03-10T14:06:57.838267,6296013,904,523,1508,-1042,-639,-284,127,173,-65
4036,7356,0,2023-03-10T14:06:57.843278,6296018,904,523,1508,-1042,-639,-284,127,173,-65
4037,7357,0,2023-03-10T14:06:57.847871,6296024,904,523,1508,-1042,-639,-284,127,173,-65
4038,7358,0,2023-03-10T14:06:57.852470,6296028,904,523,1508,-1042,-639,-284,127,173,-65
4039,7359,0,2023-03-10T14:06:57.856923,6296033,899,514,1498,-1041,-651,-269,127,173,-65
4040,7360,0,2023-03-10T14:06:57.862349,6296038,899,514,1498,-1041,-651,-269,127,173,-65
4041,7361,0,2023-03-10T14:06:57.866888,6296042,899,514,1498,-1041,-651,-269,127,173,-65
4042,7362,0,2023-03-10T14:06:57.871482,6296047,899,514,1498,-1041,-651,-269,127,173,-65
4043,7363,0,2023-03-10T14:06:57.876372,6296051,904,518,1506,-1038,-613,-264,127,173,-65
4044,7364,0,2023-03-10T14:06:57.882357,6296057,904,518,1506,-1038,-613,-264,127,173,-65
4045,7365,0,2023-03-10T14:06:57.886638,6296062,904,518,1506,-1038,-613,-264,127,173,-65
4046,7366,0,2023-03-10T14:06:57.891145,6296067,904,518,1506,-1038,-613,-264,127,173,-65
4047,7367,0,2023-03-10T14:06:57.895836,6296071,906,521,1512,-1037,-643,-249,127,173,-65
4048,7368,0,2023-03-10T14:06:57.901157,6296077,906,521,1512,-1037,-643,-249,127,173,-65
4049,7369,0,2023-03-10T14:06:57.905689,6296081,906,521,1512,-1037,-643,-249,127,173,-65
4050,7370,0,2023-03-10T14:06:57.910171,6296085,906,521,1512,-1037,-643,-249,127,173,-65
4051,7371,0,2023-03-10T14:06:57.914959,6296090,893,516,1510,-1015,-614,-219,118,174,-60
4052,7372,0,2023-03-10T14:06:57.920642,6296096,893,516,1510,-1015,-614,-219,118,174,-60
4053,7373,0,2023-03-10T14:06:57.925266,6296100,893,516,1510,-1015,-614,-219,118,174,-60
4054,7374,0,2023-03-10T14:06:57.929947,6296105,893,516,1510,-1015,-614,-219,118,174,-60
4055,7375,0,2023-03-10T14:06:57.934574,6296110,888,516,1501,-1037,-619,-275,118,174,-60
4056,7376,0,2023-03-10T14:06:57.939224,6296115,888,516,1501,-1037,-619,-275,118,174,-60
4057,7377,0,2023-03-10T14:06:57.943824,6296119,888,516,1501,-1037,-619,-275,118,174,-60
4058,7378,0,2023-03-10T14:06:57.948249,6296124,888,516,1501,-1037,-619,-275,118,174,-60
4059,7379,0,2023-03-10T14:06:57.952605,6296128,888,516,1501,-1037,-619,-275,118,174,-60
4060,7380,0,2023-03-10T14:06:57.957121,6296132,906,523,1510,-1027,-652,-260,118,174,-60
4061,7381,0,2023-03-10T14:06:57.962267,6296138,906,523,1510,-1027,-652,-260,118,174,-60
4062,7382,0,2023-03-10T14:06:57.966799,6296142,906,523,1510,-1027,-652,-260,118,174,-60
4063,7383,0,2023-03-10T14:06:57.971831,6296146,906,523,1510,-1027,-652,-260,118,174,-60
4064,7384,0,2023-03-10T14:06:57.976402,6296152,902,516,1513,-1035,-617,-244,118,174,-60
4065,7385,0,2023-03-10T14:06:57.981708,6296158,902,516,1513,-1035,-617,-244,118,174,-60
4066,7386,0,2023-03-10T14:06:57.987019,6296162,902,516,1513,-1035,-617,-244,118,174,-60
4067,7387,0,2023-03-10T14:06:57.991622,6296167,902,516,1513,-1035,-617,-244,118,174,-60
4068,7388,0,2023-03-10T14:06:57.996749,6296172,901,514,1500,-1046,-657,-260,118,174,-60
4069,7389,0,2023-03-10T14:06:58.002676,6296178,901,514,1500,-1046,-657,-260,118,174,-60
4070,7390,0,2023-03-10T14:06:58.007379,6296182,901,514,1500,-1046,-657,-260,118,174,-60
4071,7391,0,2023-03-10T14:06:58.011997,6296187,901,514,1500,-1046,-657,-260,118,174,-60
4072,7392,0,2023-03-10T14:06:58.016555,6296192,906,524,1518,-1036,-620,-265,118,174,-60
4073,7393,0,2023-03-10T14:06:58.022935,6296198,906,524,1518,-1036,-620,-265,118,174,-60
4074,7394,0,2023-03-10T14:06:58.028704,6296204,906,524,1518,-1036,-620,-265,118,174,-60
4075,7395,0,2023-03-10T14:06:58.033452,6296209,905,519,1503,-1031,-644,-240,118,174,-60
4076,7396,0,2023-03-10T14:06:58.038742,6296214,905,519,1503,-1031,-644,-240,113,181,-73
4077,7397,0,2023-03-10T14:06:58.044221,6296219,905,519,1503,-1031,-644,-240,113,181,-73
4078,7398,0,2023-03-10T14:06:58.049055,6296224,905,519,1503,-1031,-644,-240,113,181,-73
4079,7399,0,2023-03-10T14:06:58.053797,6296229,890,517,1503,-1021,-642,-225,113,181,-73
4080,7400,0,2023-03-10T14:06:58.059507,6296235,890,517,1503,-1021,-642,-225,113,181,-73
4081,7401,0,2023-03-10T14:06:58.066177,6296242,890,517,1503,-1021,-642,-225,113,181,-73
4082,7402,0,2023-03-10T14:06:58.070977,6296246,890,517,1503,-1021,-642,-225,113,181,-73
4083,7403,0,2023-03-10T14:06:58.075812,6296251,908,518,1514,-1043,-610,-279,113,181,-73
4084,7404,0,2023-03-10T14:06:58.081477,6296257,908,518,1514,-1043,-610,-279,113,181,-73
4085,7405,0,2023-03-10T14:06:58.086193,6296261,908,518,1514,-1043,-610,-279,113,181,-73
4086,7406,0,2023-03-10T14:06:58.090876,6296266,908,518,1514,-1043,-610,-279,113,181,-73
4087,7407,0,2023-03-10T14:06:58.095399,6296270,907,514,1504,-1019,-665,-249,113,181,-73
4088,7408,0,2023-03-10T14:06:58.101407,6296276,907,514,1504,-1019,-665,-249,113,181,-73
4089,7409,0,2023-03-10T14:06:58.106965,6296282,907,514,1504,-1019,-665,-249,113,181,-73
4090,7410,0,2023-03-10T14:06:58.111921,6296288,907,514,1504,-1019,-665,-249,113,181,-73
4091,7411,0,2023-03-10T14:06:58.116671,6296292,908,522,1502,-1046,-599,-249,113,181,-73
4092,7412,0,2023-03-10T14:06:58.122434,6296298,908,522,1502,-1046,-599,-249,113,181,-73
4093,7413,0,2023-03-10T14:06:58.127653,6296303,908,522,1502,-1046,-599,-249,113,181,-73
4094,7414,0,2023-03-10T14:06:58.133409,6296308,908,522,1502,-1046,-599,-249,113,181,-73
4095,7415,0,2023-03-10T14:06:58.138109,6296313,908,522,1508,-1031,-641,-247,113,181,-73
4096,7416,0,2023-03-10T14:06:58.143847,6296320,908,522,1508,-1031,-641,-247,113,181,-73
4097,7417,0,2023-03-10T14:06:58.148653,6296324,908,522,1508,-1031,-641,-247,113,181,-73
4098,7418,0,2023-03-10T14:06:58.153532,6296329,890,513,1505,-1028,-638,-241,113,181,-73
4099,7419,0,2023-03-10T14:06:58.158822,6296334,890,513,1505,-1028,-638,-241,113,181,-73
4100,7420,0,2023-03-10T14:06:58.163914,6296339,890,513,1505,-1028,-638,-241,113,181,-73
4101,7421,0,2023-03-10T14:06:58.169252,6296344,890,513,1505,-1028,-638,-241,113,181,-73
4102,7422,0,2023-03-10T14:06:58.174067,6296349,909,511,1503,-1051,-618,-280,122,176,-54
4103,7423,0,2023-03-10T14:06:58.179691,6296355,909,511,1503,-1051,-618,-280,122,176,-54
4104,7424,0,2023-03-10T14:06:58.184541,6296359,909,511,1503,-1051,-618,-280,122,176,-54
4105,7425,0,2023-03-10T14:06:58.189289,6296365,909,511,1503,-1051,-618,-280,122,176,-54
4106,7426,0,2023-03-10T14:06:58.193908,6296370,899,518,1509,-1018,-643,-232,122,176,-54
4107,7427,0,2023-03-10T14:06:58.199581,6296375,899,518,1509,-1018,-643,-232,122,176,-54
4108,7428,0,2023-03-10T14:06:58.204822,6296380,899,518,1509,-1018,-643,-232,122,176,-54
4109,7429,0,2023-03-10T14:06:58.209319,6296385,899,518,1509,-1018,-643,-232,122,176,-54
4110,7430,0,2023-03-10T14:06:58.213690,6296389,908,522,1506,-1053,-612,-249,122,176,-54
4111,7431,0,2023-03-10T14:06:58.218390,6296393,908,522,1506,-1053,-612,-249,122,176,-54
4112,7432,0,2023-03-10T14:06:58.223746,6296399,908,522,1506,-1053,-612,-249,122,176,-54
4113,7433,0,2023-03-10T14:06:58.228303,6296403,908,522,1506,-1053,-612,-249,122,176,-54
4114,7434,0,2023-03-10T14:06:58.233147,6296409,908,522,1506,-1053,-612,-249,122,176,-54
4115,7435,0,2023-03-10T14:06:58.237950,6296414,912,523,1507,-1037,-655,-264,122,176,-54
4116,7436,0,2023-03-10T14:06:58.243644,6296419,912,523,1507,-1037,-655,-264,122,176,-54
4117,7437,0,2023-03-10T14:06:58.248351,6296424,912,523,1507,-1037,-655,-264,122,176,-54
4118,7438,0,2023-03-10T14:06:58.253514,6296428,912,523,1507,-1037,-655,-264,122,176,-54
4119,7439,0,2023-03-10T14:06:58.258637,6296434,905,514,1503,-1035,-631,-244,122,176,-54
4120,7440,0,2023-03-10T14:06:58.263353,6296438,905,514,1503,-1035,-631,-244,122,176,-54
4121,7441,0,2023-03-10T14:06:58.267869,6296443,905,514,1503,-1035,-631,-244,122,176,-54
4122,7442,0,2023-03-10T14:06:58.272615,6296448,905,514,1503,-1035,-631,-244,122,176,-54
4123,7443,0,2023-03-10T14:06:58.277444,6296453,910,515,1506,-1026,-607,-267,122,176,-54
4124,7444,0,2023-03-10T14:06:58.282961,6296459,910,515,1506,-1026,-607,-267,122,176,-54
4125,7445,0,2023-03-10T14:06:58.287894,6296463,910,515,1506,-1026,-607,-267,122,176,-54
4126,7446,0,2023-03-10T14:06:58.292597,6296468,910,515,1506,-1026,-607,-267,122,176,-54
4127,7447,0,2023-03-10T14:06:58.297268,6296472,897,513,1508,-1021,-658,-223,118,184,-72
4128,7448,0,2023-03-10T14:06:58.303045,6296478,897,513,1508,-1021,-658,-223,118,184,-72
4129,7449,0,2023-03-10T14:06:58.308095,6296483,897,513,1508,-1021,-658,-223,118,184,-72
4130,7450,0,2023-03-10T14:06:58.312741,6296488,897,513,1508,-1021,-658,-223,118,184,-72
4131,7451,0,2023-03-10T14:06:58.317312,6296493,903,517,1516,-1034,-611,-250,118,184,-72
4132,7452,0,2023-03-10T14:06:58.323340,6296499,903,517,1516,-1034,-611,-250,118,184,-72
4133,7453,0,2023-03-10T14:06:58.327783,6296503,903,517,1516,-1034,-611,-250,118,184,-72
4134,7454,0,2023-03-10T14:06:58.332708,6296508,903,517,1516,-1034,-611,-250,118,184,-72
4135,7455,0,2023-03-10T14:06:58.337413,6296513,921,523,1508,-1038,-665,-288,118,184,-72
4136,7456,0,2023-03-10T14:06:58.343030,6296518,921,523,1508,-1038,-665,-288,118,184,-72
4137,7457,0,2023-03-10T14:06:58.347433,6296523,921,523,1508,-1038,-665,-288,118,184,-72
4138,7458,0,2023-03-10T14:06:58.352117,6296527,921,523,1508,-1038,-665,-288,118,184,-72
4139,7459,0,2023-03-10T14:06:58.356816,6296532,908,515,1503,-1029,-630,-239,118,184,-72
4140,7460,0,2023-03-10T14:06:58.362567,6296538,908,515,1503,-1029,-630,-239,118,184,-72
4141,7461,0,2023-03-10T14:06:58.368096,6296544,908,515,1503,-1029,-630,-239,118,184,-72
4142,7462,0,2023-03-10T14:06:58.372858,6296548,908,515,1503,-1029,-630,-239,118,184,-72
4143,7463,0,2023-03-10T14:06:58.378125,6296553,908,517,1510,-1030,-606,-268,118,184,-72
4144,7464,0,2023-03-10T14:06:58.383951,6296559,908,517,1510,-1030,-606,-268,118,184,-72
4145,7465,0,2023-03-10T14:06:58.388771,6296564,908,517,1510,-1030,-606,-268,118,184,-72
4146,7466,0,2023-03-10T14:06:58.393270,6296568,908,517,1510,-1030,-606,-268,118,184,-72
4147,7467,0,2023-03-10T14:06:58.398186,6296573,905,518,1495,-1040,-653,-273,118,184,-72
4148,7468,0,2023-03-10T14:06:58.404593,6296580,905,518,1495,-1040,-653,-273,118,184,-72
4149,7469,0,2023-03-10T14:06:58.410377,6296586,905,518,1495,-1040,-653,-273,118,184,-72
4150,7470,0,2023-03-10T14:06:58.415385,6296591,903,508,1512,-1035,-611,-264,118,184,-72
4151,7471,0,2023-03-10T14:06:58.421690,6296597,903,508,1512,-1035,-611,-264,118,184,-72
4152,7472,0,2023-03-10T14:06:58.427204,6296602,903,508,1512,-1035,-611,-264,118,184,-72
4153,7473,0,2023-03-10T14:06:58.432107,6296607,903,508,1512,-1035,-611,-264,118,184,-72
4154,7474,0,2023-03-10T14:06:58.436955,6296612,912,524,1510,-1033,-661,-279,130,184,-70
4155,7475,0,2023-03-10T14:06:58.443213,6296619,912,524,1510,-1033,-661,-279,130,184,-70
4156,7476,0,2023-03-10T14:06:58.447865,6296623,912,524,1510,-1033,-661,-279,130,184,-70
4157,7477,0,2023-03-10T14:06:58.452674,6296628,912,524,1510,-1033,-661,-279,130,184,-70
4158,7478,0,2023-03-10T14:06:58.457611,6296633,902,516,1501,-1039,-629,-215,130,184,-70
4159,7479,0,2023-03-10T14:06:58.463859,6296639,902,516,1501,-1039,-629,-215,130,184,-70
4160,7480,0,2023-03-10T14:06:58.468463,6296644,902,516,1501,-1039,-629,-215,130,184,-70
4161,7481,0,2023-03-10T14:06:58.473082,6296648,902,516,1501,-1039,-629,-215,130,184,-70
4162,7482,0,2023-03-10T14:06:58.478008,6296653,916,517,1506,-1030,-639,-269,130,184,-70
4163,7483,0,2023-03-10T14:06:58.484010,6296659,916,517,1506,-1030,-639,-269,130,184,-70
4164,7484,0,2023-03-10T14:06:58.488901,6296665,916,517,1506,-1030,-639,-269,130,184,-70
4165,7485,0,2023-03-10T14:06:58.493404,6296669,916,517,1506,-1030,-639,-269,130,184,-70
4166,7486,0,2023-03-10T14:06:58.498003,6296674,915,520,1494,-1044,-659,-273,130,184,-70
4167,7487,0,2023-03-10T14:06:58.503864,6296679,915,520,1494,-1044,-659,-273,130,184,-70
4168,7488,0,2023-03-10T14:06:58.509029,6296684,915,520,1494,-1044,-659,-273,130,184,-70
4169,7489,0,2023-03-10T14:06:58.514122,6296689,905,514,1513,-1022,-606,-230,130,184,-70
4170,7490,0,2023-03-10T14:06:58.519975,6296695,905,514,1513,-1022,-606,-230,130,184,-70
4171,7491,0,2023-03-10T14:06:58.524521,6296699,905,514,1513,-1022,-606,-230,130,184,-70
4172,7492,0,2023-03-10T14:06:58.529246,6296705,905,514,1513,-1022,-606,-230,130,184,-70
4173,7493,0,2023-03-10T14:06:58.534816,6296710,918,519,1506,-1027,-650,-286,130,184,-70
4174,7494,0,2023-03-10T14:06:58.540323,6296716,918,519,1506,-1027,-650,-286,130,184,-70
4175,7495,0,2023-03-10T14:06:58.546324,6296722,918,519,1506,-1027,-650,-286,130,184,-70
4176,7496,0,2023-03-10T14:06:58.551039,6296726,918,519,1506,-1027,-650,-286,130,184,-70
4177,7497,0,2023-03-10T14:06:58.555935,6296731,910,519,1508,-1046,-621,-263,120,180,-70
4178,7498,0,2023-03-10T14:06:58.561274,6296737,910,519,1508,-1046,-621,-263,120,180,-70
4179,7499,0,2023-03-10T14:06:58.566147,6296741,910,519,1508,-1046,-621,-263,120,180,-70
4180,7500,0,2023-03-10T14:06:58.570828,6296747,910,519,1508,-1046,-621,-263,120,180,-70
4181,7501,0,2023-03-10T14:06:58.575407,6296751,911,516,1505,-1033,-641,-262,120,180,-70
4182,7502,0,2023-03-10T14:06:58.581285,6296757,911,516,1505,-1033,-641,-262,120,180,-70
4183,7503,0,2023-03-10T14:06:58.586246,6296761,911,516,1505,-1033,-641,-262,120,180,-70
4184,7504,0,2023-03-10T14:06:58.591304,6296767,911,516,1505,-1033,-641,-262,120,180,-70
4185,7505,0,2023-03-10T14:06:58.595937,6296771,908,515,1495,-1045,-647,-251,120,180,-70
4186,7506,0,2023-03-10T14:06:58.601717,6296777,908,515,1495,-1045,-647,-251,120,180,-70
4187,7507,0,2023-03-10T14:06:58.606542,6296781,908,515,1495,-1045,-647,-251,120,180,-70
4188,7508,0,2023-03-10T14:06:58.611099,6296786,908,515,1495,-1045,-647,-251,120,180,-70
4189,7509,0,2023-03-10T14:06:58.615776,6296792,908,516,1510,-1029,-612,-260,120,180,-70
4190,7510,0,2023-03-10T14:06:58.621438,6296797,908,516,1510,-1029,-612,-260,120,180,-70
4191,7511,0,2023-03-10T14:06:58.625990,6296802,908,516,1510,-1029,-612,-260,120,180,-70
4192,7512,0,2023-03-10T14:06:58.630562,6296806,908,516,1510,-1029,-612,-260,120,180,-70
4193,7513,0,2023-03-10T14:06:58.635356,6296811,924,526,1498,-1023,-669,-275,120,180,-70
4194,7514,0,2023-03-10T14:06:58.640860,6296816,924,526,1498,-1023,-669,-275,120,180,-70
4195,7515,0,2023-03-10T14:06:58.645702,6296821,924,526,1498,-1023,-669,-275,120,180,-70
4196,7516,0,2023-03-10T14:06:58.650191,6296825,924,526,1498,-1023,-669,-275,120,180,-70
4197,7517,0,2023-03-10T14:06:58.654691,6296830,906,512,1507,-1021,-617,-199,120,180,-70
4198,7518,0,2023-03-10T14:06:58.660626,6296836,906,512,1507,-1021,-617,-199,120,180,-70
4199,7519,0,2023-03-10T14:06:58.665343,6296841,906,512,1507,-1021,-617,-199,120,180,-70
4200,7520,0,2023-03-10T14:06:58.670042,6296845,906,512,1507,-1021,-617,-199,120,180,-70
4201,7521,0,2023-03-10T14:06:58.674527,6296850,915,517,1503,-1030,-634,-267,124,178,-64
4202,7522,0,2023-03-10T14:06:58.679664,6296855,915,517,1503,-1030,-634,-267,124,178,-64
4203,7523,0,2023-03-10T14:06:58.684334,6296860,915,517,1503,-1030,-634,-267,124,178,-64
4204,7524,0,2023-03-10T14:06:58.689900,6296865,915,517,1503,-1030,-634,-267,124,178,-64
4205,7525,0,2023-03-10T14:06:58.694556,6296870,913,516,1504,-1043,-658,-274,124,178,-64
4206,7526,0,2023-03-10T14:06:58.700136,6296876,913,516,1504,-1043,-658,-274,124,178,-64
4207,7527,0,2023-03-10T14:06:58.704963,6296880,913,516,1504,-1043,-658,-274,124,178,-64
4208,7528,0,2023-03-10T14:06:58.709988,6296885,913,516,1504,-1043,-658,-274,124,178,-64
4209,7529,0,2023-03-10T14:06:58.715185,6296890,916,518,1512,-1034,-616,-255,124,178,-64
4210,7530,0,2023-03-10T14:06:58.721220,6296896,916,518,1512,-1034,-616,-255,124,178,-64
4211,7531,0,2023-03-10T14:06:58.726143,6296901,916,518,1512,-1034,-616,-255,124,178,-64
4212,7532,0,2023-03-10T14:06:58.730771,6296906,916,518,1512,-1034,-616,-255,124,178,-64
4213,7533,0,2023-03-10T14:06:58.735650,6296910,912,517,1498,-1037,-678,-260,124,178,-64
4214,7534,0,2023-03-10T14:06:58.741470,6296916,912,517,1498,-1037,-678,-260,124,178,-64
4215,7535,0,2023-03-10T14:06:58.746580,6296922,912,517,1498,-1037,-678,-260,124,178,-64
4216,7536,0,2023-03-10T14:06:58.751351,6296927,912,517,1498,-1037,-678,-260,124,178,-64
4217,7537,0,2023-03-10T14:06:58.756295,6296932,919,525,1513,-1033,-606,-255,124,178,-64
4218,7538,0,2023-03-10T14:06:58.762257,6296938,919,525,1513,-1033,-606,-255,124,178,-64
4219,7539,0,2023-03-10T14:06:58.767893,6296943,919,525,1513,-1033,-606,-255,124,178,-64
4220,7540,0,2023-03-10T14:06:58.772577,6296948,919,525,1513,-1033,-606,-255,124,178,-64
4221,7541,0,2023-03-10T14:06:58.777714,6296952,910,516,1502,-1022,-652,-231,124,178,-64
4222,7542,0,2023-03-10T14:06:58.783614,6296958,910,516,1502,-1022,-652,-231,124,178,-64
4223,7543,0,2023-03-10T14:06:58.789104,6296965,910,516,1502,-1022,-652,-231,124,178,-64
4224,7544,0,2023-03-10T14:06:58.794077,6296970,910,516,1502,-1022,-652,-231,124,178,-64
4225,7545,0,2023-03-10T14:06:58.799022,6296974,909,520,1494,-1037,-640,-277,124,178,-64
4226,7546,0,2023-03-10T14:06:58.804760,6296980,909,520,1494,-1037,-640,-277,124,178,-64
4227,7547,0,2023-03-10T14:06:58.809555,6296985,909,520,1494,-1037,-640,-277,124,178,-64
4228,7548,0,2023-03-10T14:06:58.814297,6296989,920,516,1506,-1048,-620,-258,117,175,-64
4229,7549,0,2023-03-10T14:06:58.819917,6296995,920,516,1506,-1048,-620,-258,117,175,-67
4230,7550,0,2023-03-10T14:06:58.825170,6297000,920,516,1506,-1048,-620,-258,117,175,-67
4231,7551,0,2023-03-10T14:06:58.829565,6297005,920,516,1506,-1048,-620,-258,117,175,-67
4232,7552,0,2023-03-10T14:06:58.834084,6297010,920,516,1506,-1048,-620,-258,117,175,-67
4233,7553,0,2023-03-10T14:06:58.838748,6297014,909,518,1504,-1025,-658,-253,117,175,-67
4234,7554,0,2023-03-10T14:06:58.843788,6297019,909,518,1504,-1025,-658,-253,117,175,-67
4235,7555,0,2023-03-10T14:06:58.848467,6297024,909,518,1504,-1025,-658,-253,117,175,-67
4236,7556,0,2023-03-10T14:06:58.852802,6297028,909,518,1504,-1025,-658,-253,117,175,-67
4237,7557,0,2023-03-10T14:06:58.857506,6297033,920,519,1506,-1051,-598,-263,117,175,-67
4238,7558,0,2023-03-10T14:06:58.862418,6297038,920,519,1506,-1051,-598,-263,117,175,-67
4239,7559,0,2023-03-10T14:06:58.867157,6297042,920,519,1506,-1051,-598,-263,117,175,-67
4240,7560,0,2023-03-10T14:06:58.871825,6297048,920,519,1506,-1051,-598,-263,117,175,-67
4241,7561,0,2023-03-10T14:06:58.876392,6297052,920,520,1505,-1019,-640,-270,117,175,-67
4242,7562,0,2023-03-10T14:06:58.881747,6297058,920,520,1505,-1019,-640,-270,117,175,-67
4243,7563,0,2023-03-10T14:06:58.886165,6297062,920,520,1505,-1019,-640,-270,117,175,-67
4244,7564,0,2023-03-10T14:06:58.890761,6297066,920,520,1505,-1019,-640,-270,117,175,-67
4245,7565,0,2023-03-10T14:06:58.895066,6297071,909,517,1496,-1040,-626,-244,117,175,-67
4246,7566,0,2023-03-10T14:06:58.900436,6297076,909,517,1496,-1040,-626,-244,117,175,-67
4247,7567,0,2023-03-10T14:06:58.904816,6297080,909,517,1496,-1040,-626,-244,117,175,-67
4248,7568,0,2023-03-10T14:06:58.909228,6297084,909,517,1496,-1040,-626,-244,117,175,-67
4249,7569,0,2023-03-10T14:06:58.913837,6297090,909,517,1496,-1040,-626,-244,117,175,-67
4250,7570,0,2023-03-10T14:06:58.918374,6297094,907,509,1507,-1029,-616,-224,117,175,-67
4251,7571,0,2023-03-10T14:06:58.923785,6297099,907,509,1507,-1029,-616,-224,117,175,-67
4252,7572,0,2023-03-10T14:06:58.928752,6297104,907,509,1507,-1029,-616,-224,117,175,-67
4253,7573,0,2023-03-10T14:06:58.933369,6297109,907,509,1507,-1029,-616,-224,117,175,-67
4254,7574,0,2023-03-10T14:06:58.937849,6297113,923,521,1506,-1039,-662,-288,127,181,-69
4255,7575,0,2023-03-10T14:06:58.943258,6297119,923,521,1506,-1039,-662,-288,127,181,-69
4256,7576,0,2023-03-10T14:06:58.947594,6297123,923,521,1506,-1039,-662,-288,127,181,-69
4257,7577,0,2023-03-10T14:06:58.952072,6297127,923,521,1506,-1039,-662,-288,127,181,-69
4258,7578,0,2023-03-10T14:06:58.956630,6297133,925,521,1500,-1042,-621,-254,127,181,-69
4259,7579,0,2023-03-10T14:06:58.962106,6297138,925,521,1500,-1042,-621,-254,127,181,-69
4260,7580,0,2023-03-10T14:06:58.966659,6297142,925,521,1500,-1042,-621,-254,127,181,-69
4261,7581,0,2023-03-10T14:06:58.971041,6297147,925,521,1500,-1042,-621,-254,127,181,-69
4262,7582,0,2023-03-10T14:06:58.975564,6297151,921,522,1500,-1019,-642,-256,127,181,-69
4263,7583,0,2023-03-10T14:06:58.981333,6297156,921,522,1500,-1019,-642,-256,127,181,-69
4264,7584,0,2023-03-10T14:06:58.985885,6297161,921,522,1500,-1019,-642,-256,127,181,-69
4265,7585,0,2023-03-10T14:06:58.990579,6297165,921,522,1500,-1019,-642,-256,127,181,-69
4266,7586,0,2023-03-10T14:06:58.995180,6297170,915,515,1496,-1048,-631,-262,127,181,-69
4267,7587,0,2023-03-10T14:06:59.001216,6297177,915,515,1496,-1048,-631,-262,127,181,-69
4268,7588,0,2023-03-10T14:06:59.006448,6297182,915,515,1496,-1048,-631,-262,127,181,-69
4269,7589,0,2023-03-10T14:06:59.010981,6297187,915,515,1496,-1048,-631,-262,127,181,-69
4270,7590,0,2023-03-10T14:06:59.015607,6297191,916,512,1508,-1030,-614,-281,127,181,-69
4271,7591,0,2023-03-10T14:06:59.021244,6297197,916,512,1508,-1030,-614,-281,127,181,-69
4272,7592,0,2023-03-10T14:06:59.025602,6297201,916,512,1508,-1030,-614,-281,127,181,-69
4273,7593,0,2023-03-10T14:06:59.030148,6297205,916,512,1508,-1030,-614,-281,127,181,-69
4274,7594,0,2023-03-10T14:06:59.034601,6297210,918,520,1501,-1033,-660,-241,127,181,-69
4275,7595,0,2023-03-10T14:06:59.039999,6297216,918,520,1501,-1033,-660,-241,127,181,-69
4276,7596,0,2023-03-10T14:06:59.044745,6297221,918,520,1501,-1033,-660,-241,127,181,-69
4277,7597,0,2023-03-10T14:06:59.049518,6297225,918,520,1501,-1033,-660,-241,127,181,-69
4278,7598,0,2023-03-10T14:06:59.054070,6297230,918,520,1501,-1033,-660,-241,127,181,-69
4279,7599,0,2023-03-10T14:06:59.058676,6297234,908,516,1512,-1013,-602,-213,127,181,-69
4280,7600,0,2023-03-10T14:06:59.063943,6297240,908,516,1512,-1013,-602,-213,127,181,-69
4281,7601,0,2023-03-10T14:06:59.068490,6297244,908,516,1512,-1013,-602,-213,127,181,-69
4282,7602,0,2023-03-10T14:06:59.072897,6297248,908,516,1512,-1013,-602,-213,127,181,-69
4283,7603,0,2023-03-10T14:06:59.077310,6297253,928,520,1506,-1038,-661,-282,116,176,-68
4284,7604,0,2023-03-10T14:06:59.082753,6297257,928,520,1506,-1038,-661,-282,116,176,-68
4285,7605,0,2023-03-10T14:06:59.088242,6297264,928,520,1506,-1038,-661,-282,116,176,-68
4286,7606,0,2023-03-10T14:06:59.093730,6297269,928,520,1506,-1038,-661,-282,116,176,-68
4287,7607,0,2023-03-10T14:06:59.098340,6297274,926,519,1491,-1042,-646,-257,116,176,-68
4288,7608,0,2023-03-10T14:06:59.103933,6297279,926,519,1491,-1042,-646,-257,116,176,-68
4289,7609,0,2023-03-10T14:06:59.108328,6297284,926,519,1491,-1042,-646,-257,116,176,-68
4290,7610,0,2023-03-10T14:06:59.113098,6297288,926,519,1491,-1042,-646,-257,116,176,-68
4291,7611,0,2023-03-10T14:06:59.117837,6297293,919,510,1508,-1021,-612,-250,116,176,-68
4292,7612,0,2023-03-10T14:06:59.123218,6297298,919,510,1508,-1021,-612,-250,116,176,-68
4293,7613,0,2023-03-10T14:06:59.128643,6297304,919,510,1508,-1021,-612,-250,116,176,-68
4294,7614,0,2023-03-10T14:06:59.133475,6297309,919,510,1508,-1021,-612,-250,116,176,-68
4295,7615,0,2023-03-10T14:06:59.138060,6297314,918,523,1500,-1037,-643,-278,116,176,-68
4296,7616,0,2023-03-10T14:06:59.142447,6297318,918,523,1500,-1037,-643,-278,116,176,-68
4297,7617,0,2023-03-10T14:06:59.147405,6297323,918,523,1500,-1037,-643,-278,116,176,-68
4298,7618,0,2023-03-10T14:06:59.152329,6297327,918,523,1500,-1037,-643,-278,116,176,-68
4299,7619,0,2023-03-10T14:06:59.156909,6297332,914,515,1507,-1045,-598,-251,116,176,-68
4300,7620,0,2023-03-10T14:06:59.162777,6297338,914,515,1507,-1045,-598,-251,116,176,-68
4301,7621,0,2023-03-10T14:06:59.167662,6297342,914,515,1507,-1045,-598,-251,116,176,-68
4302,7622,0,2023-03-10T14:06:59.172328,6297348,914,515,1507,-1045,-598,-251,116,176,-68
4303,7623,0,2023-03-10T14:06:59.177010,6297353,923,517,1506,-1029,-665,-271,116,176,-68
4304,7624,0,2023-03-10T14:06:59.182478,6297358,923,517,1506,-1029,-665,-271,116,176,-68
4305,7625,0,2023-03-10T14:06:59.186874,6297363,923,517,1506,-1029,-665,-271,116,176,-68
4306,7626,0,2023-03-10T14:06:59.191715,6297367,923,517,1506,-1029,-665,-271,116,176,-68
4307,7627,0,2023-03-10T14:06:59.196482,6297372,919,511,1496,-1044,-637,-251,125,175,-65
4308,7628,0,2023-03-10T14:06:59.202210,6297377,919,511,1496,-1044,-637,-251,125,175,-65
4309,7629,0,2023-03-10T14:06:59.206741,6297382,919,511,1496,-1044,-637,-251,125,175,-65
4310,7630,0,2023-03-10T14:06:59.211722,6297387,919,511,1496,-1044,-637,-251,125,175,-65
4311,7631,0,2023-03-10T14:06:59.216270,6297392,925,518,1507,-1029,-626,-266,125,175,-65
4312,7632,0,2023-03-10T14:06:59.221246,6297397,925,518,1507,-1029,-626,-266,125,175,-65
4313,7633,0,2023-03-10T14:06:59.225664,6297401,925,518,1507,-1029,-626,-266,125,175,-65
4314,7634,0,2023-03-10T14:06:59.230439,6297406,925,518,1507,-1029,-626,-266,125,175,-65
4315,7635,0,2023-03-10T14:06:59.235147,6297411,920,515,1496,-1022,-654,-215,125,175,-65
4316,7636,0,2023-03-10T14:06:59.240649,6297416,920,515,1496,-1022,-654,-215,125,175,-65
4317,7637,0,2023-03-10T14:06:59.245157,6297420,920,515,1496,-1022,-654,-215,125,175,-65
4318,7638,0,2023-03-10T14:06:59.249522,6297425,920,515,1496,-1022,-654,-215,125,175,-65
4319,7639,0,2023-03-10T14:06:59.253996,6297430,920,515,1496,-1022,-654,-215,125,175,-65
4320,7640,0,2023-03-10T14:06:59.258467,6297434,918,507,1507,-1007,-608,-219,125,175,-65
4321,7641,0,2023-03-10T14:06:59.264047,6297440,918,507,1507,-1007,-608,-219,125,175,-65
4322,7642,0,2023-03-10T14:06:59.268429,6297444,918,507,1507,-1007,-608,-219,125,175,-65
4323,7643,0,2023-03-10T14:06:59.272810,6297448,918,507,1507,-1007,-608,-219,125,175,-65
4324,7644,0,2023-03-10T14:06:59.277330,6297453,932,522,1502,-1037,-656,-292,125,175,-65
4325,7645,0,2023-03-10T14:06:59.282573,6297458,932,522,1502,-1037,-656,-292,125,175,-65
4326,7646,0,2023-03-10T14:06:59.286982,6297462,932,522,1502,-1037,-656,-292,125,175,-65
4327,7647,0,2023-03-10T14:06:59.291408,6297467,932,522,1502,-1037,-656,-292,125,175,-65
4328,7648,0,2023-03-10T14:06:59.295958,6297472,926,516,1495,-1054,-632,-258,125,175,-65
4329,7649,0,2023-03-10T14:06:59.301379,6297477,926,516,1495,-1054,-632,-258,125,175,-65
4330,7650,0,2023-03-10T14:06:59.305988,6297482,926,516,1495,-1054,-632,-258,125,175,-65
4331,7651,0,2023-03-10T14:06:59.310472,6297486,926,516,1495,-1054,-632,-258,125,175,-65
4332,7652,0,2023-03-10T14:06:59.315149,6297491,921,519,1506,-1041,-624,-271,124,184,-66
4333,7653,0,2023-03-10T14:06:59.320709,6297496,921,519,1506,-1041,-624,-271,124,184,-66
4334,7654,0,2023-03-10T14:06:59.325176,6297500,921,519,1506,-1041,-624,-271,124,184,-66
4335,7655,0,2023-03-10T14:06:59.329613,6297505,921,519,1506,-1041,-624,-271,124,184,-66
4336,7656,0,2023-03-10T14:06:59.334398,6297509,921,519,1506,-1041,-624,-271,124,184,-66
4337,7657,0,2023-03-10T14:06:59.339674,6297516,921,518,1494,-1040,-661,-274,124,184,-66
4338,7658,0,2023-03-10T14:06:59.344835,6297521,921,518,1494,-1040,-661,-274,124,184,-66
4339,7659,0,2023-03-10T14:06:59.349253,6297525,921,518,1494,-1040,-661,-274,124,184,-66
4340,7660,0,2023-03-10T14:06:59.353777,6297529,921,518,1494,-1040,-661,-274,124,184,-66
4341,7661,0,2023-03-10T14:06:59.358540,6297534,917,514,1511,-1018,-594,-223,124,184,-66
4342,7662,0,2023-03-10T14:06:59.364234,6297540,917,514,1511,-1018,-594,-223,124,184,-66
4343,7663,0,2023-03-10T14:06:59.368741,6297544,917,514,1511,-1018,-594,-223,124,184,-66
4344,7664,0,2023-03-10T14:06:59.373043,6297548,917,514,1511,-1018,-594,-223,124,184,-66
4345,7665,0,2023-03-10T14:06:59.377587,6297553,923,516,1503,-1025,-676,-251,124,184,-66
4346,7666,0,2023-03-10T14:06:59.382754,6297559,923,516,1503,-1025,-676,-251,124,184,-66
4347,7667,0,2023-03-10T14:06:59.387227,6297563,923,516,1503,-1025,-676,-251,124,184,-66
4348,7668,0,2023-03-10T14:06:59.391670,6297567,923,516,1503,-1025,-676,-251,124,184,-66
4349,7669,0,2023-03-10T14:06:59.396074,6297572,933,525,1498,-1050,-627,-268,124,184,-66
4350,7670,0,2023-03-10T14:06:59.401443,6297577,933,525,1498,-1050,-627,-268,124,184,-66
4351,7671,0,2023-03-10T14:06:59.406209,6297582,933,525,1498,-1050,-627,-268,124,184,-66
4352,7672,0,2023-03-10T14:06:59.411129,6297586,933,525,1498,-1050,-627,-268,124,184,-66
4353,7673,0,2023-03-10T14:06:59.415662,6297591,925,513,1496,-1017,-628,-220,124,184,-66
4354,7674,0,2023-03-10T14:06:59.421114,6297596,925,513,1496,-1017,-628,-220,124,184,-66
4355,7675,0,2023-03-10T14:06:59.425595,6297602,925,513,1496,-1017,-628,-220,124,184,-66
4356,7676,0,2023-03-10T14:06:59.430051,6297606,925,513,1496,-1017,-628,-220,124,184,-66
4357,7677,0,2023-03-10T14:06:59.434474,6297610,925,513,1496,-1017,-628,-220,124,184,-66
4358,7678,0,2023-03-10T14:06:59.439719,6297615,916,513,1490,-1029,-649,-258,124,184,-66
4359,7679,0,2023-03-10T14:06:59.444828,6297620,916,513,1490,-1029,-649,-258,124,184,-66
4360,7680,0,2023-03-10T14:06:59.449289,6297625,916,513,1490,-1029,-649,-258,124,184,-66
4361,7681,0,2023-03-10T14:06:59.453859,6297629,916,513,1490,-1029,-649,-258,124,184,-66
4362,7682,0,2023-03-10T14:06:59.458498,6297634,929,521,1508,-1049,-604,-290,125,177,-69
4363,7683,0,2023-03-10T14:06:59.463998,6297639,929,521,1508,-1049,-604,-290,125,177,-69
4364,7684,0,2023-03-10T14:06:59.469031,6297645,929,521,1508,-1049,-604,-290,125,177,-69
4365,7685,0,2023-03-10T14:06:59.473766,6297650,929,521,1508,-1049,-604,-290,125,177,-69
4366,7686,0,2023-03-10T14:06:59.478204,6297654,920,516,1496,-1017,-670,-257,125,177,-69
4367,7687,0,2023-03-10T14:06:59.483791,6297659,920,516,1496,-1017,-670,-257,125,177,-69
4368,7688,0,2023-03-10T14:06:59.488188,6297664,920,516,1496,-1017,-670,-257,125,177,-69
4369,7689,0,2023-03-10T14:06:59.492807,6297668,920,516,1496,-1017,-670,-257,125,177,-69
4370,7690,0,2023-03-10T14:06:59.497298,6297673,927,516,1500,-1040,-614,-273,125,177,-69
4371,7691,0,2023-03-10T14:06:59.502345,6297677,927,516,1500,-1040,-614,-273,125,177,-69
4372,7692,0,2023-03-10T14:06:59.506854,6297682,927,516,1500,-1040,-614,-273,125,177,-69
4373,7693,0,2023-03-10T14:06:59.511262,6297687,927,516,1500,-1040,-614,-273,125,177,-69
4374,7694,0,2023-03-10T14:06:59.515923,6297692,927,516,1500,-1040,-614,-273,125,177,-69
4375,7695,0,2023-03-10T14:06:59.520755,6297696,927,516,1500,-1040,-614,-273,125,177,-69
4376,7696,0,2023-03-10T14:06:59.525110,6297701,927,516,1500,-1040,-614,-273,125,177,-69
4377,7697,0,2023-03-10T14:06:59.529468,6297705,927,516,1500,-1040,-614,-273,125,177,-69
4378,7698,0,2023-03-10T14:06:59.533974,6297709,927,516,1500,-1040,-614,-273,125,177,-69
4379,7699,0,2023-03-10T14:06:59.538516,6297714,928,520,1490,-1040,-645,-260,125,177,-69
4380,7700,0,2023-03-10T14:06:59.543799,6297719,928,520,1490,-1040,-645,-260,125,177,-69
4381,7701,0,2023-03-10T14:06:59.548635,6297724,928,520,1490,-1040,-645,-260,125,177,-69
4382,7702,0,2023-03-10T14:06:59.553303,6297729,928,520,1490,-1040,-645,-260,125,177,-69
4383,7703,0,2023-03-10T14:06:59.557931,6297734,922,516,1506,-1030,-605,-218,125,177,-69
4384,7704,0,2023-03-10T14:06:59.562675,6297738,922,516,1506,-1030,-605,-218,125,177,-69
4385,7705,0,2023-03-10T14:06:59.567138,6297743,922,516,1506,-1030,-605,-218,125,177,-69
4386,7706,0,2023-03-10T14:06:59.572005,6297747,922,516,1506,-1030,-605,-218,125,177,-69
4387,7707,0,2023-03-10T14:06:59.576493,6297752,931,521,1501,-1023,-656,-275,127,183,-69
4388,7708,0,2023-03-10T14:06:59.581326,6297757,931,521,1501,-1023,-656,-275,127,183,-69
4389,7709,0,2023-03-10T14:06:59.585622,6297761,931,521,1501,-1023,-656,-275,127,183,-69
4390,7710,0,2023-03-10T14:06:59.590190,6297765,931,521,1501,-1023,-656,-275,127,183,-69
4391,7711,0,2023-03-10T14:06:59.594897,6297771,931,521,1501,-1023,-656,-275,127,183,-69
4392,7712,0,2023-03-10T14:06:59.599788,6297776,941,524,1493,-1057,-620,-272,127,183,-69
4393,7713,0,2023-03-10T14:06:59.604803,6297781,941,524,1493,-1057,-620,-272,127,183,-69
4394,7714,0,2023-03-10T14:06:59.609218,6297785,941,524,1493,-1057,-620,-272,127,183,-69
4395,7715,0,2023-03-10T14:06:59.614544,6297789,941,524,1493,-1057,-620,-272,127,183,-69
4396,7716,0,2023-03-10T14:06:59.619196,6297795,919,515,1506,-1014,-636,-224,127,183,-69
4397,7717,0,2023-03-10T14:06:59.624635,6297800,919,515,1506,-1014,-636,-224,127,183,-69
4398,7718,0,2023-03-10T14:06:59.629006,6297804,919,515,1506,-1014,-636,-224,127,183,-69
4399,7719,0,2023-03-10T14:06:59.633425,6297809,919,515,1506,-1014,-636,-224,127,183,-69
4400,7720,0,2023-03-10T14:06:59.637912,6297814,923,507,1496,-1039,-633,-271,127,183,-69
4401,7721,0,2023-03-10T14:06:59.643116,6297819,923,507,1496,-1039,-633,-271,127,183,-69
4402,7722,0,2023-03-10T14:06:59.647600,6297824,923,507,1496,-1039,-633,-271,127,183,-69
4403,7723,0,2023-03-10T14:06:59.652261,6297828,923,507,1496,-1039,-633,-271,127,183,-69
4404,7724,0,2023-03-10T14:06:59.656915,6297832,942,527,1500,-1038,-617,-287,127,183,-69
4405,7725,0,2023-03-10T14:06:59.662510,6297838,942,527,1500,-1038,-617,-287,127,183,-69
4406,7726,0,2023-03-10T14:06:59.666945,6297842,942,527,1500,-1038,-617,-287,127,183,-69
4407,7727,0,2023-03-10T14:06:59.671903,6297847,942,527,1500,-1038,-617,-287,127,183,-69
4408,7728,0,2023-03-10T14:06:59.676873,6297852,925,518,1504,-1022,-659,-222,127,183,-69
4409,7729,0,2023-03-10T14:06:59.682710,6297859,925,518,1504,-1022,-659,-222,127,183,-69
4410,7730,0,2023-03-10T14:06:59.687371,6297863,925,518,1504,-1022,-659,-222,127,183,-69
4411,7731,0,2023-03-10T14:06:59.691867,6297867,925,518,1504,-1022,-659,-222,127,183,-69
4412,7732,0,2023-03-10T14:06:59.696567,6297872,925,518,1504,-1022,-659,-222,127,183,-69
4413,7733,0,2023-03-10T14:06:59.701239,6297877,925,518,1504,-1022,-659,-222,127,183,-69
4414,7734,0,2023-03-10T14:06:59.706385,6297882,925,518,1504,-1022,-659,-222,127,183,-69
4415,7735,0,2023-03-10T14:06:59.710870,6297886,925,518,1504,-1022,-659,-222,127,183,-69
4416,7736,0,2023-03-10T14:06:59.715416,6297891,938,517,1503,-1044,-653,-286,127,183,-69
4417,7737,0,2023-03-10T14:06:59.720658,6297896,938,517,1503,-1044,-653,-286,127,175,-71
4418,7738,0,2023-03-10T14:06:59.725487,6297901,938,517,1503,-1044,-653,-286,127,175,-71
4419,7739,0,2023-03-10T14:06:59.730056,6297906,938,517,1503,-1044,-653,-286,127,175,-71
4420,7740,0,2023-03-10T14:06:59.734362,6297910,938,517,1503,-1044,-653,-286,127,175,-71
4421,7741,0,2023-03-10T14:06:59.739552,6297915,927,509,1494,-1037,-631,-246,127,175,-71
4422,7742,0,2023-03-10T14:06:59.744537,6297920,927,509,1494,-1037,-631,-246,127,175,-71
4423,7743,0,2023-03-10T14:06:59.749017,6297924,927,509,1494,-1037,-631,-246,127,175,-71
4424,7744,0,2023-03-10T14:06:59.753494,6297929,927,509,1494,-1037,-631,-246,127,175,-71
4425,7745,0,2023-03-10T14:06:59.757843,6297933,930,518,1510,-1030,-621,-262,127,175,-71
4426,7746,0,2023-03-10T14:06:59.763112,6297938,930,518,1510,-1030,-621,-262,127,175,-71
4427,7747,0,2023-03-10T14:06:59.767532,6297944,930,518,1510,-1030,-621,-262,127,175,-71
4428,7748,0,2023-03-10T14:06:59.771989,6297948,930,518,1510,-1030,-621,-262,127,175,-71
4429,7749,0,2023-03-10T14:06:59.776358,6297952,935,523,1506,-1020,-652,-264,127,175,-71
4430,7750,0,2023-03-10T14:06:59.780863,6297957,935,523,1506,-1020,-652,-264,127,175,-71
4431,7751,0,2023-03-10T14:06:59.785457,6297961,935,523,1506,-1020,-652,-264,127,175,-71
4432,7752,0,2023-03-10T14:06:59.790165,6297966,935,523,1506,-1020,-652,-264,127,175,-71
4433,7753,0,2023-03-10T14:06:59.794827,6297970,935,523,1506,-1020,-652,-264,127,175,-71
4434,7754,0,2023-03-10T14:06:59.799787,6297975,919,514,1493,-1041,-615,-254,127,175,-71
4435,7755,0,2023-03-10T14:06:59.804806,6297980,919,514,1493,-1041,-615,-254,127,175,-71
4436,7756,0,2023-03-10T14:06:59.809285,6297985,919,514,1493,-1041,-615,-254,127,175,-71
4437,7757,0,2023-03-10T14:06:59.813588,6297990,919,514,1493,-1041,-615,-254,127,175,-71
4438,7758,0,2023-03-10T14:06:59.818310,6297994,937,519,1505,-1027,-660,-268,127,175,-71
4439,7759,0,2023-03-10T14:06:59.824242,6298000,937,519,1505,-1027,-660,-268,127,175,-71
4440,7760,0,2023-03-10T14:06:59.829413,6298005,937,519,1505,-1027,-660,-268,127,175,-71
4441,7761,0,2023-03-10T14:06:59.834155,6298010,937,519,1505,-1027,-660,-268,127,175,-71
4442,7762,0,2023-03-10T14:06:59.838841,6298014,935,519,1498,-1034,-625,-250,121,175,-69
4443,7763,0,2023-03-10T14:06:59.844711,6298020,935,519,1498,-1034,-625,-250,121,175,-69
4444,7764,0,2023-03-10T14:06:59.849615,6298024,935,519,1498,-1034,-625,-250,121,175,-69
4445,7765,0,2023-03-10T14:06:59.854216,6298030,935,519,1498,-1034,-625,-250,121,175,-69
4446,7766,0,2023-03-10T14:06:59.858918,6298035,919,505,1493,-1021,-622,-214,121,175,-69
4447,7767,0,2023-03-10T14:06:59.864652,6298040,919,505,1493,-1021,-622,-214,121,175,-69
4448,7768,0,2023-03-10T14:06:59.869025,6298045,919,505,1493,-1021,-622,-214,121,175,-69
4449,7769,0,2023-03-10T14:06:59.873949,6298049,919,505,1493,-1021,-622,-214,121,175,-69
4450,7770,0,2023-03-10T14:06:59.878606,6298054,930,516,1500,-1020,-658,-285,121,175,-69
4451,7771,0,2023-03-10T14:06:59.883981,6298059,930,516,1500,-1020,-658,-285,121,175,-69
4452,7772,0,2023-03-10T14:06:59.888441,6298064,930,516,1500,-1020,-658,-285,121,175,-69
4453,7773,0,2023-03-10T14:06:59.892901,6298068,930,516,1500,-1020,-658,-285,121,175,-69
4454,7774,0,2023-03-10T14:06:59.897857,6298074,940,520,1495,-1048,-622,-262,121,175,-69
4455,7775,0,2023-03-10T14:06:59.903321,6298079,940,520,1495,-1048,-622,-262,121,175,-69
4456,7776,0,2023-03-10T14:06:59.907886,6298084,940,520,1495,-1048,-622,-262,121,175,-69
4457,7777,0,2023-03-10T14:06:59.912239,6298088,940,520,1495,-1048,-622,-262,121,175,-69
4458,7778,0,2023-03-10T14:06:59.916724,6298092,934,520,1494,-1019,-654,-280,121,175,-69
4459,7779,0,2023-03-10T14:06:59.922309,6298098,934,520,1494,-1019,-654,-280,121,175,-69
4460,7780,0,2023-03-10T14:06:59.927094,6298102,934,520,1494,-1019,-654,-280,121,175,-69
4461,7781,0,2023-03-10T14:06:59.931639,6298107,934,520,1494,-1019,-654,-280,121,175,-69
4462,7782,0,2023-03-10T14:06:59.936124,6298112,933,519,1485,-1051,-628,-255,121,175,-69
4463,7783,0,2023-03-10T14:06:59.941189,6298117,933,519,1485,-1051,-628,-255,121,175,-69
4464,7784,0,2023-03-10T14:06:59.945538,6298121,933,519,1485,-1051,-628,-255,121,175,-69
4465,7785,0,2023-03-10T14:06:59.950294,6298126,933,519,1485,-1051,-628,-255,121,175,-69
4466,7786,0,2023-03-10T14:06:59.955148,6298131,933,519,1485,-1051,-628,-255,121,175,-69
4467,7787,0,2023-03-10T14:06:59.960533,6298136,924,508,1506,-1016,-612,-235,121,175,-69
4468,7788,0,2023-03-10T14:06:59.965517,6298141,924,508,1506,-1016,-612,-235,121,175,-69
4469,7789,0,2023-03-10T14:06:59.969978,6298145,924,508,1506,-1016,-612,-235,121,175,-69
4470,7790,0,2023-03-10T14:06:59.974562,6298150,924,508,1506,-1016,-612,-235,121,175,-69
4471,7791,0,2023-03-10T14:06:59.979083,6298155,931,515,1499,-1046,-653,-290,123,177,-61
4472,7792,0,2023-03-10T14:06:59.984836,6298161,931,515,1499,-1046,-653,-290,123,177,-61
4473,7793,0,2023-03-10T14:06:59.989595,6298165,931,515,1499,-1046,-653,-290,123,177,-61
4474,7794,0,2023-03-10T14:06:59.993875,6298170,931,515,1499,-1046,-653,-290,123,177,-61
4475,7795,0,2023-03-10T14:06:59.998668,6298174,933,517,1500,-1038,-613,-259,123,177,-61
4476,7796,0,2023-03-10T14:07:00.004234,6298180,933,517,1500,-1038,-613,-259,123,177,-61
4477,7797,0,2023-03-10T14:07:00.009067,6298184,933,517,1500,-1038,-613,-259,123,177,-61
4478,7798,0,2023-03-10T14:07:00.013772,6298189,933,517,1500,-1038,-613,-259,123,177,-61
4479,7799,0,2023-03-10T14:07:00.018533,6298194,938,518,1500,-1020,-644,-254,123,177,-61
4480,7800,0,2023-03-10T14:07:00.024296,6298200,938,518,1500,-1020,-644,-254,123,177,-61
4481,7801,0,2023-03-10T14:07:00.028665,6298205,938,518,1500,-1020,-644,-254,123,177,-61
4482,7802,0,2023-03-10T14:07:00.033116,6298209,938,518,1500,-1020,-644,-254,123,177,-61
4483,7803,0,2023-03-10T14:07:00.037692,6298213,938,514,1486,-1049,-623,-274,123,177,-61
4484,7804,0,2023-03-10T14:07:00.042834,6298218,938,514,1486,-1049,-623,-274,123,177,-61
4485,7805,0,2023-03-10T14:07:00.047992,6298223,938,514,1486,-1049,-623,-274,123,177,-61
4486,7806,0,2023-03-10T14:07:00.052586,6298228,938,514,1486,-1049,-623,-274,123,177,-61
4487,7807,0,2023-03-10T14:07:00.057048,6298232,931,515,1502,-1022,-612,-259,123,177,-61
4488,7808,0,2023-03-10T14:07:00.062706,6298238,931,515,1502,-1022,-612,-259,123,177,-61
4489,7809,0,2023-03-10T14:07:00.067104,6298243,931,515,1502,-1022,-612,-259,123,177,-61
4490,7810,0,2023-03-10T14:07:00.072047,6298248,931,515,1502,-1022,-612,-259,123,177,-61
4491,7811,0,2023-03-10T14:07:00.076794,6298253,933,518,1490,-1043,-654,-270,123,177,-61
4492,7812,0,2023-03-10T14:07:00.082157,6298258,933,518,1490,-1043,-654,-270,123,177,-61
4493,7813,0,2023-03-10T14:07:00.086787,6298262,933,518,1490,-1043,-654,-270,123,177,-61
4494,7814,0,2023-03-10T14:07:00.091256,6298267,933,518,1490,-1043,-654,-270,123,177,-61
4495,7815,0,2023-03-10T14:07:00.095738,6298271,936,513,1504,-1040,-608,-238,123,177,-61
4496,7816,0,2023-03-10T14:07:00.101078,6298276,936,513,1504,-1040,-608,-238,117,175,-61
4497,7817,0,2023-03-10T14:07:00.105563,6298281,936,513,1504,-1040,-608,-238,117,175,-61
4498,7818,0,2023-03-10T14:07:00.110285,6298286,936,513,1504,-1040,-608,-238,117,175,-61
4499,7819,0,2023-03-10T14:07:00.114796,6298291,936,513,1504,-1040,-608,-238,117,175,-61
4500,7820,0,2023-03-10T14:07:00.119208,6298295,930,514,1499,-1001,-666,-241,117,175,-61
4501,7821,0,2023-03-10T14:07:00.124381,6298300,930,514,1499,-1001,-666,-241,117,175,-61
4502,7822,0,2023-03-10T14:07:00.128935,6298304,930,514,1499,-1001,-666,-241,117,175,-61
4503,7823,0,2023-03-10T14:07:00.133711,6298309,930,514,1499,-1001,-666,-241,117,175,-61
4504,7824,0,2023-03-10T14:07:00.138887,6298314,942,521,1483,-1044,-629,-285,117,175,-61
4505,7825,0,2023-03-10T14:07:00.144826,6298320,942,521,1483,-1044,-629,-285,117,175,-61
4506,7826,0,2023-03-10T14:07:00.149246,6298324,942,521,1483,-1044,-629,-285,117,175,-61
4507,7827,0,2023-03-10T14:07:00.154877,6298330,942,521,1483,-1044,-629,-285,117,175,-61
4508,7828,0,2023-03-10T14:07:00.159215,6298335,940,514,1493,-1022,-612,-234,117,175,-61
4509,7829,0,2023-03-10T14:07:00.163922,6298339,940,514,1493,-1022,-612,-234,117,175,-61
4510,7830,0,2023-03-10T14:07:00.169056,6298345,940,514,1493,-1022,-612,-234,117,175,-61
4511,7831,0,2023-03-10T14:07:00.174057,6298349,940,514,1493,-1022,-612,-234,117,175,-61
4512,7832,0,2023-03-10T14:07:00.178959,6298354,928,516,1504,-1017,-636,-238,117,175,-61
4513,7833,0,2023-03-10T14:07:00.184944,6298360,928,516,1504,-1017,-636,-238,117,175,-61
4514,7834,0,2023-03-10T14:07:00.190012,6298365,928,516,1504,-1017,-636,-238,117,175,-61
4515,7835,0,2023-03-10T14:07:00.194959,6298371,928,516,1504,-1017,-636,-238,117,175,-61
4516,7836,0,2023-03-10T14:07:00.200167,6298376,946,525,1499,-1048,-631,-304,117,175,-61
4517,7837,0,2023-03-10T14:07:00.205419,6298381,946,525,1499,-1048,-631,-304,117,175,-61
4518,7838,0,2023-03-10T14:07:00.210343,6298386,946,525,1499,-1048,-631,-304,117,175,-61
4519,7839,0,2023-03-10T14:07:00.214711,6298390,946,525,1499,-1048,-631,-304,117,175,-61
4520,7840,0,2023-03-10T14:07:00.220071,6298395,934,522,1492,-1037,-640,-259,124,180,-68
4521,7841,0,2023-03-10T14:07:00.225587,6298401,934,522,1492,-1037,-640,-259,124,180,-68
4522,7842,0,2023-03-10T14:07:00.231091,6298406,934,522,1492,-1037,-640,-259,124,180,-68
4523,7843,0,2023-03-10T14:07:00.235717,6298412,934,522,1492,-1037,-640,-259,124,180,-68
4524,7844,0,2023-03-10T14:07:00.240946,6298417,927,514,1487,-1042,-631,-266,124,180,-68
4525,7845,0,2023-03-10T14:07:00.246215,6298422,927,514,1487,-1042,-631,-266,124,180,-68
4526,7846,0,2023-03-10T14:07:00.251096,6298427,927,514,1487,-1042,-631,-266,124,180,-68
4527,7847,0,2023-03-10T14:07:00.255682,6298431,927,514,1487,-1042,-631,-266,124,180,-68
4528,7848,0,2023-03-10T14:07:00.260944,6298436,929,506,1497,-1045,-633,-254,124,180,-68
4529,7849,0,2023-03-10T14:07:00.266336,6298442,929,506,1497,-1045,-633,-254,124,180,-68
4530,7850,0,2023-03-10T14:07:00.270747,6298446,929,506,1497,-1045,-633,-254,124,180,-68
4531,7851,0,2023-03-10T14:07:00.275415,6298450,929,506,1497,-1045,-633,-254,124,180,-68
4532,7852,0,2023-03-10T14:07:00.280483,6298456,941,522,1497,-1021,-649,-274,124,180,-68
4533,7853,0,2023-03-10T14:07:00.285400,6298461,941,522,1497,-1021,-649,-274,124,180,-68
4534,7854,0,2023-03-10T14:07:00.289732,6298466,941,522,1497,-1021,-649,-274,124,180,-68
4535,7855,0,2023-03-10T14:07:00.294250,6298470,941,522,1497,-1021,-649,-274,124,180,-68
4536,7856,0,2023-03-10T14:07:00.298687,6298474,932,518,1491,-1036,-616,-216,124,180,-68
4537,7857,0,2023-03-10T14:07:00.303084,6298479,932,518,1491,-1036,-616,-216,124,180,-68
4538,7858,0,2023-03-10T14:07:00.307585,6298483,932,518,1491,-1036,-616,-216,124,180,-68
4539,7859,0,2023-03-10T14:07:00.312312,6298488,932,518,1491,-1036,-616,-216,124,180,-68
4540,7860,0,2023-03-10T14:07:00.316824,6298492,928,513,1494,-1006,-652,-232,124,180,-68
4541,7861,0,2023-03-10T14:07:00.322453,6298498,928,513,1494,-1006,-652,-232,124,180,-68
4542,7862,0,2023-03-10T14:07:00.326955,6298503,928,513,1494,-1006,-652,-232,124,180,-68
4543,7863,0,2023-03-10T14:07:00.331542,6298507,928,513,1494,-1006,-652,-232,124,180,-68
4544,7864,0,2023-03-10T14:07:00.336366,6298512,950,514,1499,-1041,-621,-293,124,180,-68
4545,7865,0,2023-03-10T14:07:00.341067,6298517,950,514,1499,-1041,-621,-293,124,180,-68
4546,7866,0,2023-03-10T14:07:00.345555,6298521,950,514,1499,-1041,-621,-293,124,180,-68
4547,7867,0,2023-03-10T14:07:00.350013,6298525,950,514,1499,-1041,-621,-293,124,180,-68
4548,7868,0,2023-03-10T14:07:00.354462,6298530,950,514,1499,-1041,-621,-293,124,180,-68
4549,7869,0,2023-03-10T14:07:00.359187,6298534,940,513,1488,-1031,-630,-266,121,175,-67
4550,7870,0,2023-03-10T14:07:00.364570,6298541,940,513,1488,-1031,-630,-266,121,175,-67
4551,7871,0,2023-03-10T14:07:00.369200,6298545,940,513,1488,-1031,-630,-266,121,175,-67
4552,7872,0,2023-03-10T14:07:00.373857,6298550,940,513,1488,-1031,-630,-266,121,175,-67
4553,7873,0,2023-03-10T14:07:00.378416,6298554,933,511,1501,-1023,-622,-250,121,175,-67
4554,7874,0,2023-03-10T14:07:00.383540,6298559,933,511,1501,-1023,-622,-250,121,175,-67
4555,7875,0,2023-03-10T14:07:00.387866,6298563,933,511,1501,-1023,-622,-250,121,175,-67
4556,7876,0,2023-03-10T14:07:00.392356,6298568,933,511,1501,-1023,-622,-250,121,175,-67
4557,7877,0,2023-03-10T14:07:00.396767,6298572,951,524,1500,-1041,-622,-288,121,175,-67
4558,7878,0,2023-03-10T14:07:00.402384,6298578,951,524,1500,-1041,-622,-288,121,175,-67
4559,7879,0,2023-03-10T14:07:00.406974,6298583,951,524,1500,-1041,-622,-288,121,175,-67
4560,7880,0,2023-03-10T14:07:00.411531,6298587,951,524,1500,-1041,-622,-288,121,175,-67
4561,7881,0,2023-03-10T14:07:00.416341,6298592,951,524,1500,-1041,-622,-288,121,175,-67
4562,7882,0,2023-03-10T14:07:00.421356,6298597,938,520,1490,-1022,-634,-229,121,175,-67
4563,7883,0,2023-03-10T14:07:00.426787,6298602,938,520,1490,-1022,-634,-229,121,175,-67
4564,7884,0,2023-03-10T14:07:00.431535,6298607,938,520,1490,-1022,-634,-229,121,175,-67
4565,7885,0,2023-03-10T14:07:00.436061,6298611,938,520,1490,-1022,-634,-229,121,175,-67
4566,7886,0,2023-03-10T14:07:00.441093,6298616,927,514,1491,-1028,-631,-221,121,175,-67
4567,7887,0,2023-03-10T14:07:00.446255,6298621,927,514,1491,-1028,-631,-221,121,175,-67
4568,7888,0,2023-03-10T14:07:00.450721,6298627,927,514,1491,-1028,-631,-221,121,175,-67
4569,7889,0,2023-03-10T14:07:00.455326,6298631,927,514,1491,-1028,-631,-221,121,175,-67
4570,7890,0,2023-03-10T14:07:00.460522,6298636,962,521,1497,-1044,-649,-289,121,175,-67
4571,7891,0,2023-03-10T14:07:00.465170,6298641,962,521,1497,-1044,-649,-289,121,175,-67
4572,7892,0,2023-03-10T14:07:00.469715,6298645,962,521,1497,-1044,-649,-289,121,175,-67
4573,7893,0,2023-03-10T14:07:00.474201,6298650,962,521,1497,-1044,-649,-289,121,175,-67
4574,7894,0,2023-03-10T14:07:00.478635,6298654,937,511,1480,-1035,-638,-244,129,173,-59
4575,7895,0,2023-03-10T14:07:00.483606,6298659,937,511,1480,-1035,-638,-244,129,173,-59
4576,7896,0,2023-03-10T14:07:00.488134,6298663,937,511,1480,-1035,-638,-244,129,173,-59
4577,7897,0,2023-03-10T14:07:00.492753,6298669,937,511,1480,-1035,-638,-244,129,173,-59
4578,7898,0,2023-03-10T14:07:00.497198,6298673,945,509,1493,-1030,-621,-245,129,173,-59
4579,7899,0,2023-03-10T14:07:00.502293,6298678,945,509,1493,-1030,-621,-245,129,173,-59
4580,7900,0,2023-03-10T14:07:00.506872,6298683,945,509,1493,-1030,-621,-245,129,173,-59
4581,7901,0,2023-03-10T14:07:00.511341,6298687,945,509,1493,-1030,-621,-245,129,173,-59
4582,7902,0,2023-03-10T14:07:00.516144,6298692,945,509,1493,-1030,-621,-245,129,173,-59
4583,7903,0,2023-03-10T14:07:00.520978,6298696,954,526,1502,-1020,-638,-280,129,173,-59
4584,7904,0,2023-03-10T14:07:00.526235,6298701,954,526,1502,-1020,-638,-280,129,173,-59
4585,7905,0,2023-03-10T14:07:00.530686,6298706,954,526,1502,-1020,-638,-280,129,173,-59
4586,7906,0,2023-03-10T14:07:00.535311,6298711,954,526,1502,-1020,-638,-280,129,173,-59
4587,7907,0,2023-03-10T14:07:00.540538,6298716,935,520,1488,-1033,-631,-219,129,173,-59
4588,7908,0,2023-03-10T14:07:00.546083,6298722,935,520,1488,-1033,-631,-219,129,173,-59
4589,7909,0,2023-03-10T14:07:00.550623,6298726,935,520,1488,-1033,-631,-219,129,173,-59
4590,7910,0,2023-03-10T14:07:00.555129,6298731,935,520,1488,-1033,-631,-219,129,173,-59
4591,7911,0,2023-03-10T14:07:00.560157,6298736,926,512,1498,-1022,-633,-245,129,173,-59
4592,7912,0,2023-03-10T14:07:00.565187,6298740,926,512,1498,-1022,-633,-245,129,173,-59
4593,7913,0,2023-03-10T14:07:00.569768,6298745,926,512,1498,-1022,-633,-245,129,173,-59
4594,7914,0,2023-03-10T14:07:00.574228,6298749,926,512,1498,-1022,-633,-245,129,173,-59
4595,7915,0,2023-03-10T14:07:00.578723,6298755,949,517,1488,-1042,-672,-293,129,173,-59
4596,7916,0,2023-03-10T14:07:00.584288,6298760,949,517,1488,-1042,-672,-293,129,173,-59
4597,7917,0,2023-03-10T14:07:00.589249,6298765,949,517,1488,-1042,-672,-293,129,173,-59
4598,7918,0,2023-03-10T14:07:00.593939,6298769,949,517,1488,-1042,-672,-293,129,173,-59
4599,7919,0,2023-03-10T14:07:00.598496,6298774,947,512,1494,-1032,-620,-246,129,173,-59
4600,7920,0,2023-03-10T14:07:00.604148,6298780,947,512,1494,-1032,-620,-246,129,173,-59
4601,7921,0,2023-03-10T14:07:00.608621,6298784,947,512,1494,-1032,-620,-246,129,173,-59
4602,7922,0,2023-03-10T14:07:00.613173,6298788,947,512,1494,-1032,-620,-246,129,173,-59
4603,7923,0,2023-03-10T14:07:00.617599,6298793,939,512,1488,-1023,-648,-252,119,177,-65
4604,7924,0,2023-03-10T14:07:00.623310,6298799,939,512,1488,-1023,-648,-252,119,177,-65
4605,7925,0,2023-03-10T14:07:00.627608,6298804,939,512,1488,-1023,-648,-252,119,177,-65
4606,7926,0,2023-03-10T14:07:00.632218,6298808,939,512,1488,-1023,-648,-252,119,177,-65
4607,7927,0,2023-03-10T14:07:00.636917,6298813,955,527,1503,-1038,-609,-285,119,177,-65
4608,7928,0,2023-03-10T14:07:00.641857,6298817,955,527,1503,-1038,-609,-285,119,177,-65
4609,7929,0,2023-03-10T14:07:00.646262,6298822,955,527,1503,-1038,-609,-285,119,177,-65
4610,7930,0,2023-03-10T14:07:00.650614,6298826,955,527,1503,-1038,-609,-285,119,177,-65
4611,7931,0,2023-03-10T14:07:00.655100,6298830,955,527,1503,-1038,-609,-285,119,177,-65
4612,7932,0,2023-03-10T14:07:00.660256,6298835,928,513,1490,-1026,-632,-208,119,177,-65
4613,7933,0,2023-03-10T14:07:00.665228,6298841,928,513,1490,-1026,-632,-208,119,177,-65
4614,7934,0,2023-03-10T14:07:00.670434,6298846,928,513,1490,-1026,-632,-208,119,177,-65
4615,7935,0,2023-03-10T14:07:00.674959,6298851,928,513,1490,-1026,-632,-208,119,177,-65
4616,7936,0,2023-03-10T14:07:00.680159,6298856,936,510,1485,-1030,-633,-257,119,177,-65
4617,7937,0,2023-03-10T14:07:00.686026,6298861,936,510,1485,-1030,-633,-257,119,177,-65
4618,7938,0,2023-03-10T14:07:00.690423,6298866,936,510,1485,-1030,-633,-257,119,177,-65
4619,7939,0,2023-03-10T14:07:00.695206,6298870,936,510,1485,-1030,-633,-257,119,177,-65
4620,7940,0,2023-03-10T14:07:00.700466,6298876,953,518,1497,-1054,-627,-280,119,177,-65
4621,7941,0,2023-03-10T14:07:00.705747,6298882,953,518,1497,-1054,-627,-280,119,177,-65
4622,7942,0,2023-03-10T14:07:00.710317,6298886,953,518,1497,-1054,-627,-280,119,177,-65
4623,7943,0,2023-03-10T14:07:00.714918,6298891,953,518,1497,-1054,-627,-280,119,177,-65
4624,7944,0,2023-03-10T14:07:00.719958,6298896,954,519,1486,-1024,-680,-261,119,177,-65
4625,7945,0,2023-03-10T14:07:00.724907,6298901,954,519,1486,-1024,-680,-261,119,177,-65
4626,7946,0,2023-03-10T14:07:00.729503,6298905,954,519,1486,-1024,-680,-261,119,177,-65
4627,7947,0,2023-03-10T14:07:00.734252,6298910,954,519,1486,-1024,-680,-261,119,177,-65
4628,7948,0,2023-03-10T14:07:00.738832,6298914,937,508,1483,-1039,-617,-256,121,169,-69
4629,7949,0,2023-03-10T14:07:00.744316,6298919,937,508,1483,-1039,-617,-256,121,169,-69
4630,7950,0,2023-03-10T14:07:00.749603,6298925,937,508,1483,-1039,-617,-256,121,169,-69
4631,7951,0,2023-03-10T14:07:00.754256,6298930,937,508,1483,-1039,-617,-256,121,169,-69
4632,7952,0,2023-03-10T14:07:00.758924,6298935,955,522,1499,-1038,-610,-278,121,169,-69
4633,7953,0,2023-03-10T14:07:00.764415,6298940,955,522,1499,-1038,-610,-278,121,169,-69
4634,7954,0,2023-03-10T14:07:00.769451,6298945,955,522,1499,-1038,-610,-278,121,169,-69
4635,7955,0,2023-03-10T14:07:00.773919,6298949,955,522,1499,-1038,-610,-278,121,169,-69
4636,7956,0,2023-03-10T14:07:00.778743,6298954,930,512,1492,-1024,-638,-213,121,169,-69
4637,7957,0,2023-03-10T14:07:00.784296,6298960,930,512,1492,-1024,-638,-213,121,169,-69
4638,7958,0,2023-03-10T14:07:00.789059,6298964,930,512,1492,-1024,-638,-213,121,169,-69
4639,7959,0,2023-03-10T14:07:00.793413,6298969,930,512,1492,-1024,-638,-213,121,169,-69
4640,7960,0,2023-03-10T14:07:00.798000,6298974,945,516,1491,-1049,-625,-279,121,169,-69
4641,7961,0,2023-03-10T14:07:00.803616,6298979,945,516,1491,-1049,-625,-279,121,169,-69
4642,7962,0,2023-03-10T14:07:00.808495,6298984,945,516,1491,-1049,-625,-279,121,169,-69
4643,7963,0,2023-03-10T14:07:00.813250,6298989,945,516,1491,-1049,-625,-279,121,169,-69
4644,7964,0,2023-03-10T14:07:00.817974,6298993,945,515,1493,-1054,-655,-270,121,169,-69
4645,7965,0,2023-03-10T14:07:00.822686,6298998,945,515,1493,-1054,-655,-270,121,169,-69
4646,7966,0,2023-03-10T14:07:00.827206,6299002,945,515,1493,-1054,-655,-270,121,169,-69
4647,7967,0,2023-03-10T14:07:00.831651,6299008,945,515,1493,-1054,-655,-270,121,169,-69
4648,7968,0,2023-03-10T14:07:00.836399,6299012,945,515,1493,-1054,-655,-270,121,169,-69
4649,7969,0,2023-03-10T14:07:00.841265,6299017,949,513,1492,-1033,-627,-262,121,169,-69
4650,7970,0,2023-03-10T14:07:00.846233,6299022,949,513,1492,-1033,-627,-262,121,169,-69
4651,7971,0,2023-03-10T14:07:00.851339,6299027,949,513,1492,-1033,-627,-262,121,169,-69
4652,7972,0,2023-03-10T14:07:00.856143,6299031,949,513,1492,-1033,-627,-262,121,169,-69
4653,7973,0,2023-03-10T14:07:00.861437,6299037,954,522,1487,-1025,-633,-259,119,179,-79
4654,7974,0,2023-03-10T14:07:00.866473,6299042,954,522,1487,-1025,-633,-259,119,179,-79
4655,7975,0,2023-03-10T14:07:00.871370,6299046,954,522,1487,-1025,-633,-259,119,179,-79
4656,7976,0,2023-03-10T14:07:00.875873,6299052,954,522,1487,-1025,-633,-259,119,179,-79
4657,7977,0,2023-03-10T14:07:00.881455,6299057,936,508,1492,-1019,-631,-220,119,179,-79
4658,7978,0,2023-03-10T14:07:00.886637,6299062,936,508,1492,-1019,-631,-220,119,179,-79
4659,7979,0,2023-03-10T14:07:00.892144,6299068,936,508,1492,-1019,-631,-220,119,179,-79
4660,7980,0,2023-03-10T14:07:00.896905,6299072,946,516,1503,-1039,-608,-291,119,179,-79
4661,7981,0,2023-03-10T14:07:00.902403,6299078,946,516,1503,-1039,-608,-291,119,179,-79
4662,7982,0,2023-03-10T14:07:00.906912,6299082,946,516,1503,-1039,-608,-291,119,179,-79
4663,7983,0,2023-03-10T14:07:00.911339,6299087,946,516,1503,-1039,-608,-291,119,179,-79
4664,7984,0,2023-03-10T14:07:00.915817,6299091,946,516,1503,-1039,-608,-291,119,179,-79
4665,7985,0,2023-03-10T14:07:00.920702,6299097,953,523,1482,-1045,-638,-263,119,179,-79
4666,7986,0,2023-03-10T14:07:00.925854,6299102,953,523,1482,-1045,-638,-263,119,179,-79
4667,7987,0,2023-03-10T14:07:00.931302,6299107,953,523,1482,-1045,-638,-263,119,179,-79
4668,7988,0,2023-03-10T14:07:00.935828,6299112,953,523,1482,-1045,-638,-263,119,179,-79
4669,7989,0,2023-03-10T14:07:00.940484,6299116,944,511,1499,-1013,-630,-207,119,179,-79
4670,7990,0,2023-03-10T14:07:00.945577,6299121,944,511,1499,-1013,-630,-207,119,179,-79
4671,7991,0,2023-03-10T14:07:00.950492,6299126,944,511,1499,-1013,-630,-207,119,179,-79
4672,7992,0,2023-03-10T14:07:00.955104,6299130,944,511,1499,-1013,-630,-207,119,179,-79
4673,7993,0,2023-03-10T14:07:00.960056,6299136,949,511,1490,-1045,-643,-270,119,179,-79
4674,7994,0,2023-03-10T14:07:00.964483,6299140,949,511,1490,-1045,-643,-270,119,179,-79
4675,7995,0,2023-03-10T14:07:00.968897,6299145,949,511,1490,-1045,-643,-270,119,179,-79
4676,7996,0,2023-03-10T14:07:00.973505,6299149,949,511,1490,-1045,-643,-270,119,179,-79
4677,7997,0,2023-03-10T14:07:00.978046,6299154,950,517,1480,-1040,-646,-278,119,179,-79
4678,7998,0,2023-03-10T14:07:00.983186,6299159,950,517,1480,-1040,-646,-278,119,179,-79
4679,7999,0,2023-03-10T14:07:00.987692,6299163,950,517,1480,-1040,-646,-278,119,179,-79
4680,8000,0,2023-03-10T14:07:00.992153,6299168,950,517,1480,-1040,-646,-278,119,179,-79
4681,8001,0,2023-03-10T14:07:00.996745,6299172,950,517,1480,-1040,-646,-278,119,179,-79
4682,8002,0,2023-03-10T14:07:01.001741,6299177,956,516,1506,-1035,-623,-262,121,177,-65
4683,8003,0,2023-03-10T14:07:01.006817,6299183,956,516,1506,-1035,-623,-262,121,177,-65
4684,8004,0,2023-03-10T14:07:01.011548,6299187,956,516,1506,-1035,-623,-262,121,177,-65
4685,8005,0,2023-03-10T14:07:01.016169,6299192,956,516,1506,-1035,-623,-262,121,177,-65
4686,8006,0,2023-03-10T14:07:01.020665,6299196,942,516,1484,-1037,-642,-263,121,177,-65
4687,8007,0,2023-03-10T14:07:01.026045,6299202,942,516,1484,-1037,-642,-263,121,177,-65
4688,8008,0,2023-03-10T14:07:01.030822,6299206,942,516,1484,-1037,-642,-263,121,177,-65
4689,8009,0,2023-03-10T14:07:01.035766,6299211,942,516,1484,-1037,-642,-263,121,177,-65
4690,8010,0,2023-03-10T14:07:01.040667,6299216,959,525,1498,-1026,-606,-249,121,177,-65
4691,8011,0,2023-03-10T14:07:01.045878,6299222,959,525,1498,-1026,-606,-249,121,177,-65
4692,8012,0,2023-03-10T14:07:01.050278,6299226,959,525,1498,-1026,-606,-249,121,177,-65
4693,8013,0,2023-03-10T14:07:01.054896,6299231,959,525,1498,-1026,-606,-249,121,177,-65
4694,8014,0,2023-03-10T14:07:01.059777,6299235,941,513,1496,-1008,-646,-229,121,177,-65
4695,8015,0,2023-03-10T14:07:01.065238,6299241,941,513,1496,-1008,-646,-229,121,177,-65
4696,8016,0,2023-03-10T14:07:01.069658,6299245,941,513,1496,-1008,-646,-229,121,177,-65
4697,8017,0,2023-03-10T14:07:01.074360,6299250,941,513,1496,-1008,-646,-229,121,177,-65
4698,8018,0,2023-03-10T14:07:01.078656,6299254,955,518,1468,-1045,-635,-278,121,177,-65
4699,8019,0,2023-03-10T14:07:01.084125,6299259,955,518,1468,-1045,-635,-278,121,177,-65
4700,8020,0,2023-03-10T14:07:01.089127,6299265,955,518,1468,-1045,-635,-278,121,177,-65
4701,8021,0,2023-03-10T14:07:01.093870,6299270,955,518,1468,-1045,-635,-278,121,177,-65
4702,8022,0,2023-03-10T14:07:01.098283,6299274,964,515,1490,-1022,-635,-241,121,177,-65
4703,8023,0,2023-03-10T14:07:01.104074,6299280,964,515,1490,-1022,-635,-241,121,177,-65
4704,8024,0,2023-03-10T14:07:01.108765,6299284,964,515,1490,-1022,-635,-241,121,177,-65
4705,8025,0,2023-03-10T14:07:01.113570,6299289,964,515,1490,-1022,-635,-241,121,177,-65
4706,8026,0,2023-03-10T14:07:01.118188,6299293,934,511,1482,-1018,-638,-237,121,175,-55
4707,8027,0,2023-03-10T14:07:01.123791,6299299,934,511,1482,-1018,-638,-237,121,175,-55
4708,8028,0,2023-03-10T14:07:01.128378,6299304,934,511,1482,-1018,-638,-237,121,175,-55
4709,8029,0,2023-03-10T14:07:01.132828,6299309,934,511,1482,-1018,-638,-237,121,175,-55
4710,8030,0,2023-03-10T14:07:01.137219,6299313,959,521,1493,-1036,-602,-282,121,175,-55
4711,8031,0,2023-03-10T14:07:01.142588,6299318,959,521,1493,-1036,-602,-282,121,175,-55
4712,8032,0,2023-03-10T14:07:01.147100,6299323,959,521,1493,-1036,-602,-282,121,175,-55
4713,8033,0,2023-03-10T14:07:01.151337,6299327,959,521,1493,-1036,-602,-282,121,175,-55
4714,8034,0,2023-03-10T14:07:01.156105,6299331,959,521,1493,-1036,-602,-282,121,175,-55
4715,8035,0,2023-03-10T14:07:01.161053,6299337,955,520,1493,-1019,-646,-253,121,175,-55
4716,8036,0,2023-03-10T14:07:01.165350,6299341,955,520,1493,-1019,-646,-253,121,175,-55
4717,8037,0,2023-03-10T14:07:01.169995,6299345,955,520,1493,-1019,-646,-253,121,175,-55
4718,8038,0,2023-03-10T14:07:01.174689,6299351,955,520,1493,-1019,-646,-253,121,175,-55
4719,8039,0,2023-03-10T14:07:01.179152,6299355,948,513,1478,-1050,-631,-275,121,175,-55
4720,8040,0,2023-03-10T14:07:01.184242,6299360,948,513,1478,-1050,-631,-275,121,175,-55
4721,8041,0,2023-03-10T14:07:01.188656,6299364,948,513,1478,-1050,-631,-275,121,175,-55
4722,8042,0,2023-03-10T14:07:01.193232,6299369,948,513,1478,-1050,-631,-275,121,175,-55
4723,8043,0,2023-03-10T14:07:01.197786,6299373,948,511,1491,-1034,-608,-236,121,175,-55
4724,8044,0,2023-03-10T14:07:01.203152,6299379,948,511,1491,-1034,-608,-236,121,175,-55
4725,8045,0,2023-03-10T14:07:01.207543,6299383,948,511,1491,-1034,-608,-236,121,175,-55
4726,8046,0,2023-03-10T14:07:01.212056,6299387,948,511,1491,-1034,-608,-236,121,175,-55
4727,8047,0,2023-03-10T14:07:01.216824,6299393,948,511,1491,-1034,-608,-236,121,175,-55
4728,8048,0,2023-03-10T14:07:01.221692,6299398,946,511,1496,-996,-672,-199,121,175,-55
4729,8049,0,2023-03-10T14:07:01.227192,6299403,946,511,1496,-996,-672,-199,121,175,-55
4730,8050,0,2023-03-10T14:07:01.231944,6299408,946,511,1496,-996,-672,-199,121,175,-55
4731,8051,0,2023-03-10T14:07:01.236600,6299412,946,511,1496,-996,-672,-199,121,175,-55
4732,8052,0,2023-03-10T14:07:01.241599,6299417,952,512,1491,-1044,-620,-273,121,175,-55
4733,8053,0,2023-03-10T14:07:01.246668,6299422,952,512,1491,-1044,-620,-273,121,175,-55
4734,8054,0,2023-03-10T14:07:01.251229,6299427,952,512,1491,-1044,-620,-273,121,175,-55
4735,8055,0,2023-03-10T14:07:01.255833,6299431,952,512,1491,-1044,-620,-273,121,175,-55
4736,8056,0,2023-03-10T14:07:01.260761,6299437,963,519,1480,-1028,-665,-273,119,177,-73
4737,8057,0,2023-03-10T14:07:01.265726,6299442,963,519,1480,-1028,-665,-273,119,177,-73
4738,8058,0,2023-03-10T14:07:01.270218,6299446,963,519,1480,-1028,-665,-273,119,177,-73
4739,8059,0,2023-03-10T14:07:01.274700,6299450,963,519,1480,-1028,-665,-273,119,177,-73
4740,8060,0,2023-03-10T14:07:01.279388,6299455,955,516,1507,-1025,-609,-231,119,177,-73
4741,8061,0,2023-03-10T14:07:01.285099,6299461,955,516,1507,-1025,-609,-231,119,177,-73
4742,8062,0,2023-03-10T14:07:01.289710,6299465,955,516,1507,-1025,-609,-231,119,177,-73
4743,8063,0,2023-03-10T14:07:01.294083,6299469,955,516,1507,-1025,-609,-231,119,177,-73
4744,8064,0,2023-03-10T14:07:01.298588,6299474,955,525,1476,-1040,-635,-291,119,177,-73
4745,8065,0,2023-03-10T14:07:01.303713,6299480,955,525,1476,-1040,-635,-291,119,177,-73
4746,8066,0,2023-03-10T14:07:01.308280,6299484,955,525,1476,-1040,-635,-291,119,177,-73
4747,8067,0,2023-03-10T14:07:01.312712,6299489,955,525,1476,-1040,-635,-291,119,177,-73
4748,8068,0,2023-03-10T14:07:01.317443,6299493,943,512,1485,-1029,-627,-227,119,177,-73
4749,8069,0,2023-03-10T14:07:01.322724,6299498,943,512,1485,-1029,-627,-227,119,177,-73
4750,8070,0,2023-03-10T14:07:01.327128,6299503,943,512,1485,-1029,-627,-227,119,177,-73
4751,8071,0,2023-03-10T14:07:01.331625,6299507,943,512,1485,-1029,-627,-227,119,177,-73
4752,8072,0,2023-03-10T14:07:01.336433,6299512,943,512,1485,-1029,-627,-227,119,177,-73
4753,8073,0,2023-03-10T14:07:01.341383,6299517,946,509,1501,-1006,-623,-224,119,177,-73
4754,8074,0,2023-03-10T14:07:01.346116,6299522,946,509,1501,-1006,-623,-224,119,177,-73
4755,8075,0,2023-03-10T14:07:01.350501,6299526,946,509,1501,-1006,-623,-224,119,177,-73
4756,8076,0,2023-03-10T14:07:01.355036,6299531,946,509,1501,-1006,-623,-224,119,177,-73
4757,8077,0,2023-03-10T14:07:01.359608,6299535,965,516,1474,-1052,-664,-296,119,177,-73
4758,8078,0,2023-03-10T14:07:01.365102,6299541,965,516,1474,-1052,-664,-296,119,177,-73
4759,8079,0,2023-03-10T14:07:01.369281,6299545,965,516,1474,-1052,-664,-296,119,177,-73
4760,8080,0,2023-03-10T14:07:01.373703,6299549,965,516,1474,-1052,-664,-296,119,177,-73
4761,8081,0,2023-03-10T14:07:01.378229,6299554,968,517,1474,-1027,-653,-255,117,187,-67
4762,8082,0,2023-03-10T14:07:01.383622,6299559,968,517,1474,-1027,-653,-255,117,187,-67
4763,8083,0,2023-03-10T14:07:01.388059,6299564,968,517,1474,-1027,-653,-255,117,187,-67
4764,8084,0,2023-03-10T14:07:01.392771,6299568,968,517,1474,-1027,-653,-255,117,187,-67
4765,8085,0,2023-03-10T14:07:01.397099,6299573,968,517,1474,-1027,-653,-255,117,187,-67
4766,8086,0,2023-03-10T14:07:01.402297,6299578,968,517,1474,-1027,-653,-255,117,187,-67
4767,8087,0,2023-03-10T14:07:01.406930,6299583,968,517,1474,-1027,-653,-255,117,187,-67
4768,8088,0,2023-03-10T14:07:01.411257,6299587,968,517,1474,-1027,-653,-255,117,187,-67
4769,8089,0,2023-03-10T14:07:01.415730,6299591,968,517,1474,-1027,-653,-255,117,187,-67
4770,8090,0,2023-03-10T14:07:01.420737,6299596,959,522,1494,-1045,-596,-288,117,187,-67
4771,8091,0,2023-03-10T14:07:01.425303,6299600,959,522,1494,-1045,-596,-288,117,187,-67
4772,8092,0,2023-03-10T14:07:01.429671,6299606,959,522,1494,-1045,-596,-288,117,187,-67
4773,8093,0,2023-03-10T14:07:01.434119,6299610,959,522,1494,-1045,-596,-288,117,187,-67
4774,8094,0,2023-03-10T14:07:01.438374,6299614,954,519,1492,-1020,-666,-233,117,187,-67
4775,8095,0,2023-03-10T14:07:01.443972,6299620,954,519,1492,-1020,-666,-233,117,187,-67
4776,8096,0,2023-03-10T14:07:01.448583,6299624,954,519,1492,-1020,-666,-233,117,187,-67
4777,8097,0,2023-03-10T14:07:01.453249,6299629,954,519,1492,-1020,-666,-233,117,187,-67
4778,8098,0,2023-03-10T14:07:01.457797,6299633,940,515,1491,-1040,-612,-233,117,187,-67
4779,8099,0,2023-03-10T14:07:01.463360,6299639,940,515,1491,-1040,-612,-233,117,187,-67
4780,8100,0,2023-03-10T14:07:01.467981,6299643,940,515,1491,-1040,-612,-233,117,187,-67
4781,8101,0,2023-03-10T14:07:01.472686,6299649,940,515,1491,-1040,-612,-233,117,187,-67
4782,8102,0,2023-03-10T14:07:01.477182,6299653,940,515,1491,-1040,-612,-233,117,187,-67
4783,8103,0,2023-03-10T14:07:01.481859,6299658,965,516,1477,-1050,-644,-291,117,187,-67
4784,8104,0,2023-03-10T14:07:01.486958,6299663,965,516,1477,-1050,-644,-291,117,187,-67
4785,8105,0,2023-03-10T14:07:01.491332,6299667,965,516,1477,-1050,-644,-291,117,187,-67
4786,8106,0,2023-03-10T14:07:01.495723,6299671,965,516,1477,-1050,-644,-291,117,187,-67
4787,8107,0,2023-03-10T14:07:01.501068,6299676,959,516,1472,-1023,-663,-244,117,187,-67
4788,8108,0,2023-03-10T14:07:01.506111,6299682,959,516,1472,-1023,-663,-244,117,187,-67
4789,8109,0,2023-03-10T14:07:01.510549,6299686,959,516,1472,-1023,-663,-244,117,187,-67
4790,8110,0,2023-03-10T14:07:01.515404,6299691,959,516,1472,-1023,-663,-244,117,187,-67
4791,8111,0,2023-03-10T14:07:01.519977,6299696,953,510,1493,-1020,-603,-241,123,177,-65
4792,8112,0,2023-03-10T14:07:01.524913,6299701,953,510,1493,-1020,-603,-241,123,177,-65
4793,8113,0,2023-03-10T14:07:01.529598,6299705,953,510,1493,-1020,-603,-241,123,177,-65
4794,8114,0,2023-03-10T14:07:01.534068,6299710,953,510,1493,-1020,-603,-241,123,177,-65
4795,8115,0,2023-03-10T14:07:01.538763,6299714,966,525,1486,-1025,-665,-287,123,177,-65
4796,8116,0,2023-03-10T14:07:01.544660,6299720,966,525,1486,-1025,-665,-287,123,177,-65
4797,8117,0,2023-03-10T14:07:01.549125,6299724,966,525,1486,-1025,-665,-287,123,177,-65
4798,8118,0,2023-03-10T14:07:01.553661,6299729,966,525,1486,-1025,-665,-287,123,177,-65
4799,8119,0,2023-03-10T14:07:01.558301,6299734,948,517,1487,-1021,-601,-203,123,177,-65
4800,8120,0,2023-03-10T14:07:01.563609,6299740,948,517,1487,-1021,-601,-203,123,177,-65
4801,8121,0,2023-03-10T14:07:01.568209,6299744,948,517,1487,-1021,-601,-203,123,177,-65
4802,8122,0,2023-03-10T14:07:01.573057,6299749,948,517,1487,-1021,-601,-203,123,177,-65
4803,8123,0,2023-03-10T14:07:01.577682,6299753,948,517,1487,-1021,-601,-203,123,177,-65
4804,8124,0,2023-03-10T14:07:01.582319,6299758,959,518,1487,-1012,-640,-266,123,177,-65
4805,8125,0,2023-03-10T14:07:01.587462,6299763,959,518,1487,-1012,-640,-266,123,177,-65
4806,8126,0,2023-03-10T14:07:01.591880,6299767,959,518,1487,-1012,-640,-266,123,177,-65
4807,8127,0,2023-03-10T14:07:01.596277,6299771,959,518,1487,-1012,-640,-266,123,177,-65
4808,8128,0,2023-03-10T14:07:01.601371,6299777,955,513,1473,-1055,-649,-261,123,177,-65
4809,8129,0,2023-03-10T14:07:01.606416,6299783,955,513,1473,-1055,-649,-261,123,177,-65
4810,8130,0,2023-03-10T14:07:01.610938,6299787,955,513,1473,-1055,-649,-261,123,177,-65
4811,8131,0,2023-03-10T14:07:01.615496,6299791,955,513,1473,-1055,-649,-261,123,177,-65
4812,8132,0,2023-03-10T14:07:01.620520,6299796,955,510,1494,-1022,-604,-231,123,177,-65
4813,8133,0,2023-03-10T14:07:01.625424,6299801,955,510,1494,-1022,-604,-231,123,177,-65
4814,8134,0,2023-03-10T14:07:01.630353,6299806,955,510,1494,-1022,-604,-231,123,177,-65
4815,8135,0,2023-03-10T14:07:01.634956,6299810,955,510,1494,-1022,-604,-231,123,177,-65
4816,8136,0,2023-03-10T14:07:01.639309,6299815,967,522,1488,-1021,-698,-273,129,179,-61
4817,8137,0,2023-03-10T14:07:01.644380,6299821,967,522,1488,-1021,-698,-273,129,179,-61
4818,8138,0,2023-03-10T14:07:01.648921,6299825,967,522,1488,-1021,-698,-273,129,179,-61
4819,8139,0,2023-03-10T14:07:01.653360,6299829,967,522,1488,-1021,-698,-273,129,179,-61
4820,8140,0,2023-03-10T14:07:01.657993,6299834,954,509,1478,-1027,-635,-241,129,179,-61
4821,8141,0,2023-03-10T14:07:01.663567,6299839,954,509,1478,-1027,-635,-241,129,179,-61
4822,8142,0,2023-03-10T14:07:01.668007,6299844,954,509,1478,-1027,-635,-241,129,179,-61
4823,8143,0,2023-03-10T14:07:01.672490,6299848,954,509,1478,-1027,-635,-241,129,179,-61
4824,8144,0,2023-03-10T14:07:01.677270,6299853,954,509,1478,-1027,-635,-241,129,179,-61
4825,8145,0,2023-03-10T14:07:01.682550,6299858,961,522,1488,-1034,-577,-280,129,179,-61
4826,8146,0,2023-03-10T14:07:01.687748,6299864,961,522,1488,-1034,-577,-280,129,179,-61
4827,8147,0,2023-03-10T14:07:01.692300,6299868,961,522,1488,-1034,-577,-280,129,179,-61
4828,8148,0,2023-03-10T14:07:01.696561,6299873,961,522,1488,-1034,-577,-280,129,179,-61
4829,8149,0,2023-03-10T14:07:01.701719,6299877,957,514,1497,-1011,-655,-220,129,179,-61
4830,8150,0,2023-03-10T14:07:01.706208,6299882,957,514,1497,-1011,-655,-220,129,179,-61
4831,8151,0,2023-03-10T14:07:01.710738,6299886,957,514,1497,-1011,-655,-220,129,179,-61
4832,8152,0,2023-03-10T14:07:01.715315,6299891,957,514,1497,-1011,-655,-220,129,179,-61
4833,8153,0,2023-03-10T14:07:01.720144,6299895,949,513,1481,-1036,-631,-249,129,179,-61
4834,8154,0,2023-03-10T14:07:01.725459,6299901,949,513,1481,-1036,-631,-249,129,179,-61
4835,8155,0,2023-03-10T14:07:01.730241,6299906,949,513,1481,-1036,-631,-249,129,179,-61
4836,8156,0,2023-03-10T14:07:01.734622,6299911,949,513,1481,-1036,-631,-249,129,179,-61
4837,8157,0,2023-03-10T14:07:01.739317,6299915,966,510,1479,-1051,-637,-272,129,179,-61
4838,8158,0,2023-03-10T14:07:01.744491,6299920,966,510,1479,-1051,-637,-272,129,179,-61
4839,8159,0,2023-03-10T14:07:01.749003,6299925,966,510,1479,-1051,-637,-272,129,179,-61
4840,8160,0,2023-03-10T14:07:01.753430,6299929,966,510,1479,-1051,-637,-272,129,179,-61
4841,8161,0,2023-03-10T14:07:01.757628,6299933,966,510,1479,-1051,-637,-272,129,179,-61
4842,8162,0,2023-03-10T14:07:01.763256,6299938,963,512,1488,-1016,-659,-247,122,170,-68
4843,8163,0,2023-03-10T14:07:01.768166,6299943,963,512,1488,-1016,-659,-247,122,170,-68
4844,8164,0,2023-03-10T14:07:01.773351,6299949,963,512,1488,-1016,-659,-247,122,170,-68
4845,8165,0,2023-03-10T14:07:01.777839,6299954,963,512,1488,-1016,-659,-247,122,170,-68
4846,8166,0,2023-03-10T14:07:01.782275,6299958,977,522,1486,-1038,-607,-264,122,170,-68
4847,8167,0,2023-03-10T14:07:01.787420,6299963,977,522,1486,-1038,-607,-264,122,170,-68
4848,8168,0,2023-03-10T14:07:01.791665,6299967,977,522,1486,-1038,-607,-264,122,170,-68
4849,8169,0,2023-03-10T14:07:01.796073,6299972,977,522,1486,-1038,-607,-264,122,170,-68
4850,8170,0,2023-03-10T14:07:01.801149,6299977,945,517,1488,-991,-643,-206,122,170,-68
4851,8171,0,2023-03-10T14:07:01.806182,6299982,945,517,1488,-991,-643,-206,122,170,-68
4852,8172,0,2023-03-10T14:07:01.810606,6299986,945,517,1488,-991,-643,-206,122,170,-68
4853,8173,0,2023-03-10T14:07:01.815448,6299991,945,517,1488,-991,-643,-206,122,170,-68
4854,8174,0,2023-03-10T14:07:01.820107,6299996,960,515,1487,-1046,-631,-268,122,170,-68
4855,8175,0,2023-03-10T14:07:01.825674,6300001,960,515,1487,-1046,-631,-268,122,170,-68
4856,8176,0,2023-03-10T14:07:01.830147,6300006,960,515,1487,-1046,-631,-268,122,170,-68
4857,8177,0,2023-03-10T14:07:01.834468,6300010,960,515,1487,-1046,-631,-268,122,170,-68
4858,8178,0,2023-03-10T14:07:01.839067,6300015,955,512,1481,-1034,-638,-277,122,170,-68
4859,8179,0,2023-03-10T14:07:01.844896,6300020,955,512,1481,-1034,-638,-277,122,170,-68
4860,8180,0,2023-03-10T14:07:01.849394,6300025,955,512,1481,-1034,-638,-277,122,170,-68
4861,8181,0,2023-03-10T14:07:01.854119,6300029,955,512,1481,-1034,-638,-277,122,170,-68
4862,8182,0,2023-03-10T14:07:01.858559,6300035,969,517,1492,-1031,-626,-255,122,170,-68
4863,8183,0,2023-03-10T14:07:01.864207,6300040,969,517,1492,-1031,-626,-255,122,170,-68
4864,8184,0,2023-03-10T14:07:01.868863,6300045,969,517,1492,-1031,-626,-255,122,170,-68
4865,8185,0,2023-03-10T14:07:01.873329,6300049,969,517,1492,-1031,-626,-255,122,170,-68
4866,8186,0,2023-03-10T14:07:01.878001,6300054,969,517,1492,-1031,-626,-255,122,170,-68
4867,8187,0,2023-03-10T14:07:01.882931,6300059,981,525,1486,-1036,-656,-262,122,170,-68
4868,8188,0,2023-03-10T14:07:01.887460,6300063,981,525,1486,-1036,-656,-262,122,170,-68
4869,8189,0,2023-03-10T14:07:01.892511,6300068,981,525,1486,-1036,-656,-262,122,170,-68
4870,8190,0,2023-03-10T14:07:01.897123,6300072,981,525,1486,-1036,-656,-262,122,170,-68
4871,8191,0,2023-03-10T14:07:01.902228,6300078,936,503,1488,-1012,-616,-196,121,179,-57
4872,8192,0,2023-03-10T14:07:01.907204,6300083,936,503,1488,-1012,-616,-196,121,179,-57
4873,8193,0,2023-03-10T14:07:01.911612,6300088,936,503,1488,-1012,-616,-196,121,179,-57
4874,8194,0,2023-03-10T14:07:01.916203,6300092,936,503,1488,-1012,-616,-196,121,179,-57
4875,8195,0,2023-03-10T14:07:01.921198,6300097,969,514,1488,-1031,-623,-292,121,179,-57
4876,8196,0,2023-03-10T14:07:01.926337,6300102,969,514,1488,-1031,-623,-292,121,179,-57
4877,8197,0,2023-03-10T14:07:01.930908,6300106,969,514,1488,-1031,-623,-292,121,179,-57
4878,8198,0,2023-03-10T14:07:01.935424,6300111,969,514,1488,-1031,-623,-292,121,179,-57
4879,8199,0,2023-03-10T14:07:01.940583,6300116,959,510,1487,-1036,-631,-264,121,179,-57
4880,8200,0,2023-03-10T14:07:01.945977,6300122,959,510,1487,-1036,-631,-264,121,179,-57
4881,8201,0,2023-03-10T14:07:01.950447,6300126,959,510,1487,-1036,-631,-264,121,179,-57
4882,8202,0,2023-03-10T14:07:01.955118,6300131,959,510,1487,-1036,-631,-264,121,179,-57
4883,8203,0,2023-03-10T14:07:01.959853,6300135,962,516,1489,-1025,-625,-254,121,179,-57
4884,8204,0,2023-03-10T14:07:01.965487,6300141,962,516,1489,-1025,-625,-254,121,179,-57
4885,8205,0,2023-03-10T14:07:01.969787,6300145,962,516,1489,-1025,-625,-254,121,179,-57
4886,8206,0,2023-03-10T14:07:01.974343,6300150,962,516,1489,-1025,-625,-254,121,179,-57
4887,8207,0,2023-03-10T14:07:01.979140,6300154,976,521,1486,-1034,-664,-265,121,179,-57
4888,8208,0,2023-03-10T14:07:01.984442,6300161,976,521,1486,-1034,-664,-265,121,179,-57
4889,8209,0,2023-03-10T14:07:01.989381,6300165,976,521,1486,-1034,-664,-265,121,179,-57
4890,8210,0,2023-03-10T14:07:01.993967,6300170,976,521,1486,-1034,-664,-265,121,179,-57
4891,8211,0,2023-03-10T14:07:01.998520,6300174,948,506,1478,-1036,-625,-240,121,179,-57
4892,8212,0,2023-03-10T14:07:02.003798,6300180,948,506,1478,-1036,-625,-240,121,179,-57
4893,8213,0,2023-03-10T14:07:02.008157,6300184,948,506,1478,-1036,-625,-240,121,179,-57
4894,8214,0,2023-03-10T14:07:02.012577,6300188,948,506,1478,-1036,-625,-240,121,179,-57
4895,8215,0,2023-03-10T14:07:02.016964,6300192,948,506,1478,-1036,-625,-240,121,179,-57
4896,8216,0,2023-03-10T14:07:02.022142,6300197,966,507,1494,-1039,-613,-260,111,171,-59
4897,8217,0,2023-03-10T14:07:02.027159,6300203,966,507,1494,-1039,-613,-260,111,171,-59
4898,8218,0,2023-03-10T14:07:02.031631,6300208,966,507,1494,-1039,-613,-260,111,171,-59
4899,8219,0,2023-03-10T14:07:02.035968,6300212,966,507,1494,-1039,-613,-260,111,171,-59
4900,8220,0,2023-03-10T14:07:02.040851,6300217,958,511,1481,-1023,-681,-252,111,171,-59
4901,8221,0,2023-03-10T14:07:02.046165,6300222,958,511,1481,-1023,-681,-252,111,171,-59
4902,8222,0,2023-03-10T14:07:02.050838,6300226,958,511,1481,-1023,-681,-252,111,171,-59
4903,8223,0,2023-03-10T14:07:02.055447,6300231,958,511,1481,-1023,-681,-252,111,171,-59
4904,8224,0,2023-03-10T14:07:02.060354,6300236,969,523,1491,-1037,-592,-252,111,171,-59
4905,8225,0,2023-03-10T14:07:02.065233,6300241,969,523,1491,-1037,-592,-252,111,171,-59
4906,8226,0,2023-03-10T14:07:02.069683,6300246,969,523,1491,-1037,-592,-252,111,171,-59
4907,8227,0,2023-03-10T14:07:02.074307,6300250,969,523,1491,-1037,-592,-252,111,171,-59
4908,8228,0,2023-03-10T14:07:02.078944,6300255,969,521,1480,-1023,-660,-262,111,171,-59
4909,8229,0,2023-03-10T14:07:02.084804,6300260,969,521,1480,-1023,-660,-262,111,171,-59
4910,8230,0,2023-03-10T14:07:02.089333,6300265,969,521,1480,-1023,-660,-262,111,171,-59
4911,8231,0,2023-03-10T14:07:02.093830,6300269,969,521,1480,-1023,-660,-262,111,171,-59
4912,8232,0,2023-03-10T14:07:02.098587,6300274,959,511,1476,-1045,-612,-253,111,171,-59
4913,8233,0,2023-03-10T14:07:02.104066,6300279,959,511,1476,-1045,-612,-253,111,171,-59
4914,8234,0,2023-03-10T14:07:02.108726,6300284,959,511,1476,-1045,-612,-253,111,171,-59
4915,8235,0,2023-03-10T14:07:02.113223,6300289,959,511,1476,-1045,-612,-253,111,171,-59
4916,8236,0,2023-03-10T14:07:02.117634,6300294,959,511,1476,-1045,-612,-253,111,171,-59
4917,8237,0,2023-03-10T14:07:02.122964,6300299,968,512,1488,-1037,-619,-263,111,171,-59
4918,8238,0,2023-03-10T14:07:02.127912,6300304,968,512,1488,-1037,-619,-263,111,171,-59
4919,8239,0,2023-03-10T14:07:02.132239,6300308,968,512,1488,-1037,-619,-263,111,171,-59
4920,8240,0,2023-03-10T14:07:02.136611,6300312,968,512,1488,-1037,-619,-263,111,171,-59
4921,8241,0,2023-03-10T14:07:02.141666,6300317,961,516,1476,-1015,-701,-231,111,171,-59
4922,8242,0,2023-03-10T14:07:02.146757,6300322,961,516,1476,-1015,-701,-231,111,171,-59
4923,8243,0,2023-03-10T14:07:02.151390,6300327,961,516,1476,-1015,-701,-231,111,171,-59
4924,8244,0,2023-03-10T14:07:02.156139,6300332,961,516,1476,-1015,-701,-231,111,171,-59
4925,8245,0,2023-03-10T14:07:02.161553,6300337,961,513,1496,-1013,-617,-216,121,175,-73
4926,8246,0,2023-03-10T14:07:02.166933,6300343,961,513,1496,-1013,-617,-216,121,175,-73
4927,8247,0,2023-03-10T14:07:02.171653,6300347,961,513,1496,-1013,-617,-216,121,175,-73
4928,8248,0,2023-03-10T14:07:02.176542,6300352,961,513,1496,-1013,-617,-216,121,175,-73
4929,8249,0,2023-03-10T14:07:02.181638,6300357,961,520,1479,-1035,-591,-290,121,175,-73
4930,8250,0,2023-03-10T14:07:02.186845,6300362,961,520,1479,-1035,-591,-290,121,175,-73
4931,8251,0,2023-03-10T14:07:02.191563,6300367,961,520,1479,-1035,-591,-290,121,175,-73
4932,8252,0,2023-03-10T14:07:02.196775,6300372,961,520,1479,-1035,-591,-290,121,175,-73
4933,8253,0,2023-03-10T14:07:02.202354,6300378,971,513,1479,-1030,-666,-253,121,175,-73
4934,8254,0,2023-03-10T14:07:02.207457,6300383,971,513,1479,-1030,-666,-253,121,175,-73
4935,8255,0,2023-03-10T14:07:02.212290,6300388,971,513,1479,-1030,-666,-253,121,175,-73
4936,8256,0,2023-03-10T14:07:02.216956,6300393,971,513,1479,-1030,-666,-253,121,175,-73
4937,8257,0,2023-03-10T14:07:02.221294,6300397,970,526,1495,-1013,-611,-266,121,175,-73
4938,8258,0,2023-03-10T14:07:02.226428,6300402,970,526,1495,-1013,-611,-266,121,175,-73
4939,8259,0,2023-03-10T14:07:02.231059,6300406,970,526,1495,-1013,-611,-266,121,175,-73
4940,8260,0,2023-03-10T14:07:02.235758,6300411,970,526,1495,-1013,-611,-266,121,175,-73
4941,8261,0,2023-03-10T14:07:02.240450,6300416,970,526,1495,-1013,-611,-266,121,175,-73
4942,8262,0,2023-03-10T14:07:02.245099,6300421,970,526,1495,-1013,-611,-266,121,175,-73
4943,8263,0,2023-03-10T14:07:02.249514,6300426,970,526,1495,-1013,-611,-266,121,175,-73
4944,8264,0,2023-03-10T14:07:02.254154,6300430,970,526,1495,-1013,-611,-266,121,175,-73
4945,8265,0,2023-03-10T14:07:02.258761,6300435,961,514,1488,-1015,-628,-259,121,175,-73
4946,8266,0,2023-03-10T14:07:02.263818,6300439,961,514,1488,-1015,-628,-259,121,175,-73
4947,8267,0,2023-03-10T14:07:02.268185,6300444,961,514,1488,-1015,-628,-259,121,175,-73
4948,8268,0,2023-03-10T14:07:02.272806,6300448,961,514,1488,-1015,-628,-259,121,175,-73
4949,8269,0,2023-03-10T14:07:02.277409,6300453,961,514,1488,-1015,-628,-259,121,175,-73
4950,8270,0,2023-03-10T14:07:02.282440,6300459,965,509,1492,-1036,-647,-254,127,175,-65
4951,8271,0,2023-03-10T14:07:02.287523,6300463,965,509,1492,-1036,-647,-254,127,175,-65
4952,8272,0,2023-03-10T14:07:02.292208,6300468,965,509,1492,-1036,-647,-254,127,175,-65
4953,8273,0,2023-03-10T14:07:02.296915,6300472,965,509,1492,-1036,-647,-254,127,175,-65
4954,8274,0,2023-03-10T14:07:02.302994,6300479,976,528,1486,-1023,-626,-272,127,175,-65
4955,8275,0,2023-03-10T14:07:02.307588,6300483,976,528,1486,-1023,-626,-272,127,175,-65
4956,8276,0,2023-03-10T14:07:02.312274,6300488,976,528,1486,-1023,-626,-272,127,175,-65
4957,8277,0,2023-03-10T14:07:02.317103,6300492,976,528,1486,-1023,-626,-272,127,175,-65
4958,8278,0,2023-03-10T14:07:02.322414,6300498,972,514,1477,-1035,-643,-215,127,175,-65
4959,8279,0,2023-03-10T14:07:02.327573,6300504,972,514,1477,-1035,-643,-215,127,175,-65
4960,8280,0,2023-03-10T14:07:02.332349,6300508,972,514,1477,-1035,-643,-215,127,175,-65
4961,8281,0,2023-03-10T14:07:02.336764,6300513,972,514,1477,-1035,-643,-215,127,175,-65
4962,8282,0,2023-03-10T14:07:02.341903,6300518,950,511,1480,-1001,-656,-219,127,175,-65
4963,8283,0,2023-03-10T14:07:02.346741,6300522,950,511,1480,-1001,-656,-219,127,175,-65
4964,8284,0,2023-03-10T14:07:02.351456,6300527,950,511,1480,-1001,-656,-219,127,175,-65
4965,8285,0,2023-03-10T14:07:02.356055,6300531,950,511,1480,-1001,-656,-219,127,175,-65
4966,8286,0,2023-03-10T14:07:02.361058,6300536,981,512,1483,-1059,-614,-287,127,175,-65
4967,8287,0,2023-03-10T14:07:02.365915,6300541,981,512,1483,-1059,-614,-287,127,175,-65
