,Unnamed: 0,imu,server_time,arduino_time,ax,ay,az,gx,gy,gz,mx,my,mz
14000,4894,0,2023-03-01T18:51:05.441073,1654962,1296,1900,-470,-1177,-780,-303,-59,155,-307
14001,4895,0,2023-03-01T18:51:05.445589,1654966,1296,1900,-470,-1177,-780,-303,-59,155,-307
14002,4896,0,2023-03-01T18:51:05.450370,1654971,1294,1901,-470,-1176,-782,-298,-52,160,-304
14003,4897,0,2023-03-01T18:51:05.456492,1654977,1294,1901,-470,-1176,-782,-298,-52,160,-304
14004,4898,0,2023-03-01T18:51:05.462155,1654982,1294,1901,-470,-1176,-782,-298,-52,160,-304
14005,4899,0,2023-03-01T18:51:05.467108,1654987,1294,1901,-470,-1176,-782,-298,-52,160,-304
14006,4900,0,2023-03-01T18:51:05.472728,1654992,1297,1899,-467,-1175,-776,-298,-52,160,-304
14007,4901,0,2023-03-01T18:51:05.478657,1654999,1297,1899,-467,-1175,-776,-298,-52,160,-304
14008,4902,0,2023-03-01T18:51:05.483506,1655004,1297,1899,-467,-1175,-776,-298,-52,160,-304
14009,4903,0,2023-03-01T18:51:05.488350,1655009,1297,1899,-467,-1175,-776,-298,-52,160,-304
14010,4904,0,2023-03-01T18:51:05.493559,1655014,1298,1902,-463,-1165,-766,-301,-52,160,-304
14011,4905,0,2023-03-01T18:51:05.499357,1655019,1298,1902,-463,-1165,-766,-301,-52,160,-304
14012,4906,0,2023-03-01T18:51:05.504598,1655024,1298,1902,-463,-1165,-766,-301,-52,160,-304
14013,4907,0,2023-03-01T18:51:05.509471,1655029,1298,1902,-463,-1165,-766,-301,-52,160,-304
14014,4908,0,2023-03-01T18:51:05.514635,1655034,1298,1899,-470,-1165,-766,-293,-52,160,-304
14015,4909,0,2023-03-01T18:51:05.521596,1655042,1298,1899,-470,-1165,-766,-293,-52,160,-304
14016,4910,0,2023-03-01T18:51:05.526231,1655047,1298,1899,-470,-1165,-766,-293,-52,160,-304
14017,4911,0,2023-03-01T18:51:05.531119,1655051,1298,1902,-464,-1164,-797,-294,-52,160,-304
14018,4912,0,2023-03-01T18:51:05.537852,1655058,1298,1902,-464,-1164,-797,-294,-52,160,-304
14019,4913,0,2023-03-01T18:51:05.542775,1655063,1298,1902,-464,-1164,-797,-294,-52,160,-304
14020,4914,0,2023-03-01T18:51:05.547200,1655067,1298,1902,-464,-1164,-797,-294,-52,160,-304
14021,4915,0,2023-03-01T18:51:05.552164,1655072,1294,1901,-475,-1172,-787,-298,-52,160,-304
14022,4916,0,2023-03-01T18:51:05.557837,1655078,1294,1901,-475,-1172,-787,-298,-52,160,-304
14023,4917,0,2023-03-01T18:51:05.562845,1655083,1294,1901,-475,-1172,-787,-298,-52,160,-304
14024,4918,0,2023-03-01T18:51:05.567650,1655088,1294,1901,-475,-1172,-787,-298,-52,160,-304
14025,4919,0,2023-03-01T18:51:05.573206,1655093,1294,1896,-471,-1178,-785,-302,-52,160,-304
14026,4920,0,2023-03-01T18:51:05.578852,1655099,1294,1896,-471,-1178,-785,-302,-52,160,-304
14027,4921,0,2023-03-01T18:51:05.583759,1655104,1294,1896,-471,-1178,-785,-302,-52,160,-304
14028,4922,0,2023-03-01T18:51:05.588613,1655109,1294,1896,-471,-1178,-785,-302,-52,160,-304
14029,4923,0,2023-03-01T18:51:05.593876,1655114,1294,1896,-471,-1178,-785,-302,-48,162,-314
14030,4924,0,2023-03-01T18:51:05.599171,1655119,1294,1896,-471,-1178,-785,-302,-48,162,-314
14031,4925,0,2023-03-01T18:51:05.603880,1655123,1294,1896,-471,-1178,-785,-302,-48,162,-314
14032,4926,0,2023-03-01T18:51:05.608891,1655129,1294,1896,-471,-1178,-785,-302,-48,162,-314
14033,4927,0,2023-03-01T18:51:05.613557,1655134,1297,1900,-466,-1180,-798,-298,-48,162,-314
14034,4928,0,2023-03-01T18:51:05.619677,1655140,1297,1900,-466,-1180,-798,-298,-48,162,-314
14035,4929,0,2023-03-01T18:51:05.624350,1655145,1297,1900,-466,-1180,-798,-298,-48,162,-314
14036,4930,0,2023-03-01T18:51:05.629109,1655149,1297,1900,-466,-1180,-798,-298,-48,162,-314
14037,4931,0,2023-03-01T18:51:05.634463,1655154,1295,1898,-463,-1193,-799,-301,-48,162,-314
14038,4932,0,2023-03-01T18:51:05.640643,1655160,1295,1898,-463,-1193,-799,-301,-48,162,-314
14039,4933,0,2023-03-01T18:51:05.645260,1655165,1295,1898,-463,-1193,-799,-301,-48,162,-314
14040,4934,0,2023-03-01T18:51:05.650104,1655171,1295,1898,-463,-1193,-799,-301,-48,162,-314
14041,4935,0,2023-03-01T18:51:05.654890,1655175,1296,1897,-470,-1188,-800,-295,-48,162,-314
14042,4936,0,2023-03-01T18:51:05.660825,1655181,1296,1897,-470,-1188,-800,-295,-48,162,-314
14043,4937,0,2023-03-01T18:51:05.665345,1655186,1296,1897,-470,-1188,-800,-295,-48,162,-314
14044,4938,0,2023-03-01T18:51:05.670526,1655191,1297,1899,-468,-1181,-785,-297,-48,162,-314
14045,4939,0,2023-03-01T18:51:05.675155,1655195,1297,1899,-468,-1181,-785,-297,-48,162,-314
14046,4940,0,2023-03-01T18:51:05.680421,1655200,1297,1899,-468,-1181,-785,-297,-48,162,-314
14047,4941,0,2023-03-01T18:51:05.685069,1655205,1297,1899,-468,-1181,-785,-297,-48,162,-314
14048,4942,0,2023-03-01T18:51:05.689968,1655211,1297,1899,-468,-1181,-785,-297,-48,162,-314
14049,4943,0,2023-03-01T18:51:05.694723,1655215,1297,1899,-468,-1181,-785,-297,-48,162,-314
14050,4944,0,2023-03-01T18:51:05.700315,1655221,1297,1899,-468,-1181,-785,-297,-48,162,-314
14051,4945,0,2023-03-01T18:51:05.705026,1655225,1297,1899,-468,-1181,-785,-297,-48,162,-314
14052,4946,0,2023-03-01T18:51:05.709838,1655230,1297,1899,-468,-1181,-785,-297,-48,162,-314
14053,4947,0,2023-03-01T18:51:05.715143,1655235,1297,1904,-467,-1184,-793,-294,-51,169,-309
14054,4948,0,2023-03-01T18:51:05.721243,1655241,1297,1904,-467,-1184,-793,-294,-51,169,-309
14055,4949,0,2023-03-01T18:51:05.726060,1655246,1297,1904,-467,-1184,-793,-294,-51,169,-309
14056,4950,0,2023-03-01T18:51:05.730820,1655250,1296,1900,-468,-1185,-790,-293,-51,169,-309
14057,4951,0,2023-03-01T18:51:05.736568,1655257,1296,1900,-468,-1185,-790,-293,-51,169,-309
14058,4952,0,2023-03-01T18:51:05.741500,1655262,1296,1900,-468,-1185,-790,-293,-51,169,-309
14059,4953,0,2023-03-01T18:51:05.746397,1655267,1296,1900,-468,-1185,-790,-293,-51,169,-309
14060,4954,0,2023-03-01T18:51:05.751715,1655272,1296,1899,-470,-1186,-783,-297,-51,169,-309
14061,4955,0,2023-03-01T18:51:05.757516,1655278,1296,1899,-470,-1186,-783,-297,-51,169,-309
14062,4956,0,2023-03-01T18:51:05.762336,1655282,1296,1899,-470,-1186,-783,-297,-51,169,-309
14063,4957,0,2023-03-01T18:51:05.767253,1655287,1296,1899,-470,-1186,-783,-297,-51,169,-309
14064,4958,0,2023-03-01T18:51:05.773002,1655293,1296,1899,-470,-1186,-787,-301,-51,169,-309
14065,4959,0,2023-03-01T18:51:05.779104,1655300,1296,1899,-470,-1186,-787,-301,-51,169,-309
14066,4960,0,2023-03-01T18:51:05.784148,1655305,1296,1899,-470,-1186,-787,-301,-51,169,-309
14067,4961,0,2023-03-01T18:51:05.789067,1655309,1296,1899,-470,-1186,-787,-301,-51,169,-309
14068,4962,0,2023-03-01T18:51:05.794663,1655315,1298,1899,-465,-1184,-779,-298,-51,169,-309
14069,4963,0,2023-03-01T18:51:05.800777,1655321,1298,1899,-465,-1184,-779,-298,-51,169,-309
14070,4964,0,2023-03-01T18:51:05.805586,1655325,1298,1899,-465,-1184,-779,-298,-51,169,-309
14071,4965,0,2023-03-01T18:51:05.810573,1655330,1299,1900,-469,-1180,-782,-301,-51,169,-309
14072,4966,0,2023-03-01T18:51:05.816734,1655336,1299,1900,-469,-1180,-782,-301,-51,169,-309
14073,4967,0,2023-03-01T18:51:05.821944,1655342,1299,1900,-469,-1180,-782,-301,-51,169,-309
14074,4968,0,2023-03-01T18:51:05.826768,1655347,1299,1900,-469,-1180,-782,-301,-51,169,-309
14075,4969,0,2023-03-01T18:51:05.831520,1655352,1296,1900,-464,-1174,-783,-300,-54,158,-314
14076,4970,0,2023-03-01T18:51:05.837589,1655358,1296,1900,-464,-1174,-783,-300,-54,158,-314
14077,4971,0,2023-03-01T18:51:05.842466,1655362,1296,1900,-464,-1174,-783,-300,-54,158,-314
14078,4972,0,2023-03-01T18:51:05.847292,1655367,1296,1900,-464,-1174,-783,-300,-54,158,-314
14079,4973,0,2023-03-01T18:51:05.852268,1655372,1298,1895,-464,-1168,-780,-298,-54,158,-314
14080,4974,0,2023-03-01T18:51:05.859059,1655379,1298,1895,-464,-1168,-780,-298,-54,158,-314
14081,4975,0,2023-03-01T18:51:05.863844,1655384,1298,1895,-464,-1168,-780,-298,-54,158,-314
14082,4976,0,2023-03-01T18:51:05.868637,1655389,1298,1895,-464,-1168,-780,-298,-54,158,-314
14083,4977,0,2023-03-01T18:51:05.874315,1655395,1297,1896,-467,-1175,-781,-303,-54,158,-314
14084,4978,0,2023-03-01T18:51:05.880356,1655400,1297,1896,-467,-1175,-781,-303,-54,158,-314
14085,4979,0,2023-03-01T18:51:05.886217,1655406,1297,1896,-467,-1175,-781,-303,-54,158,-314
14086,4980,0,2023-03-01T18:51:05.891204,1655411,1298,1897,-469,-1175,-783,-303,-54,158,-314
14087,4981,0,2023-03-01T18:51:05.897349,1655417,1298,1897,-469,-1175,-783,-303,-54,158,-314
14088,4982,0,2023-03-01T18:51:05.902455,1655422,1298,1897,-469,-1175,-783,-303,-54,158,-314
14089,4983,0,2023-03-01T18:51:05.907134,1655428,1298,1897,-469,-1175,-783,-303,-54,158,-314
14090,4984,0,2023-03-01T18:51:05.912241,1655432,1299,1896,-469,-1174,-786,-297,-54,158,-314
14091,4985,0,2023-03-01T18:51:05.918488,1655439,1299,1896,-469,-1174,-786,-297,-54,158,-314
14092,4986,0,2023-03-01T18:51:05.923629,1655443,1299,1896,-469,-1174,-786,-297,-54,158,-314
14093,4987,0,2023-03-01T18:51:05.928426,1655449,1299,1896,-469,-1174,-786,-297,-54,158,-314
14094,4988,0,2023-03-01T18:51:05.933746,1655453,1296,1899,-471,-1190,-789,-302,-54,158,-314
14095,4989,0,2023-03-01T18:51:05.939560,1655459,1296,1899,-471,-1190,-789,-302,-54,158,-314
14096,4990,0,2023-03-01T18:51:05.944691,1655464,1296,1899,-471,-1190,-789,-302,-54,158,-314
14097,4991,0,2023-03-01T18:51:05.949494,1655470,1296,1899,-471,-1190,-789,-302,-54,158,-314
14098,4992,0,2023-03-01T18:51:05.954344,1655475,1301,1896,-464,-1188,-792,-305,-54,158,-314
14099,4993,0,2023-03-01T18:51:05.960318,1655480,1301,1896,-464,-1188,-792,-305,-54,158,-314
14100,4994,0,2023-03-01T18:51:05.965575,1655486,1301,1896,-464,-1188,-792,-305,-54,158,-314
14101,4995,0,2023-03-01T18:51:05.970384,1655490,1301,1896,-464,-1188,-792,-305,-54,158,-314
14102,4996,0,2023-03-01T18:51:05.975884,1655496,1298,1900,-461,-1183,-792,-296,-60,162,-306
14103,4997,0,2023-03-01T18:51:05.981875,1655502,1298,1900,-461,-1183,-792,-296,-60,162,-306
14104,4998,0,2023-03-01T18:51:05.986806,1655506,1298,1900,-461,-1183,-792,-296,-60,162,-306
14105,4999,0,2023-03-01T18:51:05.991995,1655512,1298,1900,-464,-1175,-785,-294,-60,162,-306
14106,5000,0,2023-03-01T18:51:05.998447,1655519,1298,1900,-464,-1175,-785,-294,-60,162,-306
14107,5001,0,2023-03-01T18:51:06.003522,1655524,1298,1900,-464,-1175,-785,-294,-60,162,-306
14108,5002,0,2023-03-01T18:51:06.008555,1655529,1298,1900,-464,-1175,-785,-294,-60,162,-306
14109,5003,0,2023-03-01T18:51:06.014227,1655534,1298,1896,-466,-1171,-796,-300,-60,162,-306
14110,5004,0,2023-03-01T18:51:06.020177,1655540,1298,1896,-466,-1171,-796,-300,-60,162,-306
14111,5005,0,2023-03-01T18:51:06.025278,1655545,1298,1896,-466,-1171,-796,-300,-60,162,-306
14112,5006,0,2023-03-01T18:51:06.030353,1655550,1298,1896,-466,-1171,-796,-300,-60,162,-306
14113,5007,0,2023-03-01T18:51:06.035917,1655556,1299,1899,-468,-1163,-800,-300,-60,162,-306
14114,5008,0,2023-03-01T18:51:06.041960,1655562,1299,1899,-468,-1163,-800,-300,-60,162,-306
14115,5009,0,2023-03-01T18:51:06.046859,1655567,1299,1899,-468,-1163,-800,-300,-60,162,-306
14116,5010,0,2023-03-01T18:51:06.051675,1655572,1299,1901,-464,-1178,-786,-304,-60,162,-306
14117,5011,0,2023-03-01T18:51:06.058362,1655578,1299,1901,-464,-1178,-786,-304,-60,162,-306
14118,5012,0,2023-03-01T18:51:06.063365,1655583,1299,1901,-464,-1178,-786,-304,-60,162,-306
14119,5013,0,2023-03-01T18:51:06.068335,1655588,1299,1901,-464,-1178,-786,-304,-60,162,-306
14120,5014,0,2023-03-01T18:51:06.073153,1655593,1299,1894,-466,-1185,-789,-301,-60,162,-306
14121,5015,0,2023-03-01T18:51:06.079662,1655600,1299,1894,-466,-1185,-789,-301,-60,162,-306
14122,5016,0,2023-03-01T18:51:06.084749,1655605,1299,1894,-466,-1185,-789,-301,-60,162,-306
14123,5017,0,2023-03-01T18:51:06.090009,1655610,1299,1894,-466,-1185,-789,-301,-60,162,-306
14124,5018,0,2023-03-01T18:51:06.095007,1655615,1299,1898,-466,-1177,-786,-299,-50,168,-312
14125,5019,0,2023-03-01T18:51:06.100782,1655621,1299,1898,-466,-1177,-786,-299,-50,168,-312
14126,5020,0,2023-03-01T18:51:06.105570,1655625,1299,1898,-466,-1177,-786,-299,-50,168,-312
14127,5021,0,2023-03-01T18:51:06.110454,1655630,1299,1898,-466,-1177,-786,-299,-50,168,-312
14128,5022,0,2023-03-01T18:51:06.115262,1655635,1299,1898,-459,-1176,-798,-293,-50,168,-312
14129,5023,0,2023-03-01T18:51:06.121201,1655642,1299,1898,-459,-1176,-798,-293,-50,168,-312
14130,5024,0,2023-03-01T18:51:06.126167,1655647,1299,1898,-459,-1176,-798,-293,-50,168,-312
14131,5025,0,2023-03-01T18:51:06.131123,1655651,1304,1897,-465,-1180,-792,-303,-50,168,-312
14132,5026,0,2023-03-01T18:51:06.137243,1655657,1304,1897,-465,-1180,-792,-303,-50,168,-312
14133,5027,0,2023-03-01T18:51:06.142943,1655663,1304,1897,-465,-1180,-792,-303,-50,168,-312
14134,5028,0,2023-03-01T18:51:06.147969,1655668,1304,1897,-465,-1180,-792,-303,-50,168,-312
14135,5029,0,2023-03-01T18:51:06.153449,1655673,1296,1897,-461,-1179,-788,-298,-50,168,-312
14136,5030,0,2023-03-01T18:51:06.159470,1655680,1296,1897,-461,-1179,-788,-298,-50,168,-312
14137,5031,0,2023-03-01T18:51:06.164703,1655685,1296,1897,-461,-1179,-788,-298,-50,168,-312
14138,5032,0,2023-03-01T18:51:06.169725,1655690,1296,1897,-461,-1179,-788,-298,-50,168,-312
14139,5033,0,2023-03-01T18:51:06.174232,1655695,1298,1898,-466,-1191,-793,-298,-50,168,-312
14140,5034,0,2023-03-01T18:51:06.180762,1655700,1298,1898,-466,-1191,-793,-298,-50,168,-312
14141,5035,0,2023-03-01T18:51:06.186284,1655706,1298,1898,-466,-1191,-793,-298,-50,168,-312
14142,5036,0,2023-03-01T18:51:06.191251,1655711,1299,1897,-472,-1190,-792,-297,-50,168,-312
14143,5037,0,2023-03-01T18:51:06.197143,1655717,1299,1897,-472,-1190,-792,-297,-50,168,-312
14144,5038,0,2023-03-01T18:51:06.202671,1655723,1299,1897,-472,-1190,-792,-297,-50,168,-312
14145,5039,0,2023-03-01T18:51:06.207406,1655728,1299,1897,-472,-1190,-792,-297,-50,168,-312
14146,5040,0,2023-03-01T18:51:06.212373,1655733,1300,1896,-468,-1181,-783,-300,-50,168,-312
14147,5041,0,2023-03-01T18:51:06.217166,1655737,1300,1896,-468,-1181,-783,-300,-50,168,-312
14148,5042,0,2023-03-01T18:51:06.222278,1655742,1300,1896,-468,-1181,-783,-300,-50,168,-312
14149,5043,0,2023-03-01T18:51:06.227365,1655747,1300,1896,-468,-1181,-783,-300,-50,168,-312
14150,5044,0,2023-03-01T18:51:06.233098,1655753,1300,1896,-468,-1181,-783,-300,-52,168,-310
14151,5045,0,2023-03-01T18:51:06.238366,1655758,1300,1896,-468,-1181,-783,-300,-52,168,-310
14152,5046,0,2023-03-01T18:51:06.243092,1655763,1300,1896,-468,-1181,-783,-300,-52,168,-310
14153,5047,0,2023-03-01T18:51:06.248059,1655768,1300,1896,-468,-1181,-783,-300,-52,168,-310
14154,5048,0,2023-03-01T18:51:06.253281,1655773,1299,1898,-470,-1194,-798,-300,-52,168,-310
14155,5049,0,2023-03-01T18:51:06.259518,1655780,1299,1898,-470,-1194,-798,-300,-52,168,-310
14156,5050,0,2023-03-01T18:51:06.264425,1655785,1299,1898,-470,-1194,-798,-300,-52,168,-310
14157,5051,0,2023-03-01T18:51:06.269775,1655790,1299,1898,-470,-1194,-798,-300,-52,168,-310
14158,5052,0,2023-03-01T18:51:06.274548,1655794,1301,1898,-469,-1190,-792,-309,-52,168,-310
14159,5053,0,2023-03-01T18:51:06.281178,1655801,1301,1898,-469,-1190,-792,-309,-52,168,-310
14160,5054,0,2023-03-01T18:51:06.286494,1655806,1301,1898,-469,-1190,-792,-309,-52,168,-310
14161,5055,0,2023-03-01T18:51:06.291578,1655812,1298,1897,-475,-1182,-787,-296,-52,168,-310
14162,5056,0,2023-03-01T18:51:06.298676,1655819,1298,1897,-475,-1182,-787,-296,-52,168,-310
14163,5057,0,2023-03-01T18:51:06.303640,1655824,1298,1897,-475,-1182,-787,-296,-52,168,-310
14164,5058,0,2023-03-01T18:51:06.308370,1655829,1298,1897,-475,-1182,-787,-296,-52,168,-310
14165,5059,0,2023-03-01T18:51:06.313827,1655834,1297,1897,-468,-1187,-788,-296,-52,168,-310
14166,5060,0,2023-03-01T18:51:06.319864,1655840,1297,1897,-468,-1187,-788,-296,-52,168,-310
14167,5061,0,2023-03-01T18:51:06.324606,1655844,1297,1897,-468,-1187,-788,-296,-52,168,-310
14168,5062,0,2023-03-01T18:51:06.329475,1655849,1297,1897,-468,-1187,-788,-296,-52,168,-310
14169,5063,0,2023-03-01T18:51:06.334450,1655855,1296,1898,-471,-1175,-790,-296,-52,168,-310
14170,5064,0,2023-03-01T18:51:06.340580,1655861,1296,1898,-471,-1175,-790,-296,-52,168,-310
14171,5065,0,2023-03-01T18:51:06.345538,1655866,1296,1898,-471,-1175,-790,-296,-52,168,-310
14172,5066,0,2023-03-01T18:51:06.350214,1655870,1296,1898,-471,-1175,-790,-296,-52,168,-310
14173,5067,0,2023-03-01T18:51:06.355687,1655876,1302,1900,-469,-1175,-782,-293,-56,166,-312
14174,5068,0,2023-03-01T18:51:06.361574,1655881,1302,1900,-469,-1175,-782,-293,-56,166,-312
14175,5069,0,2023-03-01T18:51:06.366723,1655886,1302,1900,-469,-1175,-782,-293,-56,166,-312
14176,5070,0,2023-03-01T18:51:06.371495,1655891,1295,1894,-468,-1169,-777,-293,-56,166,-312
14177,5071,0,2023-03-01T18:51:06.377915,1655898,1295,1894,-468,-1169,-777,-293,-56,166,-312
14178,5072,0,2023-03-01T18:51:06.382726,1655903,1295,1894,-468,-1169,-777,-293,-56,166,-312
14179,5073,0,2023-03-01T18:51:06.387816,1655908,1295,1894,-468,-1169,-777,-293,-56,166,-312
14180,5074,0,2023-03-01T18:51:06.393775,1655914,1298,1897,-466,-1169,-768,-307,-56,166,-312
14181,5075,0,2023-03-01T18:51:06.399610,1655919,1298,1897,-466,-1169,-768,-307,-56,166,-312
14182,5076,0,2023-03-01T18:51:06.404628,1655924,1298,1897,-466,-1169,-768,-307,-56,166,-312
14183,5077,0,2023-03-01T18:51:06.409820,1655930,1298,1897,-466,-1169,-768,-307,-56,166,-312
14184,5078,0,2023-03-01T18:51:06.415439,1655936,1298,1897,-466,-1169,-768,-307,-56,166,-312
14185,5079,0,2023-03-01T18:51:06.420505,1655941,1298,1897,-466,-1169,-768,-307,-56,166,-312
14186,5080,0,2023-03-01T18:51:06.425159,1655946,1298,1897,-466,-1169,-768,-307,-56,166,-312
14187,5081,0,2023-03-01T18:51:06.429929,1655950,1298,1897,-466,-1169,-768,-307,-56,166,-312
14188,5082,0,2023-03-01T18:51:06.434876,1655955,1299,1897,-464,-1171,-777,-302,-56,166,-312
14189,5083,0,2023-03-01T18:51:06.440867,1655961,1299,1897,-464,-1171,-777,-302,-56,166,-312
14190,5084,0,2023-03-01T18:51:06.445855,1655966,1299,1897,-464,-1171,-777,-302,-56,166,-312
14191,5085,0,2023-03-01T18:51:06.450488,1655970,1299,1897,-464,-1171,-777,-302,-56,166,-312
14192,5086,0,2023-03-01T18:51:06.455329,1655975,1298,1897,-472,-1168,-773,-303,-56,166,-312
14193,5087,0,2023-03-01T18:51:06.461283,1655982,1298,1897,-472,-1168,-773,-303,-56,166,-312
14194,5088,0,2023-03-01T18:51:06.466076,1655987,1298,1897,-472,-1168,-773,-303,-56,166,-312
14195,5089,0,2023-03-01T18:51:06.471397,1655992,1298,1897,-472,-1168,-773,-303,-56,166,-312
14196,5090,0,2023-03-01T18:51:06.476755,1655997,1301,1895,-466,-1158,-761,-300,-56,166,-312
14197,5091,0,2023-03-01T18:51:06.482728,1656002,1301,1895,-466,-1158,-761,-300,-56,166,-312
14198,5092,0,2023-03-01T18:51:06.487930,1656008,1301,1895,-466,-1158,-761,-300,-56,166,-312
14199,5093,0,2023-03-01T18:51:06.492957,1656013,1301,1900,-465,-1162,-764,-302,-53,169,-307
14200,5094,0,2023-03-01T18:51:06.499043,1656019,1301,1900,-465,-1162,-764,-302,-53,169,-307
14201,5095,0,2023-03-01T18:51:06.503567,1656024,1301,1900,-465,-1162,-764,-302,-53,169,-307
14202,5096,0,2023-03-01T18:51:06.508520,1656029,1301,1900,-465,-1162,-764,-302,-53,169,-307
14203,5097,0,2023-03-01T18:51:06.513521,1656034,1300,1897,-468,-1159,-786,-292,-53,169,-307
14204,5098,0,2023-03-01T18:51:06.519435,1656040,1300,1897,-468,-1159,-786,-292,-53,169,-307
14205,5099,0,2023-03-01T18:51:06.524763,1656044,1300,1897,-468,-1159,-786,-292,-53,169,-307
14206,5100,0,2023-03-01T18:51:06.529926,1656050,1300,1897,-468,-1159,-786,-292,-53,169,-307
14207,5101,0,2023-03-01T18:51:06.534804,1656055,1300,1899,-467,-1167,-786,-299,-53,169,-307
14208,5102,0,2023-03-01T18:51:06.541039,1656060,1300,1899,-467,-1167,-786,-299,-53,169,-307
14209,5103,0,2023-03-01T18:51:06.546210,1656067,1300,1899,-467,-1167,-786,-299,-53,169,-307
14210,5104,0,2023-03-01T18:51:06.551339,1656072,1300,1899,-467,-1167,-786,-299,-53,169,-307
14211,5105,0,2023-03-01T18:51:06.556025,1656076,1303,1895,-470,-1167,-792,-299,-53,169,-307
14212,5106,0,2023-03-01T18:51:06.561901,1656082,1303,1895,-470,-1167,-792,-299,-53,169,-307
14213,5107,0,2023-03-01T18:51:06.566732,1656087,1303,1895,-470,-1167,-792,-299,-53,169,-307
14214,5108,0,2023-03-01T18:51:06.571409,1656091,1303,1895,-470,-1167,-792,-299,-53,169,-307
14215,5109,0,2023-03-01T18:51:06.576182,1656096,1303,1895,-470,-1167,-792,-299,-53,169,-307
14216,5110,0,2023-03-01T18:51:06.580811,1656101,1303,1895,-470,-1167,-792,-299,-53,169,-307
14217,5111,0,2023-03-01T18:51:06.585466,1656105,1303,1895,-470,-1167,-792,-299,-53,169,-307
14218,5112,0,2023-03-01T18:51:06.590299,1656111,1303,1895,-470,-1167,-792,-299,-53,169,-307
14219,5113,0,2023-03-01T18:51:06.595223,1656115,1301,1897,-470,-1174,-778,-307,-53,169,-307
14220,5114,0,2023-03-01T18:51:06.601516,1656122,1301,1897,-470,-1174,-778,-307,-53,169,-307
14221,5115,0,2023-03-01T18:51:06.606391,1656126,1301,1897,-470,-1174,-778,-307,-53,169,-307
14222,5116,0,2023-03-01T18:51:06.611624,1656131,1301,1897,-470,-1174,-778,-307,-53,169,-307
14223,5117,0,2023-03-01T18:51:06.617088,1656137,1303,1894,-463,-1173,-777,-307,-51,155,-309
14224,5118,0,2023-03-01T18:51:06.623448,1656143,1303,1894,-463,-1173,-777,-307,-51,155,-309
14225,5119,0,2023-03-01T18:51:06.629169,1656148,1303,1894,-463,-1173,-777,-307,-51,155,-309
14226,5120,0,2023-03-01T18:51:06.634147,1656155,1300,1898,-466,-1182,-782,-308,-51,155,-309
14227,5121,0,2023-03-01T18:51:06.641099,1656161,1300,1898,-466,-1182,-782,-308,-51,155,-309
14228,5122,0,2023-03-01T18:51:06.646032,1656166,1300,1898,-466,-1182,-782,-308,-51,155,-309
14229,5123,0,2023-03-01T18:51:06.651320,1656171,1300,1898,-466,-1182,-782,-308,-51,155,-309
14230,5124,0,2023-03-01T18:51:06.656853,1656177,1298,1896,-463,-1182,-787,-308,-51,155,-309
14231,5125,0,2023-03-01T18:51:06.663054,1656183,1298,1896,-463,-1182,-787,-308,-51,155,-309
14232,5126,0,2023-03-01T18:51:06.667664,1656187,1298,1896,-463,-1182,-787,-308,-51,155,-309
14233,5127,0,2023-03-01T18:51:06.672382,1656193,1301,1896,-471,-1179,-790,-302,-51,155,-309
14234,5128,0,2023-03-01T18:51:06.678564,1656199,1301,1896,-471,-1179,-790,-302,-51,155,-309
14235,5129,0,2023-03-01T18:51:06.683481,1656204,1301,1896,-471,-1179,-790,-302,-51,155,-309
14236,5130,0,2023-03-01T18:51:06.688321,1656209,1301,1896,-471,-1179,-790,-302,-51,155,-309
14237,5131,0,2023-03-01T18:51:06.694308,1656214,1299,1895,-472,-1193,-794,-298,-51,155,-309
14238,5132,0,2023-03-01T18:51:06.700221,1656220,1299,1895,-472,-1193,-794,-298,-51,155,-309
14239,5133,0,2023-03-01T18:51:06.705253,1656225,1299,1895,-472,-1193,-794,-298,-51,155,-309
14240,5134,0,2023-03-01T18:51:06.710056,1656230,1299,1895,-472,-1193,-794,-298,-51,155,-309
14241,5135,0,2023-03-01T18:51:06.714612,1656235,1302,1899,-470,-1198,-793,-303,-51,155,-309
14242,5136,0,2023-03-01T18:51:06.720232,1656241,1302,1899,-470,-1198,-793,-303,-51,155,-309
14243,5137,0,2023-03-01T18:51:06.724963,1656245,1302,1899,-470,-1198,-793,-303,-51,155,-309
14244,5138,0,2023-03-01T18:51:06.729754,1656250,1302,1899,-470,-1198,-793,-303,-51,155,-309
14245,5139,0,2023-03-01T18:51:06.735077,1656255,1302,1899,-469,-1198,-791,-300,-56,162,-308
14246,5140,0,2023-03-01T18:51:06.741657,1656262,1302,1899,-469,-1198,-791,-300,-56,162,-308
14247,5141,0,2023-03-01T18:51:06.746384,1656266,1302,1899,-469,-1198,-791,-300,-56,162,-308
14248,5142,0,2023-03-01T18:51:06.751256,1656271,1302,1899,-469,-1198,-791,-300,-56,162,-308
14249,5143,0,2023-03-01T18:51:06.755961,1656276,1304,1897,-466,-1183,-784,-292,-56,162,-308
14250,5144,0,2023-03-01T18:51:06.761756,1656282,1304,1897,-466,-1183,-784,-292,-56,162,-308
14251,5145,0,2023-03-01T18:51:06.766974,1656287,1304,1897,-466,-1183,-784,-292,-56,162,-308
14252,5146,0,2023-03-01T18:51:06.771705,1656292,1303,1897,-468,-1181,-791,-295,-56,162,-308
14253,5147,0,2023-03-01T18:51:06.777640,1656298,1303,1897,-468,-1181,-791,-295,-56,162,-308
14254,5148,0,2023-03-01T18:51:06.782611,1656302,1303,1897,-468,-1181,-791,-295,-56,162,-308
14255,5149,0,2023-03-01T18:51:06.787807,1656307,1303,1897,-468,-1181,-791,-295,-56,162,-308
14256,5150,0,2023-03-01T18:51:06.792489,1656312,1301,1895,-464,-1182,-782,-302,-56,162,-308
14257,5151,0,2023-03-01T18:51:06.799153,1656318,1301,1895,-464,-1182,-782,-302,-56,162,-308
14258,5152,0,2023-03-01T18:51:06.804111,1656325,1301,1895,-464,-1182,-782,-302,-56,162,-308
14259,5153,0,2023-03-01T18:51:06.809012,1656329,1301,1895,-464,-1182,-782,-302,-56,162,-308
14260,5154,0,2023-03-01T18:51:06.814433,1656335,1308,1897,-469,-1173,-792,-306,-56,162,-308
14261,5155,0,2023-03-01T18:51:06.820253,1656340,1308,1897,-469,-1173,-792,-306,-56,162,-308
14262,5156,0,2023-03-01T18:51:06.825380,1656345,1308,1897,-469,-1173,-792,-306,-56,162,-308
14263,5157,0,2023-03-01T18:51:06.830448,1656350,1308,1897,-469,-1173,-792,-306,-56,162,-308
14264,5158,0,2023-03-01T18:51:06.835422,1656355,1302,1898,-463,-1180,-785,-304,-56,162,-308
14265,5159,0,2023-03-01T18:51:06.841748,1656361,1302,1898,-463,-1180,-785,-304,-56,162,-308
14266,5160,0,2023-03-01T18:51:06.847164,1656367,1302,1898,-463,-1180,-785,-304,-56,162,-308
14267,5161,0,2023-03-01T18:51:06.852611,1656373,1297,1891,-466,-1188,-792,-309,-56,162,-308
14268,5162,0,2023-03-01T18:51:06.859210,1656379,1297,1891,-466,-1188,-792,-309,-56,162,-308
14269,5163,0,2023-03-01T18:51:06.864134,1656384,1297,1891,-466,-1188,-792,-309,-56,162,-308
14270,5164,0,2023-03-01T18:51:06.868855,1656389,1297,1891,-466,-1188,-792,-309,-56,162,-308
14271,5165,0,2023-03-01T18:51:06.874344,1656394,1304,1898,-468,-1186,-795,-302,-50,162,-320
14272,5166,0,2023-03-01T18:51:06.880426,1656400,1304,1898,-468,-1186,-795,-302,-50,162,-320
14273,5167,0,2023-03-01T18:51:06.885520,1656406,1304,1898,-468,-1186,-795,-302,-50,162,-320
14274,5168,0,2023-03-01T18:51:06.890477,1656411,1304,1898,-468,-1186,-795,-302,-50,162,-320
14275,5169,0,2023-03-01T18:51:06.895606,1656416,1301,1898,-463,-1182,-797,-295,-50,162,-320
14276,5170,0,2023-03-01T18:51:06.901257,1656422,1301,1898,-463,-1182,-797,-295,-50,162,-320
14277,5171,0,2023-03-01T18:51:06.906472,1656426,1301,1898,-463,-1182,-797,-295,-50,162,-320
14278,5172,0,2023-03-01T18:51:06.911457,1656431,1301,1898,-463,-1182,-797,-295,-50,162,-320
14279,5173,0,2023-03-01T18:51:06.916056,1656436,1298,1897,-466,-1190,-796,-296,-50,162,-320
14280,5174,0,2023-03-01T18:51:06.921900,1656442,1298,1897,-466,-1190,-796,-296,-50,162,-320
14281,5175,0,2023-03-01T18:51:06.927213,1656448,1298,1897,-466,-1190,-796,-296,-50,162,-320
14282,5176,0,2023-03-01T18:51:06.932077,1656453,1299,1896,-465,-1188,-781,-299,-50,162,-320
14283,5177,0,2023-03-01T18:51:06.938978,1656459,1299,1896,-465,-1188,-781,-299,-50,162,-320
14284,5178,0,2023-03-01T18:51:06.943831,1656464,1299,1896,-465,-1188,-781,-299,-50,162,-320
14285,5179,0,2023-03-01T18:51:06.948682,1656469,1299,1896,-465,-1188,-781,-299,-50,162,-320
14286,5180,0,2023-03-01T18:51:06.953464,1656473,1305,1895,-463,-1176,-774,-298,-50,162,-320
14287,5181,0,2023-03-01T18:51:06.959932,1656480,1305,1895,-463,-1176,-774,-298,-50,162,-320
14288,5182,0,2023-03-01T18:51:06.964597,1656484,1305,1895,-463,-1176,-774,-298,-50,162,-320
14289,5183,0,2023-03-01T18:51:06.969699,1656489,1305,1895,-463,-1176,-774,-298,-50,162,-320
14290,5184,0,2023-03-01T18:51:06.975309,1656496,1305,1899,-469,-1193,-788,-304,-50,162,-320
14291,5185,0,2023-03-01T18:51:06.981407,1656502,1305,1899,-469,-1193,-788,-304,-50,162,-320
14292,5186,0,2023-03-01T18:51:06.988494,1656509,1305,1899,-469,-1193,-788,-304,-50,162,-320
14293,5187,0,2023-03-01T18:51:06.993553,1656513,1302,1898,-468,-1180,-785,-304,-63,169,-307
14294,5188,0,2023-03-01T18:51:07.000357,1656520,1302,1898,-468,-1180,-785,-304,-63,169,-307
14295,5189,0,2023-03-01T18:51:07.004969,1656525,1302,1898,-468,-1180,-785,-304,-63,169,-307
14296,5190,0,2023-03-01T18:51:07.009807,1656529,1302,1898,-468,-1180,-785,-304,-63,169,-307
14297,5191,0,2023-03-01T18:51:07.014671,1656535,1302,1893,-461,-1172,-781,-303,-63,169,-307
14298,5192,0,2023-03-01T18:51:07.020496,1656541,1302,1893,-461,-1172,-781,-303,-63,169,-307
14299,5193,0,2023-03-01T18:51:07.025432,1656546,1302,1893,-461,-1172,-781,-303,-63,169,-307
14300,5194,0,2023-03-01T18:51:07.030515,1656551,1302,1893,-461,-1172,-781,-303,-63,169,-307
14301,5195,0,2023-03-01T18:51:07.034994,1656555,1302,1894,-468,-1173,-799,-300,-63,169,-307
14302,5196,0,2023-03-01T18:51:07.040626,1656561,1302,1894,-468,-1173,-799,-300,-63,169,-307
14303,5197,0,2023-03-01T18:51:07.045626,1656565,1302,1894,-468,-1173,-799,-300,-63,169,-307
14304,5198,0,2023-03-01T18:51:07.050501,1656570,1302,1894,-468,-1173,-799,-300,-63,169,-307
14305,5199,0,2023-03-01T18:51:07.055252,1656576,1302,1895,-467,-1177,-792,-300,-63,169,-307
14306,5200,0,2023-03-01T18:51:07.061097,1656582,1302,1895,-467,-1177,-792,-300,-63,169,-307
14307,5201,0,2023-03-01T18:51:07.065995,1656586,1302,1895,-467,-1177,-792,-300,-63,169,-307
14308,5202,0,2023-03-01T18:51:07.070871,1656591,1302,1895,-467,-1177,-792,-300,-63,169,-307
14309,5203,0,2023-03-01T18:51:07.075747,1656596,1299,1893,-469,-1182,-796,-302,-63,169,-307
14310,5204,0,2023-03-01T18:51:07.082013,1656602,1299,1893,-469,-1182,-796,-302,-63,169,-307
14311,5205,0,2023-03-01T18:51:07.086730,1656607,1299,1893,-469,-1182,-796,-302,-63,169,-307
14312,5206,0,2023-03-01T18:51:07.091710,1656611,1299,1893,-469,-1182,-796,-302,-63,169,-307
14313,5207,0,2023-03-01T18:51:07.097682,1656617,1300,1894,-470,-1177,-784,-302,-63,169,-307
14314,5208,0,2023-03-01T18:51:07.103346,1656624,1300,1894,-470,-1177,-784,-302,-63,169,-307
14315,5209,0,2023-03-01T18:51:07.108497,1656629,1300,1894,-470,-1177,-784,-302,-63,169,-307
14316,5210,0,2023-03-01T18:51:07.113454,1656634,1306,1893,-467,-1178,-785,-298,-63,169,-307
14317,5211,0,2023-03-01T18:51:07.118516,1656639,1306,1893,-467,-1178,-785,-298,-63,169,-307
14318,5212,0,2023-03-01T18:51:07.123521,1656644,1306,1893,-467,-1178,-785,-298,-63,169,-307
14319,5213,0,2023-03-01T18:51:07.128148,1656648,1306,1893,-467,-1178,-785,-298,-63,169,-307
14320,5214,0,2023-03-01T18:51:07.132811,1656653,1304,1900,-464,-1193,-802,-305,-49,165,-309
14321,5215,0,2023-03-01T18:51:07.139150,1656659,1304,1900,-464,-1193,-802,-305,-49,165,-309
14322,5216,0,2023-03-01T18:51:07.143655,1656664,1304,1900,-464,-1193,-802,-305,-49,165,-309
14323,5217,0,2023-03-01T18:51:07.148295,1656669,1304,1900,-464,-1193,-802,-305,-49,165,-309
14324,5218,0,2023-03-01T18:51:07.153763,1656674,1301,1894,-472,-1191,-796,-305,-49,165,-309
14325,5219,0,2023-03-01T18:51:07.159781,1656680,1301,1894,-472,-1191,-796,-305,-49,165,-309
14326,5220,0,2023-03-01T18:51:07.164780,1656685,1301,1894,-472,-1191,-796,-305,-49,165,-309
14327,5221,0,2023-03-01T18:51:07.169888,1656690,1301,1894,-472,-1191,-796,-305,-49,165,-309
14328,5222,0,2023-03-01T18:51:07.175857,1656695,1304,1894,-468,-1184,-794,-299,-49,165,-309
14329,5223,0,2023-03-01T18:51:07.183108,1656704,1304,1894,-468,-1184,-794,-299,-49,165,-309
14330,5224,0,2023-03-01T18:51:07.188199,1656709,1304,1894,-468,-1184,-794,-299,-49,165,-309
14331,5225,0,2023-03-01T18:51:07.193412,1656714,1299,1893,-465,-1191,-798,-298,-49,165,-309
14332,5226,0,2023-03-01T18:51:07.199458,1656720,1299,1893,-465,-1191,-798,-298,-49,165,-309
14333,5227,0,2023-03-01T18:51:07.204197,1656724,1299,1893,-465,-1191,-798,-298,-49,165,-309
14334,5228,0,2023-03-01T18:51:07.209001,1656729,1299,1893,-465,-1191,-798,-298,-49,165,-309
14335,5229,0,2023-03-01T18:51:07.214562,1656734,1300,1899,-464,-1187,-794,-304,-49,165,-309
14336,5230,0,2023-03-01T18:51:07.220863,1656740,1300,1899,-464,-1187,-794,-304,-49,165,-309
14337,5231,0,2023-03-01T18:51:07.225671,1656745,1300,1899,-464,-1187,-794,-304,-49,165,-309
14338,5232,0,2023-03-01T18:51:07.230447,1656751,1300,1899,-464,-1187,-794,-304,-49,165,-309
14339,5233,0,2023-03-01T18:51:07.235815,1656756,1303,1899,-473,-1186,-803,-298,-49,165,-309
14340,5234,0,2023-03-01T18:51:07.241851,1656762,1303,1899,-473,-1186,-803,-298,-49,165,-309
14341,5235,0,2023-03-01T18:51:07.246720,1656767,1303,1899,-473,-1186,-803,-298,-49,165,-309
14342,5236,0,2023-03-01T18:51:07.251405,1656771,1303,1899,-473,-1186,-803,-298,-49,165,-309
14343,5237,0,2023-03-01T18:51:07.256919,1656777,1301,1895,-467,-1192,-791,-303,-57,165,-305
14344,5238,0,2023-03-01T18:51:07.262618,1656782,1301,1895,-467,-1192,-791,-303,-57,165,-305
14345,5239,0,2023-03-01T18:51:07.267177,1656787,1301,1895,-467,-1192,-791,-303,-57,165,-305
14346,5240,0,2023-03-01T18:51:07.272230,1656793,1301,1895,-467,-1192,-791,-303,-57,165,-305
14347,5241,0,2023-03-01T18:51:07.278018,1656798,1300,1895,-464,-1187,-791,-301,-57,165,-305
14348,5242,0,2023-03-01T18:51:07.283744,1656804,1300,1895,-464,-1187,-791,-301,-57,165,-305
14349,5243,0,2023-03-01T18:51:07.289237,1656809,1300,1895,-464,-1187,-791,-301,-57,165,-305
14350,5244,0,2023-03-01T18:51:07.294863,1656815,1306,1896,-464,-1184,-793,-297,-57,165,-305
14351,5245,0,2023-03-01T18:51:07.300783,1656821,1306,1896,-464,-1184,-793,-297,-57,165,-305
14352,5246,0,2023-03-01T18:51:07.306124,1656826,1306,1896,-464,-1184,-793,-297,-57,165,-305
14353,5247,0,2023-03-01T18:51:07.311034,1656832,1306,1896,-464,-1184,-793,-297,-57,165,-305
14354,5248,0,2023-03-01T18:51:07.315713,1656836,1305,1896,-468,-1193,-795,-290,-57,165,-305
14355,5249,0,2023-03-01T18:51:07.322005,1656842,1305,1896,-468,-1193,-795,-290,-57,165,-305
14356,5250,0,2023-03-01T18:51:07.327233,1656847,1305,1896,-468,-1193,-795,-290,-57,165,-305
14357,5251,0,2023-03-01T18:51:07.332716,1656853,1304,1893,-473,-1195,-802,-299,-57,165,-305
14358,5252,0,2023-03-01T18:51:07.339340,1656859,1304,1893,-473,-1195,-802,-299,-57,165,-305
14359,5253,0,2023-03-01T18:51:07.344139,1656864,1304,1893,-473,-1195,-802,-299,-57,165,-305
14360,5254,0,2023-03-01T18:51:07.349245,1656869,1304,1893,-473,-1195,-802,-299,-57,165,-305
14361,5255,0,2023-03-01T18:51:07.354401,1656875,1304,1893,-467,-1190,-794,-299,-57,165,-305
14362,5256,0,2023-03-01T18:51:07.361617,1656882,1304,1893,-467,-1190,-794,-299,-57,165,-305
14363,5257,0,2023-03-01T18:51:07.366893,1656887,1304,1893,-467,-1190,-794,-299,-57,165,-305
14364,5258,0,2023-03-01T18:51:07.371743,1656892,1304,1893,-467,-1190,-794,-299,-57,165,-305
14365,5259,0,2023-03-01T18:51:07.377865,1656898,1303,1894,-463,-1191,-798,-300,-54,164,-306
14366,5260,0,2023-03-01T18:51:07.383441,1656903,1303,1894,-463,-1191,-798,-300,-54,164,-306
14367,5261,0,2023-03-01T18:51:07.388785,1656908,1303,1894,-463,-1191,-798,-300,-54,164,-306
14368,5262,0,2023-03-01T18:51:07.393562,1656913,1303,1896,-466,-1196,-795,-299,-54,164,-306
14369,5263,0,2023-03-01T18:51:07.400126,1656920,1303,1896,-466,-1196,-795,-299,-54,164,-306
14370,5264,0,2023-03-01T18:51:07.405117,1656925,1303,1896,-466,-1196,-795,-299,-54,164,-306
14371,5265,0,2023-03-01T18:51:07.410226,1656930,1303,1896,-466,-1196,-795,-299,-54,164,-306
14372,5266,0,2023-03-01T18:51:07.416218,1656936,1307,1894,-465,-1181,-794,-295,-54,164,-306
14373,5267,0,2023-03-01T18:51:07.422396,1656942,1307,1894,-465,-1181,-794,-295,-54,164,-306
14374,5268,0,2023-03-01T18:51:07.427234,1656947,1307,1894,-465,-1181,-794,-295,-54,164,-306
14375,5269,0,2023-03-01T18:51:07.432039,1656952,1307,1894,-465,-1181,-794,-295,-54,164,-306
14376,5270,0,2023-03-01T18:51:07.437974,1656957,1304,1894,-469,-1190,-801,-303,-54,164,-306
14377,5271,0,2023-03-01T18:51:07.443108,1656964,1304,1894,-469,-1190,-801,-303,-54,164,-306
14378,5272,0,2023-03-01T18:51:07.448171,1656968,1304,1894,-469,-1190,-801,-303,-54,164,-306
14379,5273,0,2023-03-01T18:51:07.453092,1656973,1307,1898,-471,-1192,-807,-294,-54,164,-306
14380,5274,0,2023-03-01T18:51:07.459449,1656980,1307,1898,-471,-1192,-807,-294,-54,164,-306
14381,5275,0,2023-03-01T18:51:07.464177,1656984,1307,1898,-471,-1192,-807,-294,-54,164,-306
14382,5276,0,2023-03-01T18:51:07.469026,1656989,1307,1898,-471,-1192,-807,-294,-54,164,-306
14383,5277,0,2023-03-01T18:51:07.473882,1656994,1303,1896,-473,-1190,-798,-299,-54,164,-306
14384,5278,0,2023-03-01T18:51:07.479921,1657000,1303,1896,-473,-1190,-798,-299,-54,164,-306
14385,5279,0,2023-03-01T18:51:07.484749,1657005,1303,1896,-473,-1190,-798,-299,-54,164,-306
14386,5280,0,2023-03-01T18:51:07.489495,1657010,1303,1896,-473,-1190,-798,-299,-54,164,-306
14387,5281,0,2023-03-01T18:51:07.494625,1657015,1302,1896,-470,-1190,-794,-298,-54,164,-306
14388,5282,0,2023-03-01T18:51:07.500392,1657021,1302,1896,-470,-1190,-794,-298,-54,164,-306
14389,5283,0,2023-03-01T18:51:07.505173,1657025,1302,1896,-470,-1190,-794,-298,-54,164,-306
14390,5284,0,2023-03-01T18:51:07.510029,1657030,1302,1896,-470,-1190,-794,-298,-54,164,-306
14391,5285,0,2023-03-01T18:51:07.514977,1657035,1304,1896,-463,-1187,-806,-298,-54,162,-316
14392,5286,0,2023-03-01T18:51:07.520920,1657041,1304,1896,-463,-1187,-806,-298,-54,162,-316
14393,5287,0,2023-03-01T18:51:07.526044,1657046,1304,1896,-463,-1187,-806,-298,-54,162,-316
14394,5288,0,2023-03-01T18:51:07.531016,1657052,1304,1896,-463,-1187,-806,-298,-54,162,-316
14395,5289,0,2023-03-01T18:51:07.536422,1657057,1304,1895,-473,-1184,-813,-303,-54,162,-316
14396,5290,0,2023-03-01T18:51:07.542649,1657063,1304,1895,-473,-1184,-813,-303,-54,162,-316
14397,5291,0,2023-03-01T18:51:07.547510,1657068,1304,1895,-473,-1184,-813,-303,-54,162,-316
14398,5292,0,2023-03-01T18:51:07.552406,1657072,1304,1895,-473,-1184,-813,-303,-54,162,-316
14399,5293,0,2023-03-01T18:51:07.558525,1657079,1307,1896,-470,-1181,-799,-299,-54,162,-316
14400,5294,0,2023-03-01T18:51:07.563946,1657084,1307,1896,-470,-1181,-799,-299,-54,162,-316
14401,5295,0,2023-03-01T18:51:07.568628,1657089,1307,1896,-470,-1181,-799,-299,-54,162,-316
14402,5296,0,2023-03-01T18:51:07.573410,1657094,1306,1894,-466,-1183,-794,-299,-54,162,-316
14403,5297,0,2023-03-01T18:51:07.579186,1657100,1306,1894,-466,-1183,-794,-299,-54,162,-316
14404,5298,0,2023-03-01T18:51:07.584042,1657104,1306,1894,-466,-1183,-794,-299,-54,162,-316
14405,5299,0,2023-03-01T18:51:07.588999,1657109,1306,1894,-466,-1183,-794,-299,-54,162,-316
14406,5300,0,2023-03-01T18:51:07.593896,1657114,1305,1895,-462,-1187,-796,-301,-54,162,-316
14407,5301,0,2023-03-01T18:51:07.599696,1657120,1305,1895,-462,-1187,-796,-301,-54,162,-316
14408,5302,0,2023-03-01T18:51:07.604375,1657124,1305,1895,-462,-1187,-796,-301,-54,162,-316
14409,5303,0,2023-03-01T18:51:07.609110,1657129,1305,1895,-462,-1187,-796,-301,-54,162,-316
14410,5304,0,2023-03-01T18:51:07.613931,1657134,1305,1894,-475,-1192,-805,-295,-54,162,-316
14411,5305,0,2023-03-01T18:51:07.620094,1657140,1305,1894,-475,-1192,-805,-295,-54,162,-316
14412,5306,0,2023-03-01T18:51:07.624694,1657145,1305,1894,-475,-1192,-805,-295,-54,162,-316
14413,5307,0,2023-03-01T18:51:07.629551,1657150,1305,1894,-475,-1192,-805,-295,-54,162,-316
14414,5308,0,2023-03-01T18:51:07.634668,1657155,1304,1890,-466,-1199,-798,-294,-49,161,-299
14415,5309,0,2023-03-01T18:51:07.640699,1657161,1304,1890,-466,-1199,-798,-294,-49,161,-299
14416,5310,0,2023-03-01T18:51:07.645832,1657166,1304,1890,-466,-1199,-798,-294,-49,161,-299
14417,5311,0,2023-03-01T18:51:07.650423,1657170,1304,1890,-466,-1199,-798,-294,-49,161,-299
14418,5312,0,2023-03-01T18:51:07.655429,1657176,1304,1893,-464,-1193,-796,-298,-49,161,-299
14419,5313,0,2023-03-01T18:51:07.661358,1657182,1304,1893,-464,-1193,-796,-298,-49,161,-299
14420,5314,0,2023-03-01T18:51:07.666418,1657187,1304,1893,-464,-1193,-796,-298,-49,161,-299
14421,5315,0,2023-03-01T18:51:07.671237,1657191,1304,1893,-464,-1193,-796,-298,-49,161,-299
14422,5316,0,2023-03-01T18:51:07.676636,1657197,1303,1898,-466,-1189,-792,-301,-49,161,-299
14423,5317,0,2023-03-01T18:51:07.682438,1657202,1303,1898,-466,-1189,-792,-301,-49,161,-299
14424,5318,0,2023-03-01T18:51:07.687646,1657207,1303,1898,-466,-1189,-792,-301,-49,161,-299
14425,5319,0,2023-03-01T18:51:07.692971,1657212,1303,1898,-466,-1189,-792,-301,-49,161,-299
14426,5320,0,2023-03-01T18:51:07.699215,1657220,1302,1894,-468,-1194,-807,-304,-49,161,-299
14427,5321,0,2023-03-01T18:51:07.704898,1657225,1302,1894,-468,-1194,-807,-304,-49,161,-299
14428,5322,0,2023-03-01T18:51:07.709970,1657230,1302,1894,-468,-1194,-807,-304,-49,161,-299
14429,5323,0,2023-03-01T18:51:07.715377,1657236,1305,1893,-471,-1188,-805,-312,-49,161,-299
14430,5324,0,2023-03-01T18:51:07.722239,1657241,1305,1893,-471,-1188,-805,-312,-49,161,-299
14431,5325,0,2023-03-01T18:51:07.727617,1657248,1305,1893,-471,-1188,-805,-312,-49,161,-299
14432,5326,0,2023-03-01T18:51:07.732312,1657252,1305,1893,-471,-1188,-805,-312,-49,161,-299
14433,5327,0,2023-03-01T18:51:07.738291,1657259,1305,1896,-467,-1180,-789,-298,-49,161,-299
14434,5328,0,2023-03-01T18:51:07.743900,1657264,1305,1896,-467,-1180,-789,-298,-49,161,-299
14435,5329,0,2023-03-01T18:51:07.748535,1657269,1305,1896,-467,-1180,-789,-298,-49,161,-299
14436,5330,0,2023-03-01T18:51:07.754202,1657274,1304,1893,-470,-1183,-787,-298,-49,161,-299
14437,5331,0,2023-03-01T18:51:07.760292,1657281,1304,1893,-470,-1183,-787,-298,-49,161,-299
14438,5332,0,2023-03-01T18:51:07.764982,1657285,1304,1893,-470,-1183,-787,-298,-49,161,-299
14439,5333,0,2023-03-01T18:51:07.769900,1657290,1304,1893,-470,-1183,-787,-298,-49,161,-299
14440,5334,0,2023-03-01T18:51:07.775488,1657295,1305,1894,-468,-1171,-785,-303,-55,161,-303
14441,5335,0,2023-03-01T18:51:07.781826,1657302,1305,1894,-468,-1171,-785,-303,-55,161,-303
14442,5336,0,2023-03-01T18:51:07.787009,1657307,1305,1894,-468,-1171,-785,-303,-55,161,-303
14443,5337,0,2023-03-01T18:51:07.791743,1657312,1305,1894,-468,-1171,-785,-303,-55,161,-303
14444,5338,0,2023-03-01T18:51:07.796458,1657317,1304,1892,-466,-1178,-786,-300,-55,161,-303
14445,5339,0,2023-03-01T18:51:07.803166,1657323,1304,1892,-466,-1178,-786,-300,-55,161,-303
14446,5340,0,2023-03-01T18:51:07.808132,1657328,1304,1892,-466,-1178,-786,-300,-55,161,-303
14447,5341,0,2023-03-01T18:51:07.813005,1657333,1306,1893,-466,-1182,-790,-303,-55,161,-303
14448,5342,0,2023-03-01T18:51:07.819413,1657339,1306,1893,-466,-1182,-790,-303,-55,161,-303
14449,5343,0,2023-03-01T18:51:07.824211,1657345,1306,1893,-466,-1182,-790,-303,-55,161,-303
14450,5344,0,2023-03-01T18:51:07.828893,1657349,1306,1893,-466,-1182,-790,-303,-55,161,-303
14451,5345,0,2023-03-01T18:51:07.834151,1657354,1304,1897,-467,-1182,-780,-302,-55,161,-303
14452,5346,0,2023-03-01T18:51:07.840538,1657361,1304,1897,-467,-1182,-780,-302,-55,161,-303
14453,5347,0,2023-03-01T18:51:07.845603,1657366,1304,1897,-467,-1182,-780,-302,-55,161,-303
14454,5348,0,2023-03-01T18:51:07.850509,1657371,1304,1897,-467,-1182,-780,-302,-55,161,-303
14455,5349,0,2023-03-01T18:51:07.855481,1657375,1308,1895,-472,-1174,-789,-300,-55,161,-303
14456,5350,0,2023-03-01T18:51:07.861471,1657381,1308,1895,-472,-1174,-789,-300,-55,161,-303
14457,5351,0,2023-03-01T18:51:07.866607,1657387,1308,1895,-472,-1174,-789,-300,-55,161,-303
14458,5352,0,2023-03-01T18:51:07.871427,1657392,1308,1895,-472,-1174,-789,-300,-55,161,-303
14459,5353,0,2023-03-01T18:51:07.876518,1657397,1306,1895,-466,-1173,-778,-303,-55,161,-303
14460,5354,0,2023-03-01T18:51:07.882733,1657403,1306,1895,-466,-1173,-778,-303,-55,161,-303
14461,5355,0,2023-03-01T18:51:07.888153,1657408,1306,1895,-466,-1173,-778,-303,-55,161,-303
14462,5356,0,2023-03-01T18:51:07.892997,1657413,1306,1895,-466,-1173,-778,-303,-55,161,-303
14463,5357,0,2023-03-01T18:51:07.899418,1657419,1302,1895,-460,-1171,-782,-303,-51,171,-307
14464,5358,0,2023-03-01T18:51:07.904810,1657425,1302,1895,-460,-1171,-782,-303,-51,171,-307
14465,5359,0,2023-03-01T18:51:07.909873,1657430,1302,1895,-460,-1171,-782,-303,-51,171,-307
14466,5360,0,2023-03-01T18:51:07.914917,1657435,1303,1895,-467,-1175,-779,-307,-51,171,-307
14467,5361,0,2023-03-01T18:51:07.921299,1657441,1303,1895,-467,-1175,-779,-307,-51,171,-307
14468,5362,0,2023-03-01T18:51:07.926415,1657447,1303,1895,-467,-1175,-779,-307,-51,171,-307
14469,5363,0,2023-03-01T18:51:07.931293,1657452,1303,1895,-467,-1175,-779,-307,-51,171,-307
14470,5364,0,2023-03-01T18:51:07.936183,1657456,1305,1893,-469,-1182,-785,-302,-51,171,-307
14471,5365,0,2023-03-01T18:51:07.942322,1657462,1305,1893,-469,-1182,-785,-302,-51,171,-307
14472,5366,0,2023-03-01T18:51:07.947535,1657467,1305,1893,-469,-1182,-785,-302,-51,171,-307
14473,5367,0,2023-03-01T18:51:07.952325,1657473,1305,1893,-469,-1182,-785,-302,-51,171,-307
14474,5368,0,2023-03-01T18:51:07.957920,1657478,1305,1894,-466,-1186,-791,-300,-51,171,-307
14475,5369,0,2023-03-01T18:51:07.963365,1657484,1305,1894,-466,-1186,-791,-300,-51,171,-307
14476,5370,0,2023-03-01T18:51:07.968635,1657489,1305,1894,-466,-1186,-791,-300,-51,171,-307
14477,5371,0,2023-03-01T18:51:07.974181,1657494,1304,1894,-469,-1189,-788,-296,-51,171,-307
14478,5372,0,2023-03-01T18:51:07.980544,1657500,1304,1894,-469,-1189,-788,-296,-51,171,-307
14479,5373,0,2023-03-01T18:51:07.985567,1657505,1304,1894,-469,-1189,-788,-296,-51,171,-307
14480,5374,0,2023-03-01T18:51:07.990396,1657510,1304,1894,-469,-1189,-788,-296,-51,171,-307
14481,5375,0,2023-03-01T18:51:07.995233,1657516,1306,1894,-464,-1180,-784,-299,-51,171,-307
14482,5376,0,2023-03-01T18:51:08.001296,1657522,1306,1894,-464,-1180,-784,-299,-51,171,-307
14483,5377,0,2023-03-01T18:51:08.006285,1657527,1306,1894,-464,-1180,-784,-299,-51,171,-307
14484,5378,0,2023-03-01T18:51:08.011622,1657531,1306,1894,-464,-1180,-784,-299,-51,171,-307
14485,5379,0,2023-03-01T18:51:08.016622,1657537,1306,1891,-467,-1171,-795,-298,-51,171,-307
14486,5380,0,2023-03-01T18:51:08.022732,1657543,1306,1891,-467,-1171,-795,-298,-51,171,-307
14487,5381,0,2023-03-01T18:51:08.027895,1657548,1306,1891,-467,-1171,-795,-298,-51,171,-307
14488,5382,0,2023-03-01T18:51:08.033441,1657552,1306,1891,-467,-1171,-795,-298,-51,171,-307
14489,5383,0,2023-03-01T18:51:08.039846,1657560,1308,1894,-469,-1182,-808,-299,-55,159,-307
14490,5384,0,2023-03-01T18:51:08.045293,1657566,1308,1894,-469,-1182,-808,-299,-55,159,-307
14491,5385,0,2023-03-01T18:51:08.050636,1657571,1308,1894,-469,-1182,-808,-299,-55,159,-307
14492,5386,0,2023-03-01T18:51:08.056375,1657576,1306,1894,-459,-1185,-805,-298,-55,159,-307
14493,5387,0,2023-03-01T18:51:08.063094,1657583,1306,1894,-459,-1185,-805,-298,-55,159,-307
14494,5388,0,2023-03-01T18:51:08.068117,1657588,1306,1894,-459,-1185,-805,-298,-55,159,-307
14495,5389,0,2023-03-01T18:51:08.072999,1657593,1306,1894,-459,-1185,-805,-298,-55,159,-307
14496,5390,0,2023-03-01T18:51:08.078762,1657598,1306,1889,-465,-1176,-786,-296,-55,159,-307
14497,5391,0,2023-03-01T18:51:08.084092,1657605,1306,1889,-465,-1176,-786,-296,-55,159,-307
14498,5392,0,2023-03-01T18:51:08.089379,1657610,1306,1889,-465,-1176,-786,-296,-55,159,-307
14499,5393,0,2023-03-01T18:51:08.095005,1657615,1306,1889,-465,-1176,-786,-296,-55,159,-307
14500,5394,0,2023-03-01T18:51:08.100252,1657621,1306,1889,-465,-1176,-786,-296,-55,159,-307
14501,5395,0,2023-03-01T18:51:08.104953,1657625,1306,1889,-465,-1176,-786,-296,-55,159,-307
14502,5396,0,2023-03-01T18:51:08.109845,1657630,1306,1889,-465,-1176,-786,-296,-55,159,-307
14503,5397,0,2023-03-01T18:51:08.114549,1657634,1307,1892,-468,-1185,-795,-296,-55,159,-307
14504,5398,0,2023-03-01T18:51:08.120776,1657640,1307,1892,-468,-1185,-795,-296,-55,159,-307
14505,5399,0,2023-03-01T18:51:08.125562,1657646,1307,1892,-468,-1185,-795,-296,-55,159,-307
14506,5400,0,2023-03-01T18:51:08.130042,1657651,1307,1892,-468,-1185,-795,-296,-55,159,-307
14507,5401,0,2023-03-01T18:51:08.134611,1657655,1306,1892,-465,-1179,-788,-303,-55,159,-307
14508,5402,0,2023-03-01T18:51:08.140914,1657661,1306,1892,-465,-1179,-788,-303,-55,159,-307
14509,5403,0,2023-03-01T18:51:08.145654,1657666,1306,1892,-465,-1179,-788,-303,-55,159,-307
14510,5404,0,2023-03-01T18:51:08.150424,1657670,1306,1892,-465,-1179,-788,-303,-55,159,-307
14511,5405,0,2023-03-01T18:51:08.156153,1657676,1306,1890,-470,-1187,-788,-291,-51,163,-307
14512,5406,0,2023-03-01T18:51:08.162132,1657682,1306,1890,-470,-1187,-788,-291,-51,163,-307
14513,5407,0,2023-03-01T18:51:08.166953,1657687,1306,1890,-470,-1187,-788,-291,-51,163,-307
14514,5408,0,2023-03-01T18:51:08.171744,1657692,1306,1890,-470,-1187,-788,-291,-51,163,-307
14515,5409,0,2023-03-01T18:51:08.177877,1657698,1304,1890,-459,-1193,-794,-299,-51,163,-307
14516,5410,0,2023-03-01T18:51:08.183804,1657704,1304,1890,-459,-1193,-794,-299,-51,163,-307
14517,5411,0,2023-03-01T18:51:08.188821,1657709,1304,1890,-459,-1193,-794,-299,-51,163,-307
14518,5412,0,2023-03-01T18:51:08.193787,1657714,1303,1895,-470,-1180,-790,-308,-51,163,-307
14519,5413,0,2023-03-01T18:51:08.201409,1657721,1303,1895,-470,-1180,-790,-308,-51,163,-307
14520,5414,0,2023-03-01T18:51:08.206642,1657726,1303,1895,-470,-1180,-790,-308,-51,163,-307
14521,5415,0,2023-03-01T18:51:08.211448,1657732,1303,1895,-470,-1180,-790,-308,-51,163,-307
14522,5416,0,2023-03-01T18:51:08.216652,1657737,1307,1892,-468,-1164,-779,-301,-51,163,-307
14523,5417,0,2023-03-01T18:51:08.222647,1657743,1307,1892,-468,-1164,-779,-301,-51,163,-307
14524,5418,0,2023-03-01T18:51:08.227579,1657748,1307,1892,-468,-1164,-779,-301,-51,163,-307
14525,5419,0,2023-03-01T18:51:08.232824,1657753,1307,1892,-468,-1164,-779,-301,-51,163,-307
14526,5420,0,2023-03-01T18:51:08.238752,1657759,1303,1891,-473,-1184,-793,-299,-51,163,-307
14527,5421,0,2023-03-01T18:51:08.244180,1657764,1303,1891,-473,-1184,-793,-299,-51,163,-307
14528,5422,0,2023-03-01T18:51:08.248881,1657769,1303,1891,-473,-1184,-793,-299,-51,163,-307
14529,5423,0,2023-03-01T18:51:08.253898,1657774,1312,1892,-470,-1177,-780,-299,-51,163,-307
14530,5424,0,2023-03-01T18:51:08.259922,1657780,1312,1892,-470,-1177,-780,-299,-51,163,-307
14531,5425,0,2023-03-01T18:51:08.264485,1657785,1312,1892,-470,-1177,-780,-299,-51,163,-307
14532,5426,0,2023-03-01T18:51:08.269406,1657790,1312,1892,-470,-1177,-780,-299,-51,163,-307
14533,5427,0,2023-03-01T18:51:08.275156,1657795,1306,1894,-462,-1180,-780,-299,-56,174,-308
14534,5428,0,2023-03-01T18:51:08.281164,1657801,1306,1894,-462,-1180,-780,-299,-56,174,-308
14535,5429,0,2023-03-01T18:51:08.286073,1657806,1306,1894,-462,-1180,-780,-299,-56,174,-308
14536,5430,0,2023-03-01T18:51:08.290860,1657811,1306,1894,-462,-1180,-780,-299,-56,174,-308
14537,5431,0,2023-03-01T18:51:08.296447,1657817,1306,1892,-465,-1181,-785,-294,-56,174,-308
14538,5432,0,2023-03-01T18:51:08.302746,1657823,1306,1892,-465,-1181,-785,-294,-56,174,-308
14539,5433,0,2023-03-01T18:51:08.307969,1657828,1306,1892,-465,-1181,-785,-294,-56,174,-308
14540,5434,0,2023-03-01T18:51:08.312836,1657833,1306,1892,-465,-1181,-785,-294,-56,174,-308
14541,5435,0,2023-03-01T18:51:08.318422,1657839,1307,1888,-460,-1172,-786,-294,-56,174,-308
14542,5436,0,2023-03-01T18:51:08.324030,1657844,1307,1888,-460,-1172,-786,-294,-56,174,-308
14543,5437,0,2023-03-01T18:51:08.328529,1657848,1307,1888,-460,-1172,-786,-294,-56,174,-308
14544,5438,0,2023-03-01T18:51:08.333365,1657853,1307,1888,-460,-1172,-786,-294,-56,174,-308
14545,5439,0,2023-03-01T18:51:08.339221,1657860,1307,1890,-468,-1186,-790,-309,-56,174,-308
14546,5440,0,2023-03-01T18:51:08.345056,1657865,1307,1890,-468,-1186,-790,-309,-56,174,-308
14547,5441,0,2023-03-01T18:51:08.349997,1657870,1307,1890,-468,-1186,-790,-309,-56,174,-308
14548,5442,0,2023-03-01T18:51:08.355037,1657875,1309,1898,-467,-1186,-795,-306,-56,174,-308
14549,5443,0,2023-03-01T18:51:08.360606,1657881,1309,1898,-467,-1186,-795,-306,-56,174,-308
14550,5444,0,2023-03-01T18:51:08.365840,1657886,1309,1898,-467,-1186,-795,-306,-56,174,-308
14551,5445,0,2023-03-01T18:51:08.370504,1657890,1309,1898,-467,-1186,-795,-306,-56,174,-308
14552,5446,0,2023-03-01T18:51:08.375370,1657895,1304,1892,-468,-1190,-803,-294,-56,174,-308
14553,5447,0,2023-03-01T18:51:08.381256,1657902,1304,1892,-468,-1190,-803,-294,-56,174,-308
14554,5448,0,2023-03-01T18:51:08.386463,1657907,1304,1892,-468,-1190,-803,-294,-56,174,-308
14555,5449,0,2023-03-01T18:51:08.391289,1657912,1304,1892,-468,-1190,-803,-294,-56,174,-308
14556,5450,0,2023-03-01T18:51:08.396862,1657917,1308,1888,-466,-1185,-787,-304,-56,174,-308
14557,5451,0,2023-03-01T18:51:08.403344,1657923,1308,1888,-466,-1185,-787,-304,-56,174,-308
14558,5452,0,2023-03-01T18:51:08.408355,1657928,1308,1888,-466,-1185,-787,-304,-56,174,-308
14559,5453,0,2023-03-01T18:51:08.412999,1657933,1308,1888,-466,-1185,-787,-304,-56,174,-308
14560,5454,0,2023-03-01T18:51:08.418880,1657939,1308,1893,-464,-1173,-773,-300,-57,163,-303
14561,5455,0,2023-03-01T18:51:08.424706,1657945,1308,1893,-464,-1173,-773,-300,-57,163,-303
14562,5456,0,2023-03-01T18:51:08.430275,1657950,1308,1893,-464,-1173,-773,-300,-57,163,-303
14563,5457,0,2023-03-01T18:51:08.436556,1657956,1307,1895,-464,-1180,-774,-312,-57,163,-303
14564,5458,0,2023-03-01T18:51:08.442896,1657963,1307,1895,-464,-1180,-774,-312,-57,163,-303
14565,5459,0,2023-03-01T18:51:08.448224,1657968,1307,1895,-464,-1180,-774,-312,-57,163,-303
14566,5460,0,2023-03-01T18:51:08.453076,1657973,1307,1895,-464,-1180,-774,-312,-57,163,-303
14567,5461,0,2023-03-01T18:51:08.459415,1657979,1305,1892,-468,-1174,-763,-299,-57,163,-303
14568,5462,0,2023-03-01T18:51:08.464628,1657985,1305,1892,-468,-1174,-763,-299,-57,163,-303
14569,5463,0,2023-03-01T18:51:08.469943,1657990,1305,1892,-468,-1174,-763,-299,-57,163,-303
14570,5464,0,2023-03-01T18:51:08.475406,1657996,1307,1889,-474,-1172,-770,-309,-57,163,-303
14571,5465,0,2023-03-01T18:51:08.482038,1658002,1307,1889,-474,-1172,-770,-309,-57,163,-303
14572,5466,0,2023-03-01T18:51:08.487110,1658007,1307,1889,-474,-1172,-770,-309,-57,163,-303
14573,5467,0,2023-03-01T18:51:08.491924,1658012,1307,1889,-474,-1172,-770,-309,-57,163,-303
14574,5468,0,2023-03-01T18:51:08.498338,1658018,1309,1894,-466,-1165,-769,-303,-57,163,-303
14575,5469,0,2023-03-01T18:51:08.504013,1658024,1309,1894,-466,-1165,-769,-303,-57,163,-303
14576,5470,0,2023-03-01T18:51:08.509211,1658030,1309,1894,-466,-1165,-769,-303,-57,163,-303
14577,5471,0,2023-03-01T18:51:08.514297,1658035,1305,1896,-471,-1159,-780,-296,-57,163,-303
14578,5472,0,2023-03-01T18:51:08.520373,1658041,1305,1896,-471,-1159,-780,-296,-57,163,-303
14579,5473,0,2023-03-01T18:51:08.525135,1658045,1305,1896,-471,-1159,-780,-296,-57,163,-303
14580,5474,0,2023-03-01T18:51:08.529980,1658050,1305,1896,-471,-1159,-780,-296,-57,163,-303
14581,5475,0,2023-03-01T18:51:08.534808,1658055,1306,1893,-468,-1163,-786,-303,-56,164,-308
14582,5476,0,2023-03-01T18:51:08.539768,1658060,1306,1893,-468,-1163,-786,-303,-56,164,-308
14583,5477,0,2023-03-01T18:51:08.544537,1658064,1306,1893,-468,-1163,-786,-303,-56,164,-308
14584,5478,0,2023-03-01T18:51:08.549238,1658070,1306,1893,-468,-1163,-786,-303,-56,164,-308
14585,5479,0,2023-03-01T18:51:08.555117,1658076,1307,1891,-462,-1179,-793,-297,-56,164,-308
14586,5480,0,2023-03-01T18:51:08.561217,1658082,1307,1891,-462,-1179,-793,-297,-56,164,-308
14587,5481,0,2023-03-01T18:51:08.566600,1658087,1307,1891,-462,-1179,-793,-297,-56,164,-308
14588,5482,0,2023-03-01T18:51:08.571555,1658092,1307,1891,-462,-1179,-793,-297,-56,164,-308
14589,5483,0,2023-03-01T18:51:08.576041,1658096,1308,1892,-470,-1173,-787,-300,-56,164,-308
14590,5484,0,2023-03-01T18:51:08.582110,1658102,1308,1892,-470,-1173,-787,-300,-56,164,-308
14591,5485,0,2023-03-01T18:51:08.586911,1658107,1308,1892,-470,-1173,-787,-300,-56,164,-308
14592,5486,0,2023-03-01T18:51:08.591645,1658113,1308,1892,-470,-1173,-787,-300,-56,164,-308
14593,5487,0,2023-03-01T18:51:08.597223,1658117,1307,1891,-463,-1176,-786,-299,-56,164,-308
14594,5488,0,2023-03-01T18:51:08.604165,1658124,1307,1891,-463,-1176,-786,-299,-56,164,-308
14595,5489,0,2023-03-01T18:51:08.609020,1658129,1307,1891,-463,-1176,-786,-299,-56,164,-308
14596,5490,0,2023-03-01T18:51:08.613727,1658134,1307,1891,-463,-1176,-786,-299,-56,164,-308
14597,5491,0,2023-03-01T18:51:08.619815,1658140,1309,1892,-467,-1174,-783,-292,-56,164,-308
14598,5492,0,2023-03-01T18:51:08.625448,1658145,1309,1892,-467,-1174,-783,-292,-56,164,-308
14599,5493,0,2023-03-01T18:51:08.630337,1658150,1309,1892,-467,-1174,-783,-292,-56,164,-308
14600,5494,0,2023-03-01T18:51:08.634870,1658156,1306,1892,-473,-1171,-781,-296,-56,164,-308
14601,5495,0,2023-03-01T18:51:08.640984,1658161,1306,1892,-473,-1171,-781,-296,-56,164,-308
14602,5496,0,2023-03-01T18:51:08.645853,1658166,1306,1892,-473,-1171,-781,-296,-56,164,-308
14603,5497,0,2023-03-01T18:51:08.650933,1658171,1306,1892,-473,-1171,-781,-296,-56,164,-308
14604,5498,0,2023-03-01T18:51:08.655469,1658176,1306,1892,-466,-1170,-776,-302,-56,164,-308
14605,5499,0,2023-03-01T18:51:08.661137,1658181,1306,1892,-466,-1170,-776,-302,-56,164,-308
14606,5500,0,2023-03-01T18:51:08.666210,1658186,1306,1892,-466,-1170,-776,-302,-56,164,-308
14607,5501,0,2023-03-01T18:51:08.671511,1658191,1306,1892,-466,-1170,-776,-302,-56,164,-308
14608,5502,0,2023-03-01T18:51:08.676861,1658198,1307,1891,-461,-1175,-775,-299,-53,159,-305
14609,5503,0,2023-03-01T18:51:08.682837,1658203,1307,1891,-461,-1175,-775,-299,-53,159,-305
14610,5504,0,2023-03-01T18:51:08.687559,1658208,1307,1891,-461,-1175,-775,-299,-53,159,-305
14611,5505,0,2023-03-01T18:51:08.692267,1658213,1307,1891,-461,-1175,-775,-299,-53,159,-305
14612,5506,0,2023-03-01T18:51:08.698233,1658218,1308,1889,-475,-1184,-786,-294,-53,159,-305
14613,5507,0,2023-03-01T18:51:08.703846,1658224,1308,1889,-475,-1184,-786,-294,-53,159,-305
14614,5508,0,2023-03-01T18:51:08.710410,1658230,1308,1889,-475,-1184,-786,-294,-53,159,-305
14615,5509,0,2023-03-01T18:51:08.715751,1658235,1308,1892,-467,-1174,-774,-298,-53,159,-305
14616,5510,0,2023-03-01T18:51:08.721182,1658242,1308,1892,-467,-1174,-774,-298,-53,159,-305
14617,5511,0,2023-03-01T18:51:08.726360,1658247,1308,1892,-467,-1174,-774,-298,-53,159,-305
14618,5512,0,2023-03-01T18:51:08.731169,1658252,1308,1892,-467,-1174,-774,-298,-53,159,-305
14619,5513,0,2023-03-01T18:51:08.736443,1658256,1307,1895,-471,-1180,-778,-303,-53,159,-305
14620,5514,0,2023-03-01T18:51:08.742702,1658263,1307,1895,-471,-1180,-778,-303,-53,159,-305
14621,5515,0,2023-03-01T18:51:08.747618,1658268,1307,1895,-471,-1180,-778,-303,-53,159,-305
14622,5516,0,2023-03-01T18:51:08.752579,1658272,1307,1895,-471,-1180,-778,-303,-53,159,-305
14623,5517,0,2023-03-01T18:51:08.758665,1658279,1310,1893,-468,-1185,-781,-301,-53,159,-305
14624,5518,0,2023-03-01T18:51:08.764159,1658285,1310,1893,-468,-1185,-781,-301,-53,159,-305
14625,5519,0,2023-03-01T18:51:08.768907,1658289,1310,1893,-468,-1185,-781,-301,-53,159,-305
14626,5520,0,2023-03-01T18:51:08.773905,1658294,1310,1893,-468,-1185,-781,-301,-53,159,-305
14627,5521,0,2023-03-01T18:51:08.780257,1658301,1307,1892,-472,-1176,-779,-295,-53,159,-305
14628,5522,0,2023-03-01T18:51:08.785472,1658306,1307,1892,-472,-1176,-779,-295,-53,159,-305
14629,5523,0,2023-03-01T18:51:08.790364,1658310,1307,1892,-472,-1176,-779,-295,-53,159,-305
14630,5524,0,2023-03-01T18:51:08.795646,1658315,1308,1892,-461,-1181,-779,-294,-60,166,-310
14631,5525,0,2023-03-01T18:51:08.801433,1658321,1308,1892,-461,-1181,-779,-294,-60,166,-310
14632,5526,0,2023-03-01T18:51:08.806322,1658327,1308,1892,-461,-1181,-779,-294,-60,166,-310
14633,5527,0,2023-03-01T18:51:08.811027,1658332,1308,1892,-461,-1181,-779,-294,-60,166,-310
14634,5528,0,2023-03-01T18:51:08.816735,1658337,1309,1891,-468,-1172,-790,-296,-60,166,-310
14635,5529,0,2023-03-01T18:51:08.822712,1658343,1309,1891,-468,-1172,-790,-296,-60,166,-310
14636,5530,0,2023-03-01T18:51:08.827513,1658348,1309,1891,-468,-1172,-790,-296,-60,166,-310
14637,5531,0,2023-03-01T18:51:08.832262,1658352,1309,1891,-468,-1172,-790,-296,-60,166,-310
14638,5532,0,2023-03-01T18:51:08.838227,1658358,1308,1893,-468,-1176,-783,-301,-60,166,-310
14639,5533,0,2023-03-01T18:51:08.843748,1658363,1308,1893,-468,-1176,-783,-301,-60,166,-310
14640,5534,0,2023-03-01T18:51:08.848570,1658369,1308,1893,-468,-1176,-783,-301,-60,166,-310
14641,5535,0,2023-03-01T18:51:08.853500,1658374,1308,1893,-468,-1176,-783,-301,-60,166,-310
14642,5536,0,2023-03-01T18:51:08.859511,1658380,1306,1886,-466,-1175,-776,-295,-60,166,-310
14643,5537,0,2023-03-01T18:51:08.865930,1658386,1306,1886,-466,-1175,-776,-295,-60,166,-310
14644,5538,0,2023-03-01T18:51:08.870756,1658391,1306,1886,-466,-1175,-776,-295,-60,166,-310
14645,5539,0,2023-03-01T18:51:08.876071,1658396,1307,1890,-466,-1179,-781,-303,-60,166,-310
14646,5540,0,2023-03-01T18:51:08.882220,1658402,1307,1890,-466,-1179,-781,-303,-60,166,-310
14647,5541,0,2023-03-01T18:51:08.887181,1658407,1307,1890,-466,-1179,-781,-303,-60,166,-310
14648,5542,0,2023-03-01T18:51:08.891962,1658413,1307,1890,-466,-1179,-781,-303,-60,166,-310
14649,5543,0,2023-03-01T18:51:08.896746,1658417,1308,1893,-468,-1179,-794,-296,-60,166,-310
14650,5544,0,2023-03-01T18:51:08.902841,1658423,1308,1893,-468,-1179,-794,-296,-60,166,-310
14651,5545,0,2023-03-01T18:51:08.907716,1658428,1308,1893,-468,-1179,-794,-296,-60,166,-310
14652,5546,0,2023-03-01T18:51:08.912162,1658433,1308,1893,-468,-1179,-794,-296,-60,166,-310
14653,5547,0,2023-03-01T18:51:08.916753,1658437,1309,1890,-471,-1181,-788,-298,-60,166,-310
14654,5548,0,2023-03-01T18:51:08.922407,1658442,1309,1890,-471,-1181,-788,-298,-60,166,-310
14655,5549,0,2023-03-01T18:51:08.927963,1658448,1309,1890,-471,-1181,-788,-298,-60,166,-310
14656,5550,0,2023-03-01T18:51:08.933211,1658454,1309,1890,-471,-1181,-788,-298,-60,166,-310
14657,5551,0,2023-03-01T18:51:08.939180,1658460,1308,1890,-465,-1178,-783,-298,-58,158,-302
14658,5552,0,2023-03-01T18:51:08.944514,1658465,1308,1890,-465,-1178,-783,-298,-58,158,-302
14659,5553,0,2023-03-01T18:51:08.949188,1658470,1308,1890,-465,-1178,-783,-298,-58,158,-302
14660,5554,0,2023-03-01T18:51:08.954259,1658474,1308,1890,-465,-1178,-783,-298,-58,158,-302
14661,5555,0,2023-03-01T18:51:08.960203,1658480,1308,1893,-460,-1179,-774,-300,-58,158,-302
14662,5556,0,2023-03-01T18:51:08.965441,1658485,1308,1893,-460,-1179,-774,-300,-58,158,-302
14663,5557,0,2023-03-01T18:51:08.970305,1658490,1308,1893,-460,-1179,-774,-300,-58,158,-302
14664,5558,0,2023-03-01T18:51:08.975988,1658497,1305,1894,-466,-1173,-785,-304,-58,158,-302
14665,5559,0,2023-03-01T18:51:08.982218,1658503,1305,1894,-466,-1173,-785,-304,-58,158,-302
14666,5560,0,2023-03-01T18:51:08.987502,1658508,1305,1894,-466,-1173,-785,-304,-58,158,-302
14667,5561,0,2023-03-01T18:51:08.992423,1658513,1305,1894,-466,-1173,-785,-304,-58,158,-302
14668,5562,0,2023-03-01T18:51:08.997497,1658518,1310,1892,-465,-1178,-789,-301,-58,158,-302
14669,5563,0,2023-03-01T18:51:09.002714,1658523,1310,1892,-465,-1178,-789,-301,-58,158,-302
14670,5564,0,2023-03-01T18:51:09.007681,1658527,1310,1892,-465,-1178,-789,-301,-58,158,-302
14671,5565,0,2023-03-01T18:51:09.012386,1658532,1310,1892,-465,-1178,-789,-301,-58,158,-302
14672,5566,0,2023-03-01T18:51:09.018430,1658539,1306,1886,-466,-1177,-791,-295,-58,158,-302
14673,5567,0,2023-03-01T18:51:09.025010,1658544,1306,1886,-466,-1177,-791,-295,-58,158,-302
14674,5568,0,2023-03-01T18:51:09.029917,1658550,1306,1886,-466,-1177,-791,-295,-58,158,-302
14675,5569,0,2023-03-01T18:51:09.034639,1658555,1308,1893,-464,-1172,-785,-303,-58,158,-302
14676,5570,0,2023-03-01T18:51:09.040886,1658561,1308,1893,-464,-1172,-785,-303,-58,158,-302
14677,5571,0,2023-03-01T18:51:09.046002,1658566,1308,1893,-464,-1172,-785,-303,-58,158,-302
14678,5572,0,2023-03-01T18:51:09.051168,1658571,1308,1893,-464,-1172,-785,-303,-58,158,-302
14679,5573,0,2023-03-01T18:51:09.055893,1658576,1310,1893,-461,-1176,-783,-305,-59,165,-301
14680,5574,0,2023-03-01T18:51:09.062166,1658582,1310,1893,-461,-1176,-783,-305,-59,165,-301
14681,5575,0,2023-03-01T18:51:09.067095,1658588,1310,1893,-461,-1176,-783,-305,-59,165,-301
14682,5576,0,2023-03-01T18:51:09.072160,1658593,1310,1893,-461,-1176,-783,-305,-59,165,-301
14683,5577,0,2023-03-01T18:51:09.077892,1658598,1307,1888,-466,-1176,-786,-292,-59,165,-301
14684,5578,0,2023-03-01T18:51:09.083359,1658604,1307,1888,-466,-1176,-786,-292,-59,165,-301
14685,5579,0,2023-03-01T18:51:09.088677,1658608,1307,1888,-466,-1176,-786,-292,-59,165,-301
14686,5580,0,2023-03-01T18:51:09.093644,1658614,1307,1888,-466,-1176,-786,-292,-59,165,-301
14687,5581,0,2023-03-01T18:51:09.099675,1658619,1311,1895,-475,-1174,-787,-297,-59,165,-301
14688,5582,0,2023-03-01T18:51:09.105538,1658626,1311,1895,-475,-1174,-787,-297,-59,165,-301
14689,5583,0,2023-03-01T18:51:09.110552,1658631,1311,1895,-475,-1174,-787,-297,-59,165,-301
14690,5584,0,2023-03-01T18:51:09.115339,1658636,1306,1891,-467,-1181,-789,-287,-59,165,-301
14691,5585,0,2023-03-01T18:51:09.121169,1658641,1306,1891,-467,-1181,-789,-287,-59,165,-301
14692,5586,0,2023-03-01T18:51:09.126194,1658646,1306,1891,-467,-1181,-789,-287,-59,165,-301
14693,5587,0,2023-03-01T18:51:09.131318,1658651,1306,1891,-467,-1181,-789,-287,-59,165,-301
14694,5588,0,2023-03-01T18:51:09.137125,1658657,1307,1893,-469,-1183,-796,-293,-59,165,-301
14695,5589,0,2023-03-01T18:51:09.143356,1658663,1307,1893,-469,-1183,-796,-293,-59,165,-301
14696,5590,0,2023-03-01T18:51:09.148117,1658669,1307,1893,-469,-1183,-796,-293,-59,165,-301
14697,5591,0,2023-03-01T18:51:09.152729,1658673,1307,1893,-469,-1183,-796,-293,-59,165,-301
14698,5592,0,2023-03-01T18:51:09.158632,1658679,1307,1888,-472,-1192,-799,-303,-59,165,-301
14699,5593,0,2023-03-01T18:51:09.164314,1658685,1307,1888,-472,-1192,-799,-303,-59,165,-301
