,Unnamed: 0,imu,server_time,arduino_time,ax,ay,az,gx,gy,gz,mx,my,mz
14700,5594,0,2023-03-01T18:51:09.169029,1658689,1307,1888,-472,-1192,-799,-303,-59,165,-301
14701,5595,0,2023-03-01T18:51:09.173926,1658694,1307,1888,-472,-1192,-799,-303,-59,165,-301
14702,5596,0,2023-03-01T18:51:09.179792,1658700,1310,1888,-465,-1190,-794,-297,-42,172,-306
14703,5597,0,2023-03-01T18:51:09.185345,1658705,1310,1888,-465,-1190,-794,-297,-42,172,-306
14704,5598,0,2023-03-01T18:51:09.190274,1658711,1310,1888,-465,-1190,-794,-297,-42,172,-306
14705,5599,0,2023-03-01T18:51:09.195437,1658716,1309,1890,-460,-1183,-791,-305,-42,172,-306
14706,5600,0,2023-03-01T18:51:09.201025,1658722,1309,1890,-460,-1183,-791,-305,-42,172,-306
14707,5601,0,2023-03-01T18:51:09.205976,1658726,1309,1890,-460,-1183,-791,-305,-42,172,-306
14708,5602,0,2023-03-01T18:51:09.210737,1658731,1309,1890,-460,-1183,-791,-305,-42,172,-306
14709,5603,0,2023-03-01T18:51:09.216225,1658736,1311,1893,-466,-1190,-787,-312,-42,172,-306
14710,5604,0,2023-03-01T18:51:09.221939,1658742,1311,1893,-466,-1190,-787,-312,-42,172,-306
14711,5605,0,2023-03-01T18:51:09.227039,1658747,1311,1893,-466,-1190,-787,-312,-42,172,-306
14712,5606,0,2023-03-01T18:51:09.231747,1658753,1311,1893,-466,-1190,-787,-312,-42,172,-306
14713,5607,0,2023-03-01T18:51:09.236249,1658757,1309,1890,-470,-1184,-792,-303,-42,172,-306
14714,5608,0,2023-03-01T18:51:09.242432,1658763,1309,1890,-470,-1184,-792,-303,-42,172,-306
14715,5609,0,2023-03-01T18:51:09.247454,1658768,1309,1890,-470,-1184,-792,-303,-42,172,-306
14716,5610,0,2023-03-01T18:51:09.252448,1658773,1309,1890,-470,-1184,-792,-303,-42,172,-306
14717,5611,0,2023-03-01T18:51:09.259090,1658779,1309,1893,-467,-1186,-792,-296,-42,172,-306
14718,5612,0,2023-03-01T18:51:09.264723,1658784,1309,1893,-467,-1186,-792,-296,-42,172,-306
14719,5613,0,2023-03-01T18:51:09.269534,1658789,1309,1893,-467,-1186,-792,-296,-42,172,-306
14720,5614,0,2023-03-01T18:51:09.274561,1658795,1309,1893,-467,-1186,-792,-296,-42,172,-306
14721,5615,0,2023-03-01T18:51:09.280669,1658801,1309,1891,-466,-1181,-795,-295,-42,172,-306
14722,5616,0,2023-03-01T18:51:09.285976,1658806,1309,1891,-466,-1181,-795,-295,-42,172,-306
14723,5617,0,2023-03-01T18:51:09.290754,1658811,1309,1891,-466,-1181,-795,-295,-42,172,-306
14724,5618,0,2023-03-01T18:51:09.297036,1658817,1309,1891,-467,-1189,-787,-298,-42,172,-306
14725,5619,0,2023-03-01T18:51:09.303004,1658823,1309,1891,-467,-1189,-787,-298,-42,172,-306
14726,5620,0,2023-03-01T18:51:09.307721,1658828,1309,1891,-467,-1189,-787,-298,-42,172,-306
14727,5621,0,2023-03-01T18:51:09.312216,1658832,1309,1891,-467,-1189,-787,-298,-42,172,-306
14728,5622,0,2023-03-01T18:51:09.317589,1658838,1309,1890,-465,-1191,-791,-299,-48,164,-308
14729,5623,0,2023-03-01T18:51:09.323269,1658844,1309,1890,-465,-1191,-791,-299,-48,164,-308
14730,5624,0,2023-03-01T18:51:09.328372,1658849,1309,1890,-465,-1191,-791,-299,-48,164,-308
14731,5625,0,2023-03-01T18:51:09.333112,1658854,1309,1890,-465,-1191,-791,-299,-48,164,-308
14732,5626,0,2023-03-01T18:51:09.339204,1658860,1309,1890,-467,-1179,-787,-298,-48,164,-308
14733,5627,0,2023-03-01T18:51:09.344538,1658865,1309,1890,-467,-1179,-787,-298,-48,164,-308
14734,5628,0,2023-03-01T18:51:09.349162,1658869,1309,1890,-467,-1179,-787,-298,-48,164,-308
14735,5629,0,2023-03-01T18:51:09.353918,1658874,1309,1890,-467,-1179,-787,-298,-48,164,-308
14736,5630,0,2023-03-01T18:51:09.359282,1658880,1310,1891,-464,-1183,-801,-299,-48,164,-308
14737,5631,0,2023-03-01T18:51:09.364736,1658885,1310,1891,-464,-1183,-801,-299,-48,164,-308
14738,5632,0,2023-03-01T18:51:09.369949,1658890,1310,1891,-464,-1183,-801,-299,-48,164,-308
14739,5633,0,2023-03-01T18:51:09.375686,1658896,1309,1890,-468,-1177,-780,-300,-48,164,-308
14740,5634,0,2023-03-01T18:51:09.382030,1658902,1309,1890,-468,-1177,-780,-300,-48,164,-308
14741,5635,0,2023-03-01T18:51:09.387159,1658907,1309,1890,-468,-1177,-780,-300,-48,164,-308
14742,5636,0,2023-03-01T18:51:09.392542,1658912,1309,1890,-468,-1177,-780,-300,-48,164,-308
14743,5637,0,2023-03-01T18:51:09.397391,1658917,1309,1890,-468,-1177,-780,-300,-48,164,-308
14744,5638,0,2023-03-01T18:51:09.403163,1658924,1309,1890,-468,-1177,-780,-300,-48,164,-308
14745,5639,0,2023-03-01T18:51:09.408230,1658929,1309,1890,-468,-1177,-780,-300,-48,164,-308
14746,5640,0,2023-03-01T18:51:09.413336,1658934,1309,1890,-468,-1177,-780,-300,-48,164,-308
14747,5641,0,2023-03-01T18:51:09.420086,1658940,1309,1890,-470,-1180,-783,-300,-48,164,-308
14748,5642,0,2023-03-01T18:51:09.425697,1658946,1309,1890,-470,-1180,-783,-300,-48,164,-308
14749,5643,0,2023-03-01T18:51:09.430497,1658951,1309,1890,-470,-1180,-783,-300,-48,164,-308
14750,5644,0,2023-03-01T18:51:09.436134,1658956,1314,1894,-468,-1173,-778,-296,-59,167,-299
14751,5645,0,2023-03-01T18:51:09.442823,1658962,1314,1894,-468,-1173,-778,-296,-59,167,-299
14752,5646,0,2023-03-01T18:51:09.447687,1658968,1314,1894,-468,-1173,-778,-296,-59,167,-299
14753,5647,0,2023-03-01T18:51:09.452510,1658973,1314,1894,-468,-1173,-778,-296,-59,167,-299
14754,5648,0,2023-03-01T18:51:09.457405,1658978,1307,1891,-473,-1169,-782,-299,-59,167,-299
14755,5649,0,2023-03-01T18:51:09.463073,1658983,1307,1891,-473,-1169,-782,-299,-59,167,-299
14756,5650,0,2023-03-01T18:51:09.467897,1658988,1307,1891,-473,-1169,-782,-299,-59,167,-299
14757,5651,0,2023-03-01T18:51:09.472859,1658993,1307,1891,-473,-1169,-782,-299,-59,167,-299
14758,5652,0,2023-03-01T18:51:09.479252,1658999,1310,1889,-471,-1178,-784,-300,-59,167,-299
14759,5653,0,2023-03-01T18:51:09.484689,1659005,1310,1889,-471,-1178,-784,-300,-59,167,-299
14760,5654,0,2023-03-01T18:51:09.489772,1659010,1310,1889,-471,-1178,-784,-300,-59,167,-299
14761,5655,0,2023-03-01T18:51:09.494802,1659015,1310,1889,-471,-1178,-784,-300,-59,167,-299
14762,5656,0,2023-03-01T18:51:09.500915,1659021,1312,1891,-469,-1182,-783,-299,-59,167,-299
14763,5657,0,2023-03-01T18:51:09.506567,1659027,1312,1891,-469,-1182,-783,-299,-59,167,-299
14764,5658,0,2023-03-01T18:51:09.511384,1659032,1312,1891,-469,-1182,-783,-299,-59,167,-299
14765,5659,0,2023-03-01T18:51:09.516344,1659036,1310,1891,-470,-1185,-783,-296,-59,167,-299
14766,5660,0,2023-03-01T18:51:09.521676,1659042,1310,1891,-470,-1185,-783,-296,-59,167,-299
14767,5661,0,2023-03-01T18:51:09.526741,1659047,1310,1891,-470,-1185,-783,-296,-59,167,-299
14768,5662,0,2023-03-01T18:51:09.531553,1659052,1310,1891,-470,-1185,-783,-296,-59,167,-299
14769,5663,0,2023-03-01T18:51:09.537079,1659057,1308,1892,-468,-1180,-786,-302,-59,167,-299
14770,5664,0,2023-03-01T18:51:09.543233,1659064,1308,1892,-468,-1180,-786,-302,-59,167,-299
14771,5665,0,2023-03-01T18:51:09.547914,1659068,1308,1892,-468,-1180,-786,-302,-59,167,-299
14772,5666,0,2023-03-01T18:51:09.552774,1659073,1308,1892,-468,-1180,-786,-302,-59,167,-299
14773,5667,0,2023-03-01T18:51:09.558762,1659079,1309,1886,-463,-1175,-780,-309,-59,167,-299
14774,5668,0,2023-03-01T18:51:09.564756,1659084,1309,1886,-463,-1175,-780,-309,-59,167,-299
14775,5669,0,2023-03-01T18:51:09.569488,1659089,1309,1886,-463,-1175,-780,-309,-59,167,-299
14776,5670,0,2023-03-01T18:51:09.574201,1659095,1309,1886,-463,-1175,-780,-309,-59,167,-299
14777,5671,0,2023-03-01T18:51:09.580890,1659101,1313,1892,-462,-1167,-779,-301,-46,160,-298
14778,5672,0,2023-03-01T18:51:09.587196,1659107,1313,1892,-462,-1167,-779,-301,-46,160,-298
14779,5673,0,2023-03-01T18:51:09.592250,1659113,1313,1892,-462,-1167,-779,-301,-46,160,-298
14780,5674,0,2023-03-01T18:51:09.598510,1659118,1312,1890,-467,-1172,-778,-302,-46,160,-298
14781,5675,0,2023-03-01T18:51:09.604096,1659124,1312,1890,-467,-1172,-778,-302,-46,160,-298
14782,5676,0,2023-03-01T18:51:09.609041,1659129,1312,1890,-467,-1172,-778,-302,-46,160,-298
14783,5677,0,2023-03-01T18:51:09.614192,1659134,1312,1890,-467,-1172,-778,-302,-46,160,-298
14784,5678,0,2023-03-01T18:51:09.620141,1659141,1306,1890,-470,-1177,-764,-300,-46,160,-298
14785,5679,0,2023-03-01T18:51:09.625849,1659146,1306,1890,-470,-1177,-764,-300,-46,160,-298
14786,5680,0,2023-03-01T18:51:09.630903,1659151,1306,1890,-470,-1177,-764,-300,-46,160,-298
14787,5681,0,2023-03-01T18:51:09.635868,1659156,1309,1890,-467,-1174,-766,-299,-46,160,-298
14788,5682,0,2023-03-01T18:51:09.641596,1659162,1309,1890,-467,-1174,-766,-299,-46,160,-298
14789,5683,0,2023-03-01T18:51:09.646340,1659166,1309,1890,-467,-1174,-766,-299,-46,160,-298
14790,5684,0,2023-03-01T18:51:09.651523,1659171,1309,1890,-467,-1174,-766,-299,-46,160,-298
14791,5685,0,2023-03-01T18:51:09.656450,1659176,1311,1889,-470,-1166,-760,-309,-46,160,-298
14792,5686,0,2023-03-01T18:51:09.662434,1659183,1311,1889,-470,-1166,-760,-309,-46,160,-298
14793,5687,0,2023-03-01T18:51:09.667625,1659188,1311,1889,-470,-1166,-760,-309,-46,160,-298
14794,5688,0,2023-03-01T18:51:09.672384,1659193,1311,1889,-470,-1166,-760,-309,-46,160,-298
14795,5689,0,2023-03-01T18:51:09.678399,1659199,1310,1891,-467,-1159,-752,-310,-46,160,-298
14796,5690,0,2023-03-01T18:51:09.683864,1659204,1310,1891,-467,-1159,-752,-310,-46,160,-298
14797,5691,0,2023-03-01T18:51:09.688995,1659209,1310,1891,-467,-1159,-752,-310,-46,160,-298
14798,5692,0,2023-03-01T18:51:09.694260,1659214,1310,1891,-467,-1159,-752,-310,-46,160,-298
14799,5693,0,2023-03-01T18:51:09.700806,1659220,1307,1887,-463,-1151,-775,-294,-53,161,-315
14800,5694,0,2023-03-01T18:51:09.706395,1659227,1307,1887,-463,-1151,-775,-294,-53,161,-315
14801,5695,0,2023-03-01T18:51:09.711245,1659232,1307,1887,-463,-1151,-775,-294,-53,161,-315
14802,5696,0,2023-03-01T18:51:09.715928,1659236,1308,1890,-462,-1160,-773,-301,-53,161,-315
14803,5697,0,2023-03-01T18:51:09.721439,1659242,1308,1890,-462,-1160,-773,-301,-53,161,-315
14804,5698,0,2023-03-01T18:51:09.725946,1659246,1308,1890,-462,-1160,-773,-301,-53,161,-315
14805,5699,0,2023-03-01T18:51:09.730875,1659251,1308,1890,-462,-1160,-773,-301,-53,161,-315
14806,5700,0,2023-03-01T18:51:09.736709,1659257,1311,1890,-466,-1160,-769,-298,-53,161,-315
14807,5701,0,2023-03-01T18:51:09.743508,1659264,1311,1890,-466,-1160,-769,-298,-53,161,-315
14808,5702,0,2023-03-01T18:51:09.748540,1659269,1311,1890,-466,-1160,-769,-298,-53,161,-315
14809,5703,0,2023-03-01T18:51:09.753248,1659274,1311,1890,-466,-1160,-769,-298,-53,161,-315
14810,5704,0,2023-03-01T18:51:09.759690,1659280,1309,1892,-468,-1176,-772,-299,-53,161,-315
14811,5705,0,2023-03-01T18:51:09.765231,1659286,1309,1892,-468,-1176,-772,-299,-53,161,-315
14812,5706,0,2023-03-01T18:51:09.770055,1659290,1309,1892,-468,-1176,-772,-299,-53,161,-315
14813,5707,0,2023-03-01T18:51:09.775165,1659295,1309,1892,-468,-1176,-772,-299,-53,161,-315
14814,5708,0,2023-03-01T18:51:09.780256,1659300,1310,1890,-465,-1184,-791,-303,-53,161,-315
14815,5709,0,2023-03-01T18:51:09.786094,1659307,1310,1890,-465,-1184,-791,-303,-53,161,-315
14816,5710,0,2023-03-01T18:51:09.791062,1659312,1310,1890,-465,-1184,-791,-303,-53,161,-315
14817,5711,0,2023-03-01T18:51:09.796622,1659317,1311,1889,-472,-1191,-796,-302,-53,161,-315
14818,5712,0,2023-03-01T18:51:09.802570,1659323,1311,1889,-472,-1191,-796,-302,-53,161,-315
14819,5713,0,2023-03-01T18:51:09.807242,1659328,1311,1889,-472,-1191,-796,-302,-53,161,-315
14820,5714,0,2023-03-01T18:51:09.812123,1659332,1311,1889,-472,-1191,-796,-302,-53,161,-315
14821,5715,0,2023-03-01T18:51:09.818110,1659338,1310,1890,-462,-1185,-796,-304,-53,161,-315
14822,5716,0,2023-03-01T18:51:09.823489,1659343,1310,1890,-462,-1185,-796,-304,-53,161,-315
14823,5717,0,2023-03-01T18:51:09.828246,1659348,1310,1890,-462,-1185,-796,-304,-53,161,-315
14824,5718,0,2023-03-01T18:51:09.833236,1659354,1310,1890,-462,-1185,-796,-304,-53,161,-315
14825,5719,0,2023-03-01T18:51:09.838966,1659359,1309,1894,-463,-1183,-793,-296,-51,159,-307
14826,5720,0,2023-03-01T18:51:09.844871,1659365,1309,1894,-463,-1183,-793,-296,-51,159,-307
14827,5721,0,2023-03-01T18:51:09.849676,1659370,1309,1894,-463,-1183,-793,-296,-51,159,-307
14828,5722,0,2023-03-01T18:51:09.854417,1659375,1309,1894,-463,-1183,-793,-296,-51,159,-307
14829,5723,0,2023-03-01T18:51:09.860139,1659380,1310,1893,-468,-1180,-785,-304,-51,159,-307
14830,5724,0,2023-03-01T18:51:09.865096,1659385,1310,1893,-468,-1180,-785,-304,-51,159,-307
14831,5725,0,2023-03-01T18:51:09.870029,1659390,1310,1893,-468,-1180,-785,-304,-51,159,-307
14832,5726,0,2023-03-01T18:51:09.874853,1659396,1310,1893,-468,-1180,-785,-304,-51,159,-307
14833,5727,0,2023-03-01T18:51:09.881183,1659402,1311,1888,-465,-1177,-782,-297,-51,159,-307
14834,5728,0,2023-03-01T18:51:09.886567,1659407,1311,1888,-465,-1177,-782,-297,-51,159,-307
14835,5729,0,2023-03-01T18:51:09.891695,1659412,1311,1888,-465,-1177,-782,-297,-51,159,-307
14836,5730,0,2023-03-01T18:51:09.897581,1659418,1315,1892,-466,-1175,-777,-308,-51,159,-307
14837,5731,0,2023-03-01T18:51:09.903502,1659424,1315,1892,-466,-1175,-777,-308,-51,159,-307
14838,5732,0,2023-03-01T18:51:09.908774,1659429,1315,1892,-466,-1175,-777,-308,-51,159,-307
14839,5733,0,2023-03-01T18:51:09.914192,1659435,1315,1892,-466,-1175,-777,-308,-51,159,-307
14840,5734,0,2023-03-01T18:51:09.920810,1659441,1312,1891,-468,-1181,-788,-302,-51,159,-307
14841,5735,0,2023-03-01T18:51:09.926752,1659447,1312,1891,-468,-1181,-788,-302,-51,159,-307
14842,5736,0,2023-03-01T18:51:09.931609,1659452,1312,1891,-468,-1181,-788,-302,-51,159,-307
14843,5737,0,2023-03-01T18:51:09.937151,1659457,1314,1889,-473,-1177,-793,-297,-51,159,-307
14844,5738,0,2023-03-01T18:51:09.943163,1659463,1314,1889,-473,-1177,-793,-297,-51,159,-307
14845,5739,0,2023-03-01T18:51:09.948453,1659468,1314,1889,-473,-1177,-793,-297,-51,159,-307
14846,5740,0,2023-03-01T18:51:09.953705,1659473,1314,1889,-473,-1177,-793,-297,-51,159,-307
14847,5741,0,2023-03-01T18:51:09.959376,1659480,1314,1889,-463,-1183,-783,-298,-52,168,-304
14848,5742,0,2023-03-01T18:51:09.964704,1659485,1314,1889,-463,-1183,-783,-298,-52,168,-304
14849,5743,0,2023-03-01T18:51:09.969890,1659490,1314,1889,-463,-1183,-783,-298,-52,168,-304
14850,5744,0,2023-03-01T18:51:09.974906,1659495,1314,1889,-463,-1183,-783,-298,-52,168,-304
14851,5745,0,2023-03-01T18:51:09.981372,1659501,1311,1886,-463,-1183,-785,-298,-52,168,-304
14852,5746,0,2023-03-01T18:51:09.987343,1659507,1311,1886,-463,-1183,-785,-298,-52,168,-304
14853,5747,0,2023-03-01T18:51:09.992507,1659512,1311,1886,-463,-1183,-785,-298,-52,168,-304
14854,5748,0,2023-03-01T18:51:09.998382,1659518,1310,1888,-469,-1174,-784,-299,-52,168,-304
14855,5749,0,2023-03-01T18:51:10.003855,1659524,1310,1888,-469,-1174,-784,-299,-52,168,-304
14856,5750,0,2023-03-01T18:51:10.008502,1659529,1310,1888,-469,-1174,-784,-299,-52,168,-304
14857,5751,0,2023-03-01T18:51:10.013442,1659534,1310,1888,-469,-1174,-784,-299,-52,168,-304
14858,5752,0,2023-03-01T18:51:10.019494,1659540,1314,1889,-461,-1166,-775,-304,-52,168,-304
14859,5753,0,2023-03-01T18:51:10.025624,1659545,1314,1889,-461,-1166,-775,-304,-52,168,-304
14860,5754,0,2023-03-01T18:51:10.030447,1659551,1314,1889,-461,-1166,-775,-304,-52,168,-304
14861,5755,0,2023-03-01T18:51:10.037233,1659556,1310,1887,-468,-1171,-782,-305,-52,168,-304
14862,5756,0,2023-03-01T18:51:10.043755,1659564,1310,1887,-468,-1171,-782,-305,-52,168,-304
14863,5757,0,2023-03-01T18:51:10.048707,1659569,1310,1887,-468,-1171,-782,-305,-52,168,-304
14864,5758,0,2023-03-01T18:51:10.053479,1659574,1310,1887,-468,-1171,-782,-305,-52,168,-304
14865,5759,0,2023-03-01T18:51:10.059032,1659580,1313,1886,-473,-1173,-776,-303,-52,168,-304
14866,5760,0,2023-03-01T18:51:10.064166,1659585,1313,1886,-473,-1173,-776,-303,-52,168,-304
14867,5761,0,2023-03-01T18:51:10.068921,1659589,1313,1886,-473,-1173,-776,-303,-52,168,-304
14868,5762,0,2023-03-01T18:51:10.074115,1659594,1313,1886,-473,-1173,-776,-303,-52,168,-304
14869,5763,0,2023-03-01T18:51:10.080125,1659600,1311,1886,-461,-1172,-776,-303,-50,162,-310
14870,5764,0,2023-03-01T18:51:10.085623,1659606,1311,1886,-461,-1172,-776,-303,-50,162,-310
14871,5765,0,2023-03-01T18:51:10.090713,1659611,1311,1886,-461,-1172,-776,-303,-50,162,-310
14872,5766,0,2023-03-01T18:51:10.095524,1659616,1311,1886,-461,-1172,-776,-303,-50,162,-310
14873,5767,0,2023-03-01T18:51:10.101930,1659622,1314,1892,-469,-1177,-786,-303,-50,162,-310
14874,5768,0,2023-03-01T18:51:10.107180,1659628,1314,1892,-469,-1177,-786,-303,-50,162,-310
14875,5769,0,2023-03-01T18:51:10.111932,1659632,1314,1892,-469,-1177,-786,-303,-50,162,-310
14876,5770,0,2023-03-01T18:51:10.117531,1659637,1309,1891,-471,-1187,-793,-299,-50,162,-310
14877,5771,0,2023-03-01T18:51:10.123629,1659644,1309,1891,-471,-1187,-793,-299,-50,162,-310
14878,5772,0,2023-03-01T18:51:10.128171,1659649,1309,1891,-471,-1187,-793,-299,-50,162,-310
14879,5773,0,2023-03-01T18:51:10.132640,1659653,1309,1891,-471,-1187,-793,-299,-50,162,-310
14880,5774,0,2023-03-01T18:51:10.138636,1659659,1309,1888,-464,-1179,-794,-298,-50,162,-310
14881,5775,0,2023-03-01T18:51:10.144001,1659664,1309,1888,-464,-1179,-794,-298,-50,162,-310
14882,5776,0,2023-03-01T18:51:10.149075,1659669,1309,1888,-464,-1179,-794,-298,-50,162,-310
14883,5777,0,2023-03-01T18:51:10.153709,1659674,1309,1888,-464,-1179,-794,-298,-50,162,-310
14884,5778,0,2023-03-01T18:51:10.159697,1659680,1315,1891,-471,-1169,-786,-299,-50,162,-310
14885,5779,0,2023-03-01T18:51:10.165992,1659686,1315,1891,-471,-1169,-786,-299,-50,162,-310
14886,5780,0,2023-03-01T18:51:10.171000,1659692,1315,1891,-471,-1169,-786,-299,-50,162,-310
14887,5781,0,2023-03-01T18:51:10.176623,1659697,1315,1892,-466,-1173,-785,-301,-50,162,-310
14888,5782,0,2023-03-01T18:51:10.183114,1659703,1315,1892,-466,-1173,-785,-301,-50,162,-310
14889,5783,0,2023-03-01T18:51:10.188119,1659708,1315,1892,-466,-1173,-785,-301,-50,162,-310
14890,5784,0,2023-03-01T18:51:10.192756,1659713,1315,1892,-466,-1173,-785,-301,-50,162,-310
14891,5785,0,2023-03-01T18:51:10.199007,1659719,1310,1888,-463,-1173,-775,-297,-50,162,-310
14892,5786,0,2023-03-01T18:51:10.204505,1659725,1310,1888,-463,-1173,-775,-297,-50,162,-310
14893,5787,0,2023-03-01T18:51:10.209442,1659729,1310,1888,-463,-1173,-775,-297,-50,162,-310
14894,5788,0,2023-03-01T18:51:10.214270,1659735,1310,1888,-463,-1173,-775,-297,-50,162,-310
14895,5789,0,2023-03-01T18:51:10.220352,1659741,1311,1890,-463,-1172,-784,-300,-61,163,-299
14896,5790,0,2023-03-01T18:51:10.225561,1659746,1311,1890,-463,-1172,-784,-300,-61,163,-299
14897,5791,0,2023-03-01T18:51:10.230726,1659751,1311,1890,-463,-1172,-784,-300,-61,163,-299
14898,5792,0,2023-03-01T18:51:10.235933,1659756,1311,1890,-463,-1172,-784,-300,-61,163,-299
14899,5793,0,2023-03-01T18:51:10.241674,1659762,1314,1890,-464,-1184,-786,-306,-61,163,-299
14900,5794,0,2023-03-01T18:51:10.247444,1659767,1314,1890,-464,-1184,-786,-306,-61,163,-299
14901,5795,0,2023-03-01T18:51:10.252107,1659772,1314,1890,-464,-1184,-786,-306,-61,163,-299
14902,5796,0,2023-03-01T18:51:10.257614,1659778,1312,1888,-464,-1183,-791,-299,-61,163,-299
14903,5797,0,2023-03-01T18:51:10.263841,1659784,1312,1888,-464,-1183,-791,-299,-61,163,-299
14904,5798,0,2023-03-01T18:51:10.268577,1659789,1312,1888,-464,-1183,-791,-299,-61,163,-299
14905,5799,0,2023-03-01T18:51:10.273213,1659794,1312,1888,-464,-1183,-791,-299,-61,163,-299
14906,5800,0,2023-03-01T18:51:10.279664,1659800,1311,1890,-473,-1192,-787,-299,-61,163,-299
14907,5801,0,2023-03-01T18:51:10.286100,1659806,1311,1890,-473,-1192,-787,-299,-61,163,-299
14908,5802,0,2023-03-01T18:51:10.291309,1659811,1311,1890,-473,-1192,-787,-299,-61,163,-299
14909,5803,0,2023-03-01T18:51:10.296798,1659817,1315,1888,-463,-1192,-790,-307,-61,163,-299
14910,5804,0,2023-03-01T18:51:10.302565,1659823,1315,1888,-463,-1192,-790,-307,-61,163,-299
14911,5805,0,2023-03-01T18:51:10.307447,1659828,1315,1888,-463,-1192,-790,-307,-61,163,-299
14912,5806,0,2023-03-01T18:51:10.312499,1659833,1315,1888,-463,-1192,-790,-307,-61,163,-299
14913,5807,0,2023-03-01T18:51:10.317413,1659838,1314,1891,-469,-1176,-784,-300,-61,163,-299
14914,5808,0,2023-03-01T18:51:10.323739,1659844,1314,1891,-469,-1176,-784,-300,-61,163,-299
14915,5809,0,2023-03-01T18:51:10.328602,1659849,1314,1891,-469,-1176,-784,-300,-61,163,-299
14916,5810,0,2023-03-01T18:51:10.333795,1659853,1314,1891,-469,-1176,-784,-300,-61,163,-299
14917,5811,0,2023-03-01T18:51:10.339203,1659859,1314,1888,-464,-1173,-777,-300,-56,172,-316
14918,5812,0,2023-03-01T18:51:10.344839,1659866,1314,1888,-464,-1173,-777,-300,-56,172,-316
14919,5813,0,2023-03-01T18:51:10.350114,1659870,1314,1888,-464,-1173,-777,-300,-56,172,-316
14920,5814,0,2023-03-01T18:51:10.355641,1659876,1314,1888,-464,-1173,-777,-300,-56,172,-316
14921,5815,0,2023-03-01T18:51:10.361267,1659881,1312,1890,-466,-1163,-787,-292,-56,172,-316
14922,5816,0,2023-03-01T18:51:10.366626,1659887,1312,1890,-466,-1163,-787,-292,-56,172,-316
14923,5817,0,2023-03-01T18:51:10.371540,1659892,1312,1890,-466,-1163,-787,-292,-56,172,-316
14924,5818,0,2023-03-01T18:51:10.377075,1659897,1315,1886,-466,-1172,-798,-298,-56,172,-316
14925,5819,0,2023-03-01T18:51:10.383194,1659904,1315,1886,-466,-1172,-798,-298,-56,172,-316
14926,5820,0,2023-03-01T18:51:10.388220,1659909,1315,1886,-466,-1172,-798,-298,-56,172,-316
14927,5821,0,2023-03-01T18:51:10.393155,1659914,1315,1886,-466,-1172,-798,-298,-56,172,-316
14928,5822,0,2023-03-01T18:51:10.399282,1659920,1312,1888,-459,-1176,-796,-297,-56,172,-316
14929,5823,0,2023-03-01T18:51:10.404926,1659925,1312,1888,-459,-1176,-796,-297,-56,172,-316
14930,5824,0,2023-03-01T18:51:10.409409,1659930,1312,1888,-459,-1176,-796,-297,-56,172,-316
14931,5825,0,2023-03-01T18:51:10.414278,1659934,1312,1888,-459,-1176,-796,-297,-56,172,-316
14932,5826,0,2023-03-01T18:51:10.420201,1659940,1316,1890,-473,-1186,-796,-298,-56,172,-316
14933,5827,0,2023-03-01T18:51:10.425846,1659947,1316,1890,-473,-1186,-796,-298,-56,172,-316
14934,5828,0,2023-03-01T18:51:10.430997,1659952,1316,1890,-473,-1186,-796,-298,-56,172,-316
14935,5829,0,2023-03-01T18:51:10.436128,1659956,1316,1890,-473,-1186,-796,-298,-56,172,-316
14936,5830,0,2023-03-01T18:51:10.441434,1659962,1314,1891,-468,-1189,-794,-302,-56,172,-316
14937,5831,0,2023-03-01T18:51:10.447228,1659967,1314,1891,-468,-1189,-794,-302,-56,172,-316
14938,5832,0,2023-03-01T18:51:10.452012,1659972,1314,1891,-468,-1189,-794,-302,-56,172,-316
14939,5833,0,2023-03-01T18:51:10.458259,1659978,1312,1889,-473,-1181,-795,-300,-56,172,-316
14940,5834,0,2023-03-01T18:51:10.464049,1659984,1312,1889,-473,-1181,-795,-300,-56,172,-316
14941,5835,0,2023-03-01T18:51:10.468862,1659990,1312,1889,-473,-1181,-795,-300,-56,172,-316
14942,5836,0,2023-03-01T18:51:10.474266,1659995,1312,1889,-473,-1181,-795,-300,-56,172,-316
14943,5837,0,2023-03-01T18:51:10.479594,1660000,1315,1887,-460,-1180,-788,-308,-53,163,-299
14944,5838,0,2023-03-01T18:51:10.485078,1660005,1315,1887,-460,-1180,-788,-308,-53,163,-299
14945,5839,0,2023-03-01T18:51:10.490128,1660010,1315,1887,-460,-1180,-788,-308,-53,163,-299
14946,5840,0,2023-03-01T18:51:10.495324,1660015,1315,1887,-460,-1180,-788,-308,-53,163,-299
14947,5841,0,2023-03-01T18:51:10.501531,1660021,1315,1886,-470,-1181,-799,-298,-53,163,-299
14948,5842,0,2023-03-01T18:51:10.507131,1660027,1315,1886,-470,-1181,-799,-298,-53,163,-299
14949,5843,0,2023-03-01T18:51:10.512314,1660033,1315,1886,-470,-1181,-799,-298,-53,163,-299
14950,5844,0,2023-03-01T18:51:10.517977,1660039,1315,1890,-465,-1179,-791,-297,-53,163,-299
14951,5845,0,2023-03-01T18:51:10.524596,1660045,1315,1890,-465,-1179,-791,-297,-53,163,-299
14952,5846,0,2023-03-01T18:51:10.529585,1660050,1315,1890,-465,-1179,-791,-297,-53,163,-299
14953,5847,0,2023-03-01T18:51:10.534545,1660055,1315,1890,-465,-1179,-791,-297,-53,163,-299
14954,5848,0,2023-03-01T18:51:10.540102,1660060,1315,1888,-473,-1173,-781,-298,-53,163,-299
14955,5849,0,2023-03-01T18:51:10.546556,1660066,1315,1888,-473,-1173,-781,-298,-53,163,-299
14956,5850,0,2023-03-01T18:51:10.551902,1660072,1315,1888,-473,-1173,-781,-298,-53,163,-299
14957,5851,0,2023-03-01T18:51:10.557444,1660078,1316,1884,-462,-1177,-776,-303,-53,163,-299
14958,5852,0,2023-03-01T18:51:10.563818,1660084,1316,1884,-462,-1177,-776,-303,-53,163,-299
14959,5853,0,2023-03-01T18:51:10.569398,1660089,1316,1884,-462,-1177,-776,-303,-53,163,-299
14960,5854,0,2023-03-01T18:51:10.574288,1660094,1316,1884,-462,-1177,-776,-303,-53,163,-299
14961,5855,0,2023-03-01T18:51:10.580440,1660100,1315,1889,-468,-1176,-770,-299,-53,163,-299
14962,5856,0,2023-03-01T18:51:10.585608,1660106,1315,1889,-468,-1176,-770,-299,-53,163,-299
14963,5857,0,2023-03-01T18:51:10.590416,1660110,1315,1889,-468,-1176,-770,-299,-53,163,-299
14964,5858,0,2023-03-01T18:51:10.595736,1660116,1315,1889,-468,-1176,-770,-299,-53,163,-299
14965,5859,0,2023-03-01T18:51:10.602040,1660123,1310,1886,-460,-1170,-769,-305,-55,169,-303
14966,5860,0,2023-03-01T18:51:10.608006,1660128,1310,1886,-460,-1170,-769,-305,-55,169,-303
14967,5861,0,2023-03-01T18:51:10.613045,1660133,1310,1886,-460,-1170,-769,-305,-55,169,-303
14968,5862,0,2023-03-01T18:51:10.619108,1660139,1313,1887,-464,-1176,-775,-304,-55,169,-303
14969,5863,0,2023-03-01T18:51:10.625589,1660145,1313,1887,-464,-1176,-775,-304,-55,169,-303
14970,5864,0,2023-03-01T18:51:10.630570,1660151,1313,1887,-464,-1176,-775,-304,-55,169,-303
14971,5865,0,2023-03-01T18:51:10.635360,1660155,1313,1887,-464,-1176,-775,-304,-55,169,-303
14972,5866,0,2023-03-01T18:51:10.641503,1660162,1315,1889,-466,-1165,-766,-300,-55,169,-303
14973,5867,0,2023-03-01T18:51:10.646291,1660167,1315,1889,-466,-1165,-766,-300,-55,169,-303
14974,5868,0,2023-03-01T18:51:10.651133,1660172,1315,1889,-466,-1165,-766,-300,-55,169,-303
14975,5869,0,2023-03-01T18:51:10.656800,1660177,1312,1889,-467,-1169,-774,-303,-55,169,-303
14976,5870,0,2023-03-01T18:51:10.662865,1660183,1312,1889,-467,-1169,-774,-303,-55,169,-303
14977,5871,0,2023-03-01T18:51:10.667545,1660188,1312,1889,-467,-1169,-774,-303,-55,169,-303
14978,5872,0,2023-03-01T18:51:10.672127,1660192,1312,1889,-467,-1169,-774,-303,-55,169,-303
14979,5873,0,2023-03-01T18:51:10.677925,1660197,1317,1892,-469,-1173,-775,-303,-55,169,-303
14980,5874,0,2023-03-01T18:51:10.684249,1660205,1317,1892,-469,-1173,-775,-303,-55,169,-303
14981,5875,0,2023-03-01T18:51:10.689045,1660210,1317,1892,-469,-1173,-775,-303,-55,169,-303
14982,5876,0,2023-03-01T18:51:10.693638,1660214,1317,1892,-469,-1173,-775,-303,-55,169,-303
14983,5877,0,2023-03-01T18:51:10.699537,1660220,1315,1890,-470,-1176,-772,-305,-55,169,-303
14984,5878,0,2023-03-01T18:51:10.705018,1660225,1315,1890,-470,-1176,-772,-305,-55,169,-303
14985,5879,0,2023-03-01T18:51:10.709936,1660230,1315,1890,-470,-1176,-772,-305,-55,169,-303
14986,5880,0,2023-03-01T18:51:10.714978,1660235,1315,1890,-470,-1176,-772,-305,-55,169,-303
14987,5881,0,2023-03-01T18:51:10.721005,1660241,1309,1884,-468,-1174,-782,-299,-55,169,-303
14988,5882,0,2023-03-01T18:51:10.726618,1660247,1309,1884,-468,-1174,-782,-299,-55,169,-303
14989,5883,0,2023-03-01T18:51:10.731706,1660252,1309,1884,-468,-1174,-782,-299,-55,169,-303
14990,5884,0,2023-03-01T18:51:10.737141,1660258,1315,1890,-464,-1181,-784,-300,-56,162,-308
14991,5885,0,2023-03-01T18:51:10.743287,1660263,1315,1890,-464,-1181,-784,-300,-56,162,-308
14992,5886,0,2023-03-01T18:51:10.748614,1660269,1315,1890,-464,-1181,-784,-300,-56,162,-308
14993,5887,0,2023-03-01T18:51:10.753370,1660274,1315,1890,-464,-1181,-784,-300,-56,162,-308
14994,5888,0,2023-03-01T18:51:10.759556,1660280,1313,1886,-470,-1180,-780,-306,-56,162,-308
14995,5889,0,2023-03-01T18:51:10.764944,1660285,1313,1886,-470,-1180,-780,-306,-56,162,-308
14996,5890,0,2023-03-01T18:51:10.770240,1660291,1313,1886,-470,-1180,-780,-306,-56,162,-308
14997,5891,0,2023-03-01T18:51:10.775302,1660296,1313,1886,-470,-1180,-780,-306,-56,162,-308
14998,5892,0,2023-03-01T18:51:10.780826,1660301,1315,1886,-460,-1171,-771,-307,-56,162,-308
14999,5893,0,2023-03-01T18:51:10.786621,1660307,1315,1886,-460,-1171,-771,-307,-56,162,-308
15000,5894,0,2023-03-01T18:51:10.792383,1660313,1315,1886,-460,-1171,-771,-307,-56,162,-308
15001,5895,0,2023-03-01T18:51:10.798262,1660318,1312,1887,-468,-1173,-776,-298,-56,162,-308
15002,5896,0,2023-03-01T18:51:10.804738,1660325,1312,1887,-468,-1173,-776,-298,-56,162,-308
15003,5897,0,2023-03-01T18:51:10.809570,1660329,1312,1887,-468,-1173,-776,-298,-56,162,-308
15004,5898,0,2023-03-01T18:51:10.814536,1660335,1312,1887,-468,-1173,-776,-298,-56,162,-308
15005,5899,0,2023-03-01T18:51:10.820367,1660341,1313,1887,-467,-1175,-793,-296,-56,162,-308
15006,5900,0,2023-03-01T18:51:10.826032,1660347,1313,1887,-467,-1175,-793,-296,-56,162,-308
15007,5901,0,2023-03-01T18:51:10.831088,1660351,1313,1887,-467,-1175,-793,-296,-56,162,-308
15008,5902,0,2023-03-01T18:51:10.837029,1660357,1314,1887,-466,-1177,-802,-292,-56,162,-308
15009,5903,0,2023-03-01T18:51:10.841968,1660362,1314,1887,-466,-1177,-802,-292,-56,162,-308
15010,5904,0,2023-03-01T18:51:10.847033,1660367,1314,1887,-466,-1177,-802,-292,-56,162,-308
15011,5905,0,2023-03-01T18:51:10.851721,1660372,1314,1887,-466,-1177,-802,-292,-56,162,-308
15012,5906,0,2023-03-01T18:51:10.856649,1660377,1314,1887,-466,-1177,-802,-292,-56,162,-308
15013,5907,0,2023-03-01T18:51:10.861969,1660383,1313,1886,-466,-1182,-806,-297,-63,167,-305
15014,5908,0,2023-03-01T18:51:10.867332,1660388,1313,1886,-466,-1182,-806,-297,-63,167,-305
15015,5909,0,2023-03-01T18:51:10.872268,1660393,1313,1886,-466,-1182,-806,-297,-63,167,-305
15016,5910,0,2023-03-01T18:51:10.877090,1660397,1315,1886,-461,-1187,-798,-298,-63,167,-305
15017,5911,0,2023-03-01T18:51:10.883092,1660403,1315,1886,-461,-1187,-798,-298,-63,167,-305
15018,5912,0,2023-03-01T18:51:10.887937,1660408,1315,1886,-461,-1187,-798,-298,-63,167,-305
15019,5913,0,2023-03-01T18:51:10.893016,1660413,1315,1886,-461,-1187,-798,-298,-63,167,-305
15020,5914,0,2023-03-01T18:51:10.897819,1660418,1315,1889,-468,-1186,-794,-305,-63,167,-305
15021,5915,0,2023-03-01T18:51:10.904031,1660425,1315,1889,-468,-1186,-794,-305,-63,167,-305
15022,5916,0,2023-03-01T18:51:10.909103,1660430,1315,1889,-468,-1186,-794,-305,-63,167,-305
15023,5917,0,2023-03-01T18:51:10.914017,1660434,1315,1889,-468,-1186,-794,-305,-63,167,-305
15024,5918,0,2023-03-01T18:51:10.919837,1660440,1315,1886,-464,-1193,-795,-301,-63,167,-305
15025,5919,0,2023-03-01T18:51:10.925239,1660445,1315,1886,-464,-1193,-795,-301,-63,167,-305
15026,5920,0,2023-03-01T18:51:10.930020,1660450,1315,1886,-464,-1193,-795,-301,-63,167,-305
15027,5921,0,2023-03-01T18:51:10.934923,1660455,1315,1886,-464,-1193,-795,-301,-63,167,-305
15028,5922,0,2023-03-01T18:51:10.940540,1660461,1316,1888,-465,-1189,-794,-298,-63,167,-305
15029,5923,0,2023-03-01T18:51:10.946287,1660467,1316,1888,-465,-1189,-794,-298,-63,167,-305
15030,5924,0,2023-03-01T18:51:10.951355,1660472,1316,1888,-465,-1189,-794,-298,-63,167,-305
15031,5925,0,2023-03-01T18:51:10.956538,1660477,1316,1888,-465,-1189,-794,-298,-63,167,-305
15032,5926,0,2023-03-01T18:51:10.961951,1660482,1314,1884,-469,-1180,-786,-301,-63,167,-305
15033,5927,0,2023-03-01T18:51:10.967909,1660488,1314,1884,-469,-1180,-786,-301,-63,167,-305
15034,5928,0,2023-03-01T18:51:10.972980,1660493,1314,1884,-469,-1180,-786,-301,-63,167,-305
15035,5929,0,2023-03-01T18:51:10.978948,1660499,1318,1887,-461,-1183,-795,-292,-62,164,-298
15036,5930,0,2023-03-01T18:51:10.984485,1660505,1318,1887,-461,-1183,-795,-292,-62,164,-298
15037,5931,0,2023-03-01T18:51:10.989271,1660510,1318,1887,-461,-1183,-795,-292,-62,164,-298
15038,5932,0,2023-03-01T18:51:10.994142,1660515,1318,1887,-461,-1183,-795,-292,-62,164,-298
15039,5933,0,2023-03-01T18:51:10.999831,1660520,1315,1888,-469,-1183,-784,-296,-62,164,-298
15040,5934,0,2023-03-01T18:51:11.005447,1660526,1315,1888,-469,-1183,-784,-296,-62,164,-298
15041,5935,0,2023-03-01T18:51:11.010149,1660530,1315,1888,-469,-1183,-784,-296,-62,164,-298
15042,5936,0,2023-03-01T18:51:11.015176,1660535,1315,1888,-469,-1183,-784,-296,-62,164,-298
15043,5937,0,2023-03-01T18:51:11.021698,1660542,1318,1891,-462,-1180,-786,-309,-62,164,-298
15044,5938,0,2023-03-01T18:51:11.027120,1660548,1318,1891,-462,-1180,-786,-309,-62,164,-298
15045,5939,0,2023-03-01T18:51:11.031915,1660553,1318,1891,-462,-1180,-786,-309,-62,164,-298
15046,5940,0,2023-03-01T18:51:11.037754,1660558,1315,1887,-467,-1170,-808,-301,-62,164,-298
15047,5941,0,2023-03-01T18:51:11.043938,1660564,1315,1887,-467,-1170,-808,-301,-62,164,-298
15048,5942,0,2023-03-01T18:51:11.048421,1660569,1315,1887,-467,-1170,-808,-301,-62,164,-298
15049,5943,0,2023-03-01T18:51:11.053293,1660573,1315,1887,-467,-1170,-808,-301,-62,164,-298
15050,5944,0,2023-03-01T18:51:11.059598,1660579,1316,1887,-469,-1185,-794,-300,-62,164,-298
15051,5945,0,2023-03-01T18:51:11.064977,1660585,1316,1887,-469,-1185,-794,-300,-62,164,-298
15052,5946,0,2023-03-01T18:51:11.070970,1660590,1316,1887,-469,-1185,-794,-300,-62,164,-298
15053,5947,0,2023-03-01T18:51:11.076246,1660597,1316,1887,-469,-1185,-794,-300,-62,164,-298
15054,5948,0,2023-03-01T18:51:11.082164,1660603,1314,1885,-470,-1177,-801,-299,-62,164,-298
15055,5949,0,2023-03-01T18:51:11.088260,1660608,1314,1885,-470,-1177,-801,-299,-62,164,-298
15056,5950,0,2023-03-01T18:51:11.093139,1660613,1314,1885,-470,-1177,-801,-299,-62,164,-298
15057,5951,0,2023-03-01T18:51:11.099251,1660619,1319,1888,-463,-1187,-789,-309,-62,164,-298
15058,5952,0,2023-03-01T18:51:11.104981,1660625,1319,1888,-463,-1187,-789,-309,-62,164,-298
15059,5953,0,2023-03-01T18:51:11.109904,1660630,1319,1888,-463,-1187,-789,-309,-62,164,-298
15060,5954,0,2023-03-01T18:51:11.115193,1660636,1319,1888,-463,-1187,-789,-309,-62,164,-298
15061,5955,0,2023-03-01T18:51:11.122195,1660643,1314,1886,-461,-1180,-788,-299,-65,167,-299
15062,5956,0,2023-03-01T18:51:11.127903,1660648,1314,1886,-461,-1180,-788,-299,-65,167,-299
15063,5957,0,2023-03-01T18:51:11.132652,1660653,1314,1886,-461,-1180,-788,-299,-65,167,-299
15064,5958,0,2023-03-01T18:51:11.137878,1660658,1313,1887,-464,-1170,-783,-301,-65,167,-299
15065,5959,0,2023-03-01T18:51:11.143353,1660663,1313,1887,-464,-1170,-783,-301,-65,167,-299
15066,5960,0,2023-03-01T18:51:11.148175,1660668,1313,1887,-464,-1170,-783,-301,-65,167,-299
15067,5961,0,2023-03-01T18:51:11.153599,1660674,1313,1887,-464,-1170,-783,-301,-65,167,-299
15068,5962,0,2023-03-01T18:51:11.159607,1660680,1316,1888,-474,-1186,-784,-305,-65,167,-299
15069,5963,0,2023-03-01T18:51:11.164900,1660685,1316,1888,-474,-1186,-784,-305,-65,167,-299
15070,5964,0,2023-03-01T18:51:11.169926,1660690,1316,1888,-474,-1186,-784,-305,-65,167,-299
15071,5965,0,2023-03-01T18:51:11.174518,1660695,1316,1888,-474,-1186,-784,-305,-65,167,-299
15072,5966,0,2023-03-01T18:51:11.180397,1660701,1314,1886,-463,-1188,-786,-304,-65,167,-299
15073,5967,0,2023-03-01T18:51:11.185413,1660706,1314,1886,-463,-1188,-786,-304,-65,167,-299
15074,5968,0,2023-03-01T18:51:11.190882,1660711,1314,1886,-463,-1188,-786,-304,-65,167,-299
15075,5969,0,2023-03-01T18:51:11.195902,1660717,1314,1886,-463,-1188,-786,-304,-65,167,-299
15076,5970,0,2023-03-01T18:51:11.202916,1660723,1315,1889,-462,-1195,-791,-296,-65,167,-299
15077,5971,0,2023-03-01T18:51:11.208401,1660729,1315,1889,-462,-1195,-791,-296,-65,167,-299
15078,5972,0,2023-03-01T18:51:11.213247,1660734,1315,1889,-462,-1195,-791,-296,-65,167,-299
15079,5973,0,2023-03-01T18:51:11.219441,1660740,1317,1885,-471,-1192,-799,-302,-65,167,-299
15080,5974,0,2023-03-01T18:51:11.224901,1660745,1317,1885,-471,-1192,-799,-302,-65,167,-299
15081,5975,0,2023-03-01T18:51:11.230293,1660750,1317,1885,-471,-1192,-799,-302,-65,167,-299
15082,5976,0,2023-03-01T18:51:11.235208,1660755,1317,1885,-471,-1192,-799,-302,-65,167,-299
15083,5977,0,2023-03-01T18:51:11.241579,1660762,1317,1887,-463,-1184,-785,-300,-57,161,-303
15084,5978,0,2023-03-01T18:51:11.247007,1660768,1317,1887,-463,-1184,-785,-300,-57,161,-303
15085,5979,0,2023-03-01T18:51:11.252516,1660773,1317,1887,-463,-1184,-785,-300,-57,161,-303
15086,5980,0,2023-03-01T18:51:11.258199,1660778,1313,1887,-464,-1182,-792,-298,-57,161,-303
15087,5981,0,2023-03-01T18:51:11.265368,1660786,1313,1887,-464,-1182,-792,-298,-57,161,-303
15088,5982,0,2023-03-01T18:51:11.270412,1660790,1313,1887,-464,-1182,-792,-298,-57,161,-303
15089,5983,0,2023-03-01T18:51:11.275140,1660795,1313,1887,-464,-1182,-792,-298,-57,161,-303
15090,5984,0,2023-03-01T18:51:11.281070,1660802,1317,1886,-464,-1190,-797,-298,-57,161,-303
15091,5985,0,2023-03-01T18:51:11.286727,1660807,1317,1886,-464,-1190,-797,-298,-57,161,-303
15092,5986,0,2023-03-01T18:51:11.291886,1660812,1317,1886,-464,-1190,-797,-298,-57,161,-303
15093,5987,0,2023-03-01T18:51:11.296543,1660817,1317,1886,-464,-1190,-797,-298,-57,161,-303
15094,5988,0,2023-03-01T18:51:11.301699,1660822,1318,1882,-473,-1184,-794,-297,-57,161,-303
15095,5989,0,2023-03-01T18:51:11.307279,1660827,1318,1882,-473,-1184,-794,-297,-57,161,-303
15096,5990,0,2023-03-01T18:51:11.312082,1660832,1318,1882,-473,-1184,-794,-297,-57,161,-303
15097,5991,0,2023-03-01T18:51:11.317230,1660837,1318,1882,-473,-1184,-794,-297,-57,161,-303
15098,5992,0,2023-03-01T18:51:11.322082,1660843,1317,1886,-471,-1188,-795,-300,-57,161,-303
15099,5993,0,2023-03-01T18:51:11.327848,1660848,1317,1886,-471,-1188,-795,-300,-57,161,-303
15100,5994,0,2023-03-01T18:51:11.332632,1660853,1317,1886,-471,-1188,-795,-300,-57,161,-303
15101,5995,0,2023-03-01T18:51:11.337379,1660858,1315,1885,-463,-1180,-795,-305,-57,161,-303
15102,5996,0,2023-03-01T18:51:11.344209,1660864,1315,1885,-463,-1180,-795,-305,-57,161,-303
15103,5997,0,2023-03-01T18:51:11.349170,1660869,1315,1885,-463,-1180,-795,-305,-57,161,-303
15104,5998,0,2023-03-01T18:51:11.354509,1660874,1315,1885,-463,-1180,-795,-305,-57,161,-303
15105,5999,0,2023-03-01T18:51:11.359822,1660880,1318,1884,-470,-1187,-799,-305,-57,161,-303
15106,6000,0,2023-03-01T18:51:11.365274,1660886,1318,1884,-470,-1187,-799,-305,-57,161,-303
15107,6001,0,2023-03-01T18:51:11.369991,1660891,1318,1884,-470,-1187,-799,-305,-57,161,-303
15108,6002,0,2023-03-01T18:51:11.374940,1660895,1318,1884,-470,-1187,-799,-305,-57,161,-303
15109,6003,0,2023-03-01T18:51:11.380955,1660902,1315,1885,-462,-1202,-802,-299,-59,171,-293
15110,6004,0,2023-03-01T18:51:11.386293,1660907,1315,1885,-462,-1202,-802,-299,-59,171,-293
15111,6005,0,2023-03-01T18:51:11.391006,1660911,1315,1885,-462,-1202,-802,-299,-59,171,-293
15112,6006,0,2023-03-01T18:51:11.395853,1660916,1315,1885,-462,-1202,-802,-299,-59,171,-293
15113,6007,0,2023-03-01T18:51:11.402218,1660922,1318,1886,-466,-1195,-793,-301,-59,171,-293
15114,6008,0,2023-03-01T18:51:11.408100,1660929,1318,1886,-466,-1195,-793,-301,-59,171,-293
15115,6009,0,2023-03-01T18:51:11.412934,1660934,1318,1886,-466,-1195,-793,-301,-59,171,-293
15116,6010,0,2023-03-01T18:51:11.419159,1660940,1318,1886,-466,-1199,-793,-296,-59,171,-293
15117,6011,0,2023-03-01T18:51:11.424532,1660945,1318,1886,-466,-1199,-793,-296,-59,171,-293
15118,6012,0,2023-03-01T18:51:11.429016,1660950,1318,1886,-466,-1199,-793,-296,-59,171,-293
15119,6013,0,2023-03-01T18:51:11.433457,1660954,1318,1886,-466,-1199,-793,-296,-59,171,-293
15120,6014,0,2023-03-01T18:51:11.438033,1660958,1317,1885,-467,-1193,-791,-294,-59,171,-293
15121,6015,0,2023-03-01T18:51:11.443355,1660963,1317,1885,-467,-1193,-791,-294,-59,171,-293
15122,6016,0,2023-03-01T18:51:11.448687,1660968,1317,1885,-467,-1193,-791,-294,-59,171,-293
15123,6017,0,2023-03-01T18:51:11.453598,1660975,1317,1885,-467,-1193,-791,-294,-59,171,-293
15124,6018,0,2023-03-01T18:51:11.459329,1660980,1317,1889,-464,-1186,-789,-304,-59,171,-293
15125,6019,0,2023-03-01T18:51:11.464520,1660985,1317,1889,-464,-1186,-789,-304,-59,171,-293
15126,6020,0,2023-03-01T18:51:11.469668,1660990,1317,1889,-464,-1186,-789,-304,-59,171,-293
15127,6021,0,2023-03-01T18:51:11.474488,1660995,1317,1889,-464,-1186,-789,-304,-59,171,-293
15128,6022,0,2023-03-01T18:51:11.480195,1661000,1318,1888,-468,-1180,-789,-301,-59,171,-293
15129,6023,0,2023-03-01T18:51:11.486059,1661006,1318,1888,-468,-1180,-789,-301,-59,171,-293
15130,6024,0,2023-03-01T18:51:11.490960,1661011,1318,1888,-468,-1180,-789,-301,-59,171,-293
15131,6025,0,2023-03-01T18:51:11.495935,1661017,1318,1888,-468,-1180,-789,-301,-59,171,-293
15132,6026,0,2023-03-01T18:51:11.502437,1661023,1313,1884,-464,-1191,-805,-303,-61,159,-307
15133,6027,0,2023-03-01T18:51:11.508179,1661029,1313,1884,-464,-1191,-805,-303,-61,159,-307
15134,6028,0,2023-03-01T18:51:11.513105,1661033,1313,1884,-464,-1191,-805,-303,-61,159,-307
15135,6029,0,2023-03-01T18:51:11.518963,1661039,1317,1885,-461,-1190,-802,-300,-61,159,-307
15136,6030,0,2023-03-01T18:51:11.524432,1661044,1317,1885,-461,-1190,-802,-300,-61,159,-307
15137,6031,0,2023-03-01T18:51:11.529825,1661050,1317,1885,-461,-1190,-802,-300,-61,159,-307
15138,6032,0,2023-03-01T18:51:11.534651,1661056,1317,1885,-461,-1190,-802,-300,-61,159,-307
15139,6033,0,2023-03-01T18:51:11.541370,1661062,1317,1888,-469,-1182,-799,-303,-61,159,-307
15140,6034,0,2023-03-01T18:51:11.546738,1661067,1317,1888,-469,-1182,-799,-303,-61,159,-307
15141,6035,0,2023-03-01T18:51:11.552238,1661072,1317,1888,-469,-1182,-799,-303,-61,159,-307
15142,6036,0,2023-03-01T18:51:11.557196,1661077,1317,1888,-469,-1182,-799,-303,-61,159,-307
15143,6037,0,2023-03-01T18:51:11.564306,1661084,1315,1887,-461,-1193,-805,-299,-61,159,-307
15144,6038,0,2023-03-01T18:51:11.569819,1661090,1315,1887,-461,-1193,-805,-299,-61,159,-307
15145,6039,0,2023-03-01T18:51:11.574579,1661094,1315,1887,-461,-1193,-805,-299,-61,159,-307
15146,6040,0,2023-03-01T18:51:11.580338,1661101,1318,1891,-468,-1191,-800,-295,-61,159,-307
15147,6041,0,2023-03-01T18:51:11.585904,1661106,1318,1891,-468,-1191,-800,-295,-61,159,-307
15148,6042,0,2023-03-01T18:51:11.591016,1661111,1318,1891,-468,-1191,-800,-295,-61,159,-307
15149,6043,0,2023-03-01T18:51:11.596250,1661117,1318,1891,-468,-1191,-800,-295,-61,159,-307
15150,6044,0,2023-03-01T18:51:11.602463,1661123,1319,1885,-469,-1191,-798,-293,-61,159,-307
15151,6045,0,2023-03-01T18:51:11.608081,1661128,1319,1885,-469,-1191,-798,-293,-61,159,-307
15152,6046,0,2023-03-01T18:51:11.613011,1661133,1319,1885,-469,-1191,-798,-293,-61,159,-307
15153,6047,0,2023-03-01T18:51:11.619173,1661139,1316,1882,-465,-1188,-793,-299,-59,165,-307
15154,6048,0,2023-03-01T18:51:11.624970,1661146,1316,1882,-465,-1188,-793,-299,-59,165,-307
15155,6049,0,2023-03-01T18:51:11.629690,1661150,1316,1882,-465,-1188,-793,-299,-59,165,-307
15156,6050,0,2023-03-01T18:51:11.634425,1661155,1316,1882,-465,-1188,-793,-299,-59,165,-307
15157,6051,0,2023-03-01T18:51:11.639119,1661160,1318,1886,-473,-1189,-800,-296,-59,165,-307
15158,6052,0,2023-03-01T18:51:11.644459,1661165,1318,1886,-473,-1189,-800,-296,-59,165,-307
15159,6053,0,2023-03-01T18:51:11.649473,1661169,1318,1886,-473,-1189,-800,-296,-59,165,-307
15160,6054,0,2023-03-01T18:51:11.654253,1661174,1318,1886,-473,-1189,-800,-296,-59,165,-307
15161,6055,0,2023-03-01T18:51:11.660240,1661180,1320,1884,-464,-1193,-802,-301,-59,165,-307
15162,6056,0,2023-03-01T18:51:11.666026,1661187,1320,1884,-464,-1193,-802,-301,-59,165,-307
15163,6057,0,2023-03-01T18:51:11.670804,1661192,1320,1884,-464,-1193,-802,-301,-59,165,-307
15164,6058,0,2023-03-01T18:51:11.676071,1661196,1320,1884,-464,-1193,-802,-301,-59,165,-307
15165,6059,0,2023-03-01T18:51:11.682391,1661203,1318,1883,-470,-1191,-798,-298,-59,165,-307
15166,6060,0,2023-03-01T18:51:11.687728,1661208,1318,1883,-470,-1191,-798,-298,-59,165,-307
15167,6061,0,2023-03-01T18:51:11.692642,1661213,1318,1883,-470,-1191,-798,-298,-59,165,-307
15168,6062,0,2023-03-01T18:51:11.697393,1661217,1318,1883,-470,-1191,-798,-298,-59,165,-307
15169,6063,0,2023-03-01T18:51:11.702387,1661222,1312,1881,-468,-1200,-800,-303,-59,165,-307
15170,6064,0,2023-03-01T18:51:11.708025,1661229,1312,1881,-468,-1200,-800,-303,-59,165,-307
15171,6065,0,2023-03-01T18:51:11.713048,1661234,1312,1881,-468,-1200,-800,-303,-59,165,-307
15172,6066,0,2023-03-01T18:51:11.718978,1661240,1314,1883,-467,-1188,-814,-297,-59,165,-307
15173,6067,0,2023-03-01T18:51:11.724565,1661245,1314,1883,-467,-1188,-814,-297,-59,165,-307
15174,6068,0,2023-03-01T18:51:11.729348,1661250,1314,1883,-467,-1188,-814,-297,-59,165,-307
15175,6069,0,2023-03-01T18:51:11.734354,1661255,1314,1883,-467,-1188,-814,-297,-59,165,-307
15176,6070,0,2023-03-01T18:51:11.740306,1661260,1316,1888,-464,-1183,-801,-296,-59,165,-307
15177,6071,0,2023-03-01T18:51:11.745834,1661266,1316,1888,-464,-1183,-801,-296,-59,165,-307
15178,6072,0,2023-03-01T18:51:11.750841,1661272,1316,1888,-464,-1183,-801,-296,-59,165,-307
15179,6073,0,2023-03-01T18:51:11.755886,1661277,1316,1888,-464,-1183,-801,-296,-59,165,-307
15180,6074,0,2023-03-01T18:51:11.762153,1661283,1315,1884,-463,-1192,-801,-298,-61,167,-307
15181,6075,0,2023-03-01T18:51:11.768055,1661288,1315,1884,-463,-1192,-801,-298,-61,167,-307
15182,6076,0,2023-03-01T18:51:11.773367,1661294,1315,1884,-463,-1192,-801,-298,-61,167,-307
15183,6077,0,2023-03-01T18:51:11.779429,1661300,1318,1885,-466,-1189,-794,-306,-61,167,-307
15184,6078,0,2023-03-01T18:51:11.785198,1661305,1318,1885,-466,-1189,-794,-306,-61,167,-307
15185,6079,0,2023-03-01T18:51:11.790141,1661310,1318,1885,-466,-1189,-794,-306,-61,167,-307
15186,6080,0,2023-03-01T18:51:11.795282,1661316,1318,1885,-466,-1189,-794,-306,-61,167,-307
15187,6081,0,2023-03-01T18:51:11.801214,1661322,1318,1888,-473,-1181,-799,-297,-61,167,-307
15188,6082,0,2023-03-01T18:51:11.806466,1661327,1318,1888,-473,-1181,-799,-297,-61,167,-307
15189,6083,0,2023-03-01T18:51:11.811632,1661332,1318,1888,-473,-1181,-799,-297,-61,167,-307
15190,6084,0,2023-03-01T18:51:11.816597,1661337,1318,1888,-473,-1181,-799,-297,-61,167,-307
15191,6085,0,2023-03-01T18:51:11.822725,1661343,1316,1885,-467,-1187,-796,-301,-61,167,-307
15192,6086,0,2023-03-01T18:51:11.828190,1661348,1316,1885,-467,-1187,-796,-301,-61,167,-307
15193,6087,0,2023-03-01T18:51:11.832908,1661353,1316,1885,-467,-1187,-796,-301,-61,167,-307
15194,6088,0,2023-03-01T18:51:11.838251,1661359,1320,1884,-473,-1195,-808,-287,-61,167,-307
15195,6089,0,2023-03-01T18:51:11.843885,1661364,1320,1884,-473,-1195,-808,-287,-61,167,-307
15196,6090,0,2023-03-01T18:51:11.848851,1661369,1320,1884,-473,-1195,-808,-287,-61,167,-307
15197,6091,0,2023-03-01T18:51:11.853405,1661374,1320,1884,-473,-1195,-808,-287,-61,167,-307
15198,6092,0,2023-03-01T18:51:11.859240,1661380,1321,1888,-471,-1204,-809,-296,-61,167,-307
15199,6093,0,2023-03-01T18:51:11.864635,1661385,1321,1888,-471,-1204,-809,-296,-61,167,-307
15200,6094,0,2023-03-01T18:51:11.869692,1661390,1321,1888,-471,-1204,-809,-296,-61,167,-307
15201,6095,0,2023-03-01T18:51:11.874657,1661395,1321,1888,-471,-1204,-809,-296,-61,167,-307
15202,6096,0,2023-03-01T18:51:11.880488,1661401,1319,1885,-466,-1198,-800,-298,-58,162,-300
15203,6097,0,2023-03-01T18:51:11.886601,1661407,1319,1885,-466,-1198,-800,-298,-58,162,-300
15204,6098,0,2023-03-01T18:51:11.891411,1661412,1319,1885,-466,-1198,-800,-298,-58,162,-300
15205,6099,0,2023-03-01T18:51:11.896309,1661417,1319,1885,-466,-1198,-800,-298,-58,162,-300
15206,6100,0,2023-03-01T18:51:11.902343,1661423,1321,1888,-460,-1192,-794,-308,-58,162,-300
15207,6101,0,2023-03-01T18:51:11.907559,1661428,1321,1888,-460,-1192,-794,-308,-58,162,-300
15208,6102,0,2023-03-01T18:51:11.912330,1661433,1321,1888,-460,-1192,-794,-308,-58,162,-300
15209,6103,0,2023-03-01T18:51:11.917941,1661438,1316,1886,-459,-1181,-793,-301,-58,162,-300
15210,6104,0,2023-03-01T18:51:11.924491,1661445,1316,1886,-459,-1181,-793,-301,-58,162,-300
15211,6105,0,2023-03-01T18:51:11.929500,1661450,1316,1886,-459,-1181,-793,-301,-58,162,-300
15212,6106,0,2023-03-01T18:51:11.934237,1661455,1316,1886,-459,-1181,-793,-301,-58,162,-300
15213,6107,0,2023-03-01T18:51:11.938986,1661459,1316,1887,-462,-1178,-784,-300,-58,162,-300
15214,6108,0,2023-03-01T18:51:11.944384,1661465,1316,1887,-462,-1178,-784,-300,-58,162,-300
15215,6109,0,2023-03-01T18:51:11.949397,1661470,1316,1887,-462,-1178,-784,-300,-58,162,-300
15216,6110,0,2023-03-01T18:51:11.954480,1661474,1316,1887,-462,-1178,-784,-300,-58,162,-300
15217,6111,0,2023-03-01T18:51:11.960085,1661480,1319,1887,-470,-1174,-782,-295,-58,162,-300
15218,6112,0,2023-03-01T18:51:11.965517,1661486,1319,1887,-470,-1174,-782,-295,-58,162,-300
15219,6113,0,2023-03-01T18:51:11.970453,1661491,1319,1887,-470,-1174,-782,-295,-58,162,-300
15220,6114,0,2023-03-01T18:51:11.975000,1661496,1319,1887,-470,-1174,-782,-295,-58,162,-300
15221,6115,0,2023-03-01T18:51:11.980637,1661501,1320,1882,-462,-1178,-780,-300,-58,162,-300
15222,6116,0,2023-03-01T18:51:11.986541,1661507,1320,1882,-462,-1178,-780,-300,-58,162,-300
15223,6117,0,2023-03-01T18:51:11.991550,1661512,1320,1882,-462,-1178,-780,-300,-58,162,-300
15224,6118,0,2023-03-01T18:51:11.996278,1661516,1320,1882,-462,-1178,-780,-300,-58,162,-300
15225,6119,0,2023-03-01T18:51:12.002222,1661522,1319,1883,-470,-1196,-788,-298,-58,162,-300
15226,6120,0,2023-03-01T18:51:12.007436,1661528,1319,1883,-470,-1196,-788,-298,-58,162,-300
15227,6121,0,2023-03-01T18:51:12.012367,1661533,1319,1883,-470,-1196,-788,-298,-58,162,-300
15228,6122,0,2023-03-01T18:51:12.018234,1661539,1320,1886,-462,-1188,-781,-299,-49,162,-300
15229,6123,0,2023-03-01T18:51:12.024950,1661545,1320,1886,-462,-1188,-781,-299,-49,169,-307
15230,6124,0,2023-03-01T18:51:12.029809,1661550,1320,1886,-462,-1188,-781,-299,-49,169,-307
15231,6125,0,2023-03-01T18:51:12.034926,1661555,1320,1886,-462,-1188,-781,-299,-49,169,-307
15232,6126,0,2023-03-01T18:51:12.041549,1661561,1316,1885,-460,-1185,-792,-305,-49,169,-307
15233,6127,0,2023-03-01T18:51:12.047112,1661568,1316,1885,-460,-1185,-792,-305,-49,169,-307
15234,6128,0,2023-03-01T18:51:12.051927,1661573,1316,1885,-460,-1185,-792,-305,-49,169,-307
15235,6129,0,2023-03-01T18:51:12.056801,1661578,1316,1885,-460,-1185,-792,-305,-49,169,-307
15236,6130,0,2023-03-01T18:51:12.062720,1661583,1320,1888,-465,-1195,-797,-296,-49,169,-307
15237,6131,0,2023-03-01T18:51:12.068670,1661589,1320,1888,-465,-1195,-797,-296,-49,169,-307
15238,6132,0,2023-03-01T18:51:12.073931,1661594,1320,1888,-465,-1195,-797,-296,-49,169,-307
15239,6133,0,2023-03-01T18:51:12.080212,1661600,1320,1882,-467,-1174,-788,-299,-49,169,-307
15240,6134,0,2023-03-01T18:51:12.085565,1661606,1320,1882,-467,-1174,-788,-299,-49,169,-307
15241,6135,0,2023-03-01T18:51:12.090363,1661611,1320,1882,-467,-1174,-788,-299,-49,169,-307
15242,6136,0,2023-03-01T18:51:12.095354,1661616,1320,1882,-467,-1174,-788,-299,-49,169,-307
15243,6137,0,2023-03-01T18:51:12.101667,1661622,1318,1886,-470,-1174,-776,-305,-49,169,-307
15244,6138,0,2023-03-01T18:51:12.107390,1661628,1318,1886,-470,-1174,-776,-305,-49,169,-307
15245,6139,0,2023-03-01T18:51:12.112429,1661632,1318,1886,-470,-1174,-776,-305,-49,169,-307
15246,6140,0,2023-03-01T18:51:12.117970,1661638,1318,1886,-470,-1174,-776,-305,-49,169,-307
15247,6141,0,2023-03-01T18:51:12.123791,1661644,1322,1882,-462,-1176,-781,-296,-49,169,-307
15248,6142,0,2023-03-01T18:51:12.129104,1661649,1322,1882,-462,-1176,-781,-296,-49,169,-307
15249,6143,0,2023-03-01T18:51:12.133866,1661655,1322,1882,-462,-1176,-781,-296,-49,169,-307
15250,6144,0,2023-03-01T18:51:12.139534,1661660,1318,1882,-462,-1182,-791,-298,-57,155,-303
15251,6145,0,2023-03-01T18:51:12.145114,1661666,1318,1882,-462,-1182,-791,-298,-57,155,-303
15252,6146,0,2023-03-01T18:51:12.150284,1661670,1318,1882,-462,-1182,-791,-298,-57,155,-303
15253,6147,0,2023-03-01T18:51:12.155202,1661676,1318,1882,-462,-1182,-791,-298,-57,155,-303
15254,6148,0,2023-03-01T18:51:12.160995,1661681,1320,1887,-462,-1187,-793,-304,-57,155,-303
15255,6149,0,2023-03-01T18:51:12.166140,1661686,1320,1887,-462,-1187,-793,-304,-57,155,-303
15256,6150,0,2023-03-01T18:51:12.171357,1661691,1320,1887,-462,-1187,-793,-304,-57,155,-303
15257,6151,0,2023-03-01T18:51:12.176149,1661697,1320,1887,-462,-1187,-793,-304,-57,155,-303
15258,6152,0,2023-03-01T18:51:12.181953,1661703,1320,1883,-463,-1181,-800,-301,-57,155,-303
15259,6153,0,2023-03-01T18:51:12.187599,1661708,1320,1883,-463,-1181,-800,-301,-57,155,-303
15260,6154,0,2023-03-01T18:51:12.192513,1661713,1320,1883,-463,-1181,-800,-301,-57,155,-303
15261,6155,0,2023-03-01T18:51:12.198157,1661718,1320,1883,-463,-1181,-800,-301,-57,155,-303
15262,6156,0,2023-03-01T18:51:12.203580,1661724,1316,1888,-468,-1192,-798,-304,-57,155,-303
15263,6157,0,2023-03-01T18:51:12.208981,1661729,1316,1888,-468,-1192,-798,-304,-57,155,-303
15264,6158,0,2023-03-01T18:51:12.213524,1661734,1316,1888,-468,-1192,-798,-304,-57,155,-303
15265,6159,0,2023-03-01T18:51:12.218876,1661740,1318,1888,-473,-1194,-799,-305,-57,155,-303
15266,6160,0,2023-03-01T18:51:12.224614,1661745,1318,1888,-473,-1194,-799,-305,-57,155,-303
15267,6161,0,2023-03-01T18:51:12.229345,1661750,1318,1888,-473,-1194,-799,-305,-57,155,-303
15268,6162,0,2023-03-01T18:51:12.234475,1661755,1318,1888,-473,-1194,-799,-305,-57,155,-303
15269,6163,0,2023-03-01T18:51:12.240332,1661761,1318,1882,-465,-1189,-799,-302,-57,155,-303
15270,6164,0,2023-03-01T18:51:12.245805,1661766,1318,1882,-465,-1189,-799,-302,-57,155,-303
15271,6165,0,2023-03-01T18:51:12.250598,1661771,1318,1882,-465,-1189,-799,-302,-57,155,-303
15272,6166,0,2023-03-01T18:51:12.254917,1661775,1318,1882,-465,-1189,-799,-302,-57,155,-303
15273,6167,0,2023-03-01T18:51:12.260932,1661782,1318,1883,-466,-1190,-800,-295,-57,155,-303
15274,6168,0,2023-03-01T18:51:12.266829,1661788,1318,1883,-466,-1190,-800,-295,-57,155,-303
15275,6169,0,2023-03-01T18:51:12.271566,1661792,1318,1883,-466,-1190,-800,-295,-57,155,-303
15276,6170,0,2023-03-01T18:51:12.276265,1661797,1318,1883,-466,-1190,-800,-295,-57,155,-303
15277,6171,0,2023-03-01T18:51:12.281409,1661802,1319,1883,-463,-1190,-797,-296,-70,162,-300
15278,6172,0,2023-03-01T18:51:12.286942,1661807,1319,1883,-463,-1190,-797,-296,-70,162,-300
15279,6173,0,2023-03-01T18:51:12.291994,1661812,1319,1883,-463,-1190,-797,-296,-70,162,-300
15280,6174,0,2023-03-01T18:51:12.296723,1661817,1319,1883,-463,-1190,-797,-296,-70,162,-300
15281,6175,0,2023-03-01T18:51:12.302557,1661824,1316,1883,-463,-1191,-794,-299,-70,162,-300
15282,6176,0,2023-03-01T18:51:12.308498,1661829,1316,1883,-463,-1191,-794,-299,-70,162,-300
15283,6177,0,2023-03-01T18:51:12.313421,1661834,1316,1883,-463,-1191,-794,-299,-70,162,-300
15284,6178,0,2023-03-01T18:51:12.318888,1661839,1319,1885,-471,-1182,-793,-301,-70,162,-300
15285,6179,0,2023-03-01T18:51:12.324249,1661845,1319,1885,-471,-1182,-793,-301,-70,162,-300
15286,6180,0,2023-03-01T18:51:12.328978,1661849,1319,1885,-471,-1182,-793,-301,-70,162,-300
15287,6181,0,2023-03-01T18:51:12.333974,1661854,1319,1885,-471,-1182,-793,-301,-70,162,-300
15288,6182,0,2023-03-01T18:51:12.339532,1661860,1322,1887,-469,-1180,-787,-303,-70,162,-300
15289,6183,0,2023-03-01T18:51:12.344981,1661865,1322,1887,-469,-1180,-787,-303,-70,162,-300
15290,6184,0,2023-03-01T18:51:12.349934,1661871,1322,1887,-469,-1180,-787,-303,-70,162,-300
15291,6185,0,2023-03-01T18:51:12.354483,1661875,1322,1887,-469,-1180,-787,-303,-70,162,-300
15292,6186,0,2023-03-01T18:51:12.360290,1661881,1317,1878,-462,-1178,-793,-296,-70,162,-300
15293,6187,0,2023-03-01T18:51:12.365634,1661886,1317,1878,-462,-1178,-793,-296,-70,162,-300
15294,6188,0,2023-03-01T18:51:12.370771,1661891,1317,1878,-462,-1178,-793,-296,-70,162,-300
15295,6189,0,2023-03-01T18:51:12.375906,1661896,1317,1878,-462,-1178,-793,-296,-70,162,-300
15296,6190,0,2023-03-01T18:51:12.381738,1661902,1315,1885,-461,-1178,-800,-304,-70,162,-300
15297,6191,0,2023-03-01T18:51:12.387416,1661907,1315,1885,-461,-1178,-800,-304,-70,162,-300
15298,6192,0,2023-03-01T18:51:12.392246,1661913,1315,1885,-461,-1178,-800,-304,-70,162,-300
15299,6193,0,2023-03-01T18:51:12.397208,1661918,1315,1885,-461,-1178,-800,-304,-70,162,-300
15300,6194,0,2023-03-01T18:51:12.402751,1661923,1321,1883,-464,-1173,-797,-296,-63,167,-301
15301,6195,0,2023-03-01T18:51:12.407977,1661928,1321,1883,-464,-1173,-797,-296,-63,167,-301
15302,6196,0,2023-03-01T18:51:12.412761,1661933,1321,1883,-464,-1173,-797,-296,-63,167,-301
15303,6197,0,2023-03-01T18:51:12.418418,1661939,1321,1883,-464,-1173,-797,-296,-63,167,-301
15304,6198,0,2023-03-01T18:51:12.424081,1661944,1321,1884,-464,-1173,-778,-296,-63,167,-301
15305,6199,0,2023-03-01T18:51:12.430958,1661952,1321,1884,-464,-1173,-778,-296,-63,167,-301
15306,6200,0,2023-03-01T18:51:12.435721,1661957,1321,1884,-464,-1173,-778,-296,-63,167,-301
15307,6201,0,2023-03-01T18:51:12.440445,1661961,1321,1883,-464,-1167,-775,-303,-63,167,-301
15308,6202,0,2023-03-01T18:51:12.446173,1661967,1321,1883,-464,-1167,-775,-303,-63,167,-301
15309,6203,0,2023-03-01T18:51:12.451106,1661972,1321,1883,-464,-1167,-775,-303,-63,167,-301
15310,6204,0,2023-03-01T18:51:12.455834,1661976,1321,1883,-464,-1167,-775,-303,-63,167,-301
15311,6205,0,2023-03-01T18:51:12.460069,1661981,1316,1884,-471,-1177,-778,-297,-63,167,-301
15312,6206,0,2023-03-01T18:51:12.465336,1661985,1316,1884,-471,-1177,-778,-297,-63,167,-301
15313,6207,0,2023-03-01T18:51:12.470356,1661990,1316,1884,-471,-1177,-778,-297,-63,167,-301
15314,6208,0,2023-03-01T18:51:12.475438,1661996,1316,1884,-471,-1177,-778,-297,-63,167,-301
15315,6209,0,2023-03-01T18:51:12.481506,1662002,1322,1884,-473,-1181,-788,-304,-63,167,-301
15316,6210,0,2023-03-01T18:51:12.486929,1662007,1322,1884,-473,-1181,-788,-304,-63,167,-301
15317,6211,0,2023-03-01T18:51:12.492017,1662012,1322,1884,-473,-1181,-788,-304,-63,167,-301
15318,6212,0,2023-03-01T18:51:12.496944,1662017,1322,1884,-473,-1181,-788,-304,-63,167,-301
15319,6213,0,2023-03-01T18:51:12.503172,1662023,1320,1885,-468,-1186,-784,-305,-63,167,-301
15320,6214,0,2023-03-01T18:51:12.508367,1662029,1320,1885,-468,-1186,-784,-305,-63,167,-301
15321,6215,0,2023-03-01T18:51:12.513137,1662033,1320,1885,-468,-1186,-784,-305,-63,167,-301
15322,6216,0,2023-03-01T18:51:12.519039,1662040,1319,1883,-472,-1171,-779,-302,-57,159,-305
15323,6217,0,2023-03-01T18:51:12.524504,1662045,1319,1883,-472,-1171,-779,-302,-57,159,-305
15324,6218,0,2023-03-01T18:51:12.529460,1662050,1319,1883,-472,-1171,-779,-302,-57,159,-305
15325,6219,0,2023-03-01T18:51:12.534324,1662055,1319,1883,-472,-1171,-779,-302,-57,159,-305
15326,6220,0,2023-03-01T18:51:12.542027,1662062,1320,1882,-464,-1169,-774,-300,-57,159,-305
15327,6221,0,2023-03-01T18:51:12.547456,1662068,1320,1882,-464,-1169,-774,-300,-57,159,-305
15328,6222,0,2023-03-01T18:51:12.552735,1662073,1320,1882,-464,-1169,-774,-300,-57,159,-305
15329,6223,0,2023-03-01T18:51:12.557430,1662077,1320,1882,-464,-1169,-774,-300,-57,159,-305
15330,6224,0,2023-03-01T18:51:12.563328,1662084,1321,1884,-464,-1170,-777,-300,-57,159,-305
15331,6225,0,2023-03-01T18:51:12.568735,1662089,1321,1884,-464,-1170,-777,-300,-57,159,-305
15332,6226,0,2023-03-01T18:51:12.573563,1662094,1321,1884,-464,-1170,-777,-300,-57,159,-305
15333,6227,0,2023-03-01T18:51:12.579682,1662100,1321,1888,-473,-1163,-778,-307,-57,159,-305
15334,6228,0,2023-03-01T18:51:12.585313,1662105,1321,1888,-473,-1163,-778,-307,-57,159,-305
15335,6229,0,2023-03-01T18:51:12.590688,1662111,1321,1888,-473,-1163,-778,-307,-57,159,-305
15336,6230,0,2023-03-01T18:51:12.595949,1662116,1321,1888,-473,-1163,-778,-307,-57,159,-305
15337,6231,0,2023-03-01T18:51:12.601680,1662123,1320,1884,-467,-1163,-763,-302,-57,159,-305
15338,6232,0,2023-03-01T18:51:12.607291,1662128,1320,1884,-467,-1163,-763,-302,-57,159,-305
15339,6233,0,2023-03-01T18:51:12.612087,1662133,1320,1884,-467,-1163,-763,-302,-57,159,-305
15340,6234,0,2023-03-01T18:51:12.617040,1662137,1320,1884,-467,-1163,-763,-302,-57,159,-305
15341,6235,0,2023-03-01T18:51:12.623374,1662144,1318,1881,-463,-1174,-772,-311,-57,159,-305
15342,6236,0,2023-03-01T18:51:12.628663,1662149,1318,1881,-463,-1174,-772,-311,-57,159,-305
15343,6237,0,2023-03-01T18:51:12.633473,1662154,1318,1881,-463,-1174,-772,-311,-57,159,-305
15344,6238,0,2023-03-01T18:51:12.640205,1662160,1322,1885,-469,-1190,-774,-302,-57,159,-305
15345,6239,0,2023-03-01T18:51:12.646023,1662167,1322,1885,-469,-1190,-774,-302,-57,159,-305
15346,6240,0,2023-03-01T18:51:12.651109,1662172,1322,1885,-469,-1190,-774,-302,-57,159,-305
15347,6241,0,2023-03-01T18:51:12.656093,1662177,1322,1885,-469,-1190,-774,-302,-57,159,-305
15348,6242,0,2023-03-01T18:51:12.662216,1662183,1315,1882,-466,-1179,-773,-303,-63,169,-299
15349,6243,0,2023-03-01T18:51:12.667801,1662188,1315,1882,-466,-1179,-773,-303,-63,169,-299
15350,6244,0,2023-03-01T18:51:12.672964,1662193,1315,1882,-466,-1179,-773,-303,-63,169,-299
15351,6245,0,2023-03-01T18:51:12.677553,1662198,1315,1882,-466,-1179,-773,-303,-63,169,-299
15352,6246,0,2023-03-01T18:51:12.682889,1662203,1320,1879,-464,-1179,-777,-300,-63,169,-299
15353,6247,0,2023-03-01T18:51:12.688075,1662209,1320,1879,-464,-1179,-777,-300,-63,169,-299
15354,6248,0,2023-03-01T18:51:12.692941,1662214,1320,1879,-464,-1179,-777,-300,-63,169,-299
15355,6249,0,2023-03-01T18:51:12.698828,1662219,1320,1879,-464,-1179,-777,-300,-63,169,-299
15356,6250,0,2023-03-01T18:51:12.704208,1662225,1321,1882,-469,-1185,-794,-290,-63,169,-299
15357,6251,0,2023-03-01T18:51:12.709541,1662230,1321,1882,-469,-1185,-794,-290,-63,169,-299
15358,6252,0,2023-03-01T18:51:12.714455,1662235,1321,1882,-469,-1185,-794,-290,-63,169,-299
15359,6253,0,2023-03-01T18:51:12.721044,1662241,1319,1882,-472,-1186,-784,-292,-63,169,-299
15360,6254,0,2023-03-01T18:51:12.726816,1662247,1319,1882,-472,-1186,-784,-292,-63,169,-299
15361,6255,0,2023-03-01T18:51:12.731210,1662252,1319,1882,-472,-1186,-784,-292,-63,169,-299
15362,6256,0,2023-03-01T18:51:12.735933,1662257,1319,1882,-472,-1186,-784,-292,-63,169,-299
15363,6257,0,2023-03-01T18:51:12.742008,1662262,1321,1882,-466,-1177,-781,-300,-63,169,-299
15364,6258,0,2023-03-01T18:51:12.747562,1662268,1321,1882,-466,-1177,-781,-300,-63,169,-299
15365,6259,0,2023-03-01T18:51:12.752380,1662273,1321,1882,-466,-1177,-781,-300,-63,169,-299
15366,6260,0,2023-03-01T18:51:12.758348,1662279,1321,1882,-466,-1177,-781,-300,-63,169,-299
15367,6261,0,2023-03-01T18:51:12.764430,1662285,1320,1886,-469,-1173,-782,-296,-63,169,-299
15368,6262,0,2023-03-01T18:51:12.769986,1662290,1320,1886,-469,-1173,-782,-296,-63,169,-299
15369,6263,0,2023-03-01T18:51:12.774775,1662296,1320,1886,-469,-1173,-782,-296,-63,169,-299
15370,6264,0,2023-03-01T18:51:12.780097,1662301,1321,1884,-466,-1184,-790,-290,-54,168,-300
15371,6265,0,2023-03-01T18:51:12.785419,1662306,1321,1884,-466,-1184,-790,-290,-54,168,-300
15372,6266,0,2023-03-01T18:51:12.790252,1662311,1321,1884,-466,-1184,-790,-290,-54,168,-300
15373,6267,0,2023-03-01T18:51:12.794958,1662315,1321,1884,-466,-1184,-790,-290,-54,168,-300
15374,6268,0,2023-03-01T18:51:12.801296,1662321,1318,1882,-470,-1188,-790,-303,-54,168,-300
15375,6269,0,2023-03-01T18:51:12.807045,1662327,1318,1882,-470,-1188,-790,-303,-54,168,-300
15376,6270,0,2023-03-01T18:51:12.811844,1662332,1318,1882,-470,-1188,-790,-303,-54,168,-300
15377,6271,0,2023-03-01T18:51:12.816884,1662338,1318,1882,-470,-1188,-790,-303,-54,168,-300
15378,6272,0,2023-03-01T18:51:12.822879,1662343,1322,1882,-469,-1179,-787,-305,-54,168,-300
15379,6273,0,2023-03-01T18:51:12.827586,1662348,1322,1882,-469,-1179,-787,-305,-54,168,-300
15380,6274,0,2023-03-01T18:51:12.832933,1662353,1322,1882,-469,-1179,-787,-305,-54,168,-300
15381,6275,0,2023-03-01T18:51:12.838676,1662359,1322,1882,-469,-1179,-787,-305,-54,168,-300
15382,6276,0,2023-03-01T18:51:12.845066,1662365,1322,1883,-466,-1180,-778,-302,-54,168,-300
15383,6277,0,2023-03-01T18:51:12.850641,1662371,1322,1883,-466,-1180,-778,-302,-54,168,-300
15384,6278,0,2023-03-01T18:51:12.855446,1662375,1322,1883,-466,-1180,-778,-302,-54,168,-300
15385,6279,0,2023-03-01T18:51:12.861514,1662382,1319,1883,-465,-1178,-781,-299,-54,168,-300
15386,6280,0,2023-03-01T18:51:12.866881,1662387,1319,1883,-465,-1178,-781,-299,-54,168,-300
15387,6281,0,2023-03-01T18:51:12.871960,1662392,1319,1883,-465,-1178,-781,-299,-54,168,-300
15388,6282,0,2023-03-01T18:51:12.877677,1662398,1319,1883,-465,-1178,-781,-299,-54,168,-300
15389,6283,0,2023-03-01T18:51:12.884773,1662405,1315,1884,-471,-1175,-777,-297,-54,168,-300
15390,6284,0,2023-03-01T18:51:12.890869,1662411,1315,1884,-471,-1175,-777,-297,-54,168,-300
15391,6285,0,2023-03-01T18:51:12.896248,1662416,1315,1884,-471,-1175,-777,-297,-54,168,-300
15392,6286,0,2023-03-01T18:51:12.901383,1662422,1321,1881,-473,-1175,-770,-307,-54,168,-300
15393,6287,0,2023-03-01T18:51:12.907160,1662428,1321,1881,-473,-1175,-770,-307,-54,168,-300
15394,6288,0,2023-03-01T18:51:12.912611,1662433,1321,1881,-473,-1175,-770,-307,-54,168,-300
15395,6289,0,2023-03-01T18:51:12.917538,1662438,1321,1881,-473,-1175,-770,-307,-54,168,-300
15396,6290,0,2023-03-01T18:51:12.923177,1662444,1322,1884,-465,-1167,-766,-303,-59,163,-299
15397,6291,0,2023-03-01T18:51:12.928980,1662449,1322,1884,-465,-1167,-766,-303,-59,163,-299
15398,6292,0,2023-03-01T18:51:12.933810,1662454,1322,1884,-465,-1167,-766,-303,-59,163,-299
15399,6293,0,2023-03-01T18:51:12.940320,1662460,1322,1881,-459,-1178,-772,-294,-59,163,-299
