,Unnamed: 0,imu,server_time,arduino_time,ax,ay,az,gx,gy,gz,mx,my,mz
15400,6294,0,2023-03-01T18:51:12.946241,1662467,1322,1881,-459,-1178,-772,-294,-59,163,-299
15401,6295,0,2023-03-01T18:51:12.951165,1662472,1322,1881,-459,-1178,-772,-294,-59,163,-299
15402,6296,0,2023-03-01T18:51:12.956097,1662477,1322,1881,-459,-1178,-772,-294,-59,163,-299
15403,6297,0,2023-03-01T18:51:12.962361,1662483,1322,1886,-464,-1174,-778,-300,-59,163,-299
15404,6298,0,2023-03-01T18:51:12.968086,1662488,1322,1886,-464,-1174,-778,-300,-59,163,-299
15405,6299,0,2023-03-01T18:51:12.973010,1662493,1322,1886,-464,-1174,-778,-300,-59,163,-299
15406,6300,0,2023-03-01T18:51:12.977873,1662498,1322,1886,-464,-1174,-778,-300,-59,163,-299
15407,6301,0,2023-03-01T18:51:12.983503,1662503,1321,1880,-468,-1182,-789,-298,-59,163,-299
15408,6302,0,2023-03-01T18:51:12.989062,1662510,1321,1880,-468,-1182,-789,-298,-59,163,-299
15409,6303,0,2023-03-01T18:51:12.993648,1662514,1321,1880,-468,-1182,-789,-298,-59,163,-299
15410,6304,0,2023-03-01T18:51:13.001571,1662522,1324,1882,-471,-1185,-788,-305,-59,163,-299
15411,6305,0,2023-03-01T18:51:13.007073,1662527,1324,1882,-471,-1185,-788,-305,-59,163,-299
15412,6306,0,2023-03-01T18:51:13.012110,1662532,1324,1882,-471,-1185,-788,-305,-59,163,-299
15413,6307,0,2023-03-01T18:51:13.017157,1662537,1324,1882,-471,-1185,-788,-305,-59,163,-299
15414,6308,0,2023-03-01T18:51:13.023375,1662543,1325,1886,-468,-1176,-780,-301,-59,163,-299
15415,6309,0,2023-03-01T18:51:13.028842,1662550,1325,1886,-468,-1176,-780,-301,-59,163,-299
15416,6310,0,2023-03-01T18:51:13.034183,1662555,1325,1886,-468,-1176,-780,-301,-59,163,-299
15417,6311,0,2023-03-01T18:51:13.040484,1662561,1319,1882,-463,-1163,-793,-297,-65,161,-299
15418,6312,0,2023-03-01T18:51:13.046325,1662567,1319,1882,-463,-1163,-793,-297,-65,161,-299
15419,6313,0,2023-03-01T18:51:13.051487,1662572,1319,1882,-463,-1163,-793,-297,-65,161,-299
15420,6314,0,2023-03-01T18:51:13.056515,1662577,1319,1882,-463,-1163,-793,-297,-65,161,-299
15421,6315,0,2023-03-01T18:51:13.062721,1662583,1325,1885,-460,-1185,-792,-301,-65,161,-299
15422,6316,0,2023-03-01T18:51:13.068203,1662588,1325,1885,-460,-1185,-792,-301,-65,161,-299
15423,6317,0,2023-03-01T18:51:13.073121,1662594,1325,1885,-460,-1185,-792,-301,-65,161,-299
15424,6318,0,2023-03-01T18:51:13.078507,1662599,1325,1885,-460,-1185,-792,-301,-65,161,-299
15425,6319,0,2023-03-01T18:51:13.084720,1662605,1322,1883,-469,-1172,-790,-299,-65,161,-299
15426,6320,0,2023-03-01T18:51:13.090205,1662611,1322,1883,-469,-1172,-790,-299,-65,161,-299
15427,6321,0,2023-03-01T18:51:13.095013,1662615,1322,1883,-469,-1172,-790,-299,-65,161,-299
15428,6322,0,2023-03-01T18:51:13.101292,1662622,1323,1885,-463,-1172,-780,-309,-65,161,-299
15429,6323,0,2023-03-01T18:51:13.107326,1662627,1323,1885,-463,-1172,-780,-309,-65,161,-299
15430,6324,0,2023-03-01T18:51:13.112707,1662632,1323,1885,-463,-1172,-780,-309,-65,161,-299
15431,6325,0,2023-03-01T18:51:13.117873,1662639,1323,1885,-463,-1172,-780,-309,-65,161,-299
15432,6326,0,2023-03-01T18:51:13.124144,1662644,1323,1881,-475,-1171,-785,-294,-65,161,-299
15433,6327,0,2023-03-01T18:51:13.129864,1662650,1323,1881,-475,-1171,-785,-294,-65,161,-299
15434,6328,0,2023-03-01T18:51:13.134650,1662655,1323,1881,-475,-1171,-785,-294,-65,161,-299
15435,6329,0,2023-03-01T18:51:13.141360,1662661,1321,1883,-471,-1168,-773,-292,-65,161,-299
15436,6330,0,2023-03-01T18:51:13.147564,1662668,1321,1883,-471,-1168,-773,-292,-65,161,-299
15437,6331,0,2023-03-01T18:51:13.152383,1662672,1321,1883,-471,-1168,-773,-292,-65,161,-299
15438,6332,0,2023-03-01T18:51:13.157367,1662678,1321,1883,-471,-1168,-773,-292,-65,161,-299
15439,6333,0,2023-03-01T18:51:13.163165,1662684,1320,1882,-470,-1183,-777,-292,-65,161,-299
15440,6334,0,2023-03-01T18:51:13.169269,1662690,1320,1882,-470,-1183,-777,-292,-65,161,-299
15441,6335,0,2023-03-01T18:51:13.174349,1662695,1320,1882,-470,-1183,-777,-292,-65,161,-299
15442,6336,0,2023-03-01T18:51:13.180407,1662701,1326,1882,-463,-1188,-790,-291,-61,167,-303
15443,6337,0,2023-03-01T18:51:13.185974,1662706,1326,1882,-463,-1188,-790,-291,-61,167,-303
15444,6338,0,2023-03-01T18:51:13.190949,1662711,1326,1882,-463,-1188,-790,-291,-61,167,-303
15445,6339,0,2023-03-01T18:51:13.196040,1662716,1326,1882,-463,-1188,-790,-291,-61,167,-303
15446,6340,0,2023-03-01T18:51:13.202231,1662723,1319,1879,-467,-1187,-793,-302,-61,167,-303
15447,6341,0,2023-03-01T18:51:13.207709,1662729,1319,1879,-467,-1187,-793,-302,-61,167,-303
15448,6342,0,2023-03-01T18:51:13.212264,1662733,1319,1879,-467,-1187,-793,-302,-61,167,-303
15449,6343,0,2023-03-01T18:51:13.217105,1662738,1319,1879,-467,-1187,-793,-302,-61,167,-303
15450,6344,0,2023-03-01T18:51:13.222733,1662743,1322,1885,-466,-1181,-786,-301,-61,167,-303
15451,6345,0,2023-03-01T18:51:13.228712,1662749,1322,1885,-466,-1181,-786,-301,-61,167,-303
15452,6346,0,2023-03-01T18:51:13.233802,1662754,1322,1885,-466,-1181,-786,-301,-61,167,-303
15453,6347,0,2023-03-01T18:51:13.240480,1662760,1324,1878,-467,-1183,-780,-302,-61,167,-303
15454,6348,0,2023-03-01T18:51:13.245793,1662767,1324,1878,-467,-1183,-780,-302,-61,167,-303
15455,6349,0,2023-03-01T18:51:13.251035,1662772,1324,1878,-467,-1183,-780,-302,-61,167,-303
15456,6350,0,2023-03-01T18:51:13.256118,1662777,1324,1878,-467,-1183,-780,-302,-61,167,-303
15457,6351,0,2023-03-01T18:51:13.262216,1662783,1323,1879,-464,-1181,-789,-299,-61,167,-303
15458,6352,0,2023-03-01T18:51:13.267544,1662788,1323,1879,-464,-1181,-789,-299,-61,167,-303
15459,6353,0,2023-03-01T18:51:13.272357,1662793,1323,1879,-464,-1181,-789,-299,-61,167,-303
15460,6354,0,2023-03-01T18:51:13.277130,1662797,1323,1879,-464,-1181,-789,-299,-61,167,-303
15461,6355,0,2023-03-01T18:51:13.283329,1662803,1328,1883,-467,-1171,-792,-302,-61,167,-303
15462,6356,0,2023-03-01T18:51:13.288430,1662809,1328,1883,-467,-1171,-792,-302,-61,167,-303
15463,6357,0,2023-03-01T18:51:13.293327,1662814,1328,1883,-467,-1171,-792,-302,-61,167,-303
15464,6358,0,2023-03-01T18:51:13.298462,1662819,1328,1883,-467,-1171,-792,-302,-61,167,-303
15465,6359,0,2023-03-01T18:51:13.304292,1662825,1328,1883,-467,-1171,-792,-302,-53,173,-301
15466,6360,0,2023-03-01T18:51:13.309154,1662830,1328,1883,-467,-1171,-792,-302,-53,173,-301
15467,6361,0,2023-03-01T18:51:13.314440,1662835,1328,1883,-467,-1171,-792,-302,-53,173,-301
15468,6362,0,2023-03-01T18:51:13.320531,1662841,1321,1883,-469,-1187,-791,-294,-53,173,-301
15469,6363,0,2023-03-01T18:51:13.325816,1662846,1321,1883,-469,-1187,-791,-294,-53,173,-301
15470,6364,0,2023-03-01T18:51:13.330667,1662851,1321,1883,-469,-1187,-791,-294,-53,173,-301
15471,6365,0,2023-03-01T18:51:13.335494,1662856,1321,1883,-469,-1187,-791,-294,-53,173,-301
15472,6366,0,2023-03-01T18:51:13.341641,1662862,1324,1880,-467,-1196,-799,-301,-53,173,-301
15473,6367,0,2023-03-01T18:51:13.347401,1662868,1324,1880,-467,-1196,-799,-301,-53,173,-301
15474,6368,0,2023-03-01T18:51:13.352367,1662873,1324,1880,-467,-1196,-799,-301,-53,173,-301
15475,6369,0,2023-03-01T18:51:13.356977,1662877,1324,1880,-467,-1196,-799,-301,-53,173,-301
15476,6370,0,2023-03-01T18:51:13.363841,1662883,1318,1880,-472,-1192,-795,-300,-53,173,-301
15477,6371,0,2023-03-01T18:51:13.369985,1662891,1318,1880,-472,-1192,-795,-300,-53,173,-301
15478,6372,0,2023-03-01T18:51:13.374845,1662896,1318,1880,-472,-1192,-795,-300,-53,173,-301
15479,6373,0,2023-03-01T18:51:13.380592,1662901,1321,1884,-460,-1185,-795,-298,-53,173,-301
15480,6374,0,2023-03-01T18:51:13.386185,1662907,1321,1884,-460,-1185,-795,-298,-53,173,-301
15481,6375,0,2023-03-01T18:51:13.391349,1662912,1321,1884,-460,-1185,-795,-298,-53,173,-301
15482,6376,0,2023-03-01T18:51:13.396569,1662917,1321,1884,-460,-1185,-795,-298,-53,173,-301
15483,6377,0,2023-03-01T18:51:13.402483,1662923,1321,1882,-472,-1183,-796,-299,-53,173,-301
15484,6378,0,2023-03-01T18:51:13.408336,1662928,1321,1882,-472,-1183,-796,-299,-53,173,-301
15485,6379,0,2023-03-01T18:51:13.413629,1662934,1321,1882,-472,-1183,-796,-299,-53,173,-301
15486,6380,0,2023-03-01T18:51:13.419332,1662940,1321,1882,-472,-1183,-796,-299,-53,173,-301
15487,6381,0,2023-03-01T18:51:13.424197,1662945,1323,1880,-462,-1188,-796,-298,-56,160,-304
15488,6382,0,2023-03-01T18:51:13.429830,1662950,1323,1880,-462,-1188,-796,-298,-56,160,-304
15489,6383,0,2023-03-01T18:51:13.434963,1662955,1323,1880,-462,-1188,-796,-298,-56,160,-304
15490,6384,0,2023-03-01T18:51:13.441123,1662962,1324,1887,-460,-1188,-786,-302,-56,160,-304
15491,6385,0,2023-03-01T18:51:13.446651,1662967,1324,1887,-460,-1188,-786,-302,-56,160,-304
15492,6386,0,2023-03-01T18:51:13.452120,1662972,1324,1887,-460,-1188,-786,-302,-56,160,-304
15493,6387,0,2023-03-01T18:51:13.457221,1662978,1324,1887,-460,-1188,-786,-302,-56,160,-304
15494,6388,0,2023-03-01T18:51:13.462968,1662984,1325,1882,-470,-1183,-795,-294,-56,160,-304
15495,6389,0,2023-03-01T18:51:13.468087,1662989,1325,1882,-470,-1183,-795,-294,-56,160,-304
15496,6390,0,2023-03-01T18:51:13.472730,1662993,1325,1882,-470,-1183,-795,-294,-56,160,-304
15497,6391,0,2023-03-01T18:51:13.477881,1662998,1325,1882,-470,-1183,-795,-294,-56,160,-304
15498,6392,0,2023-03-01T18:51:13.484442,1663004,1319,1879,-470,-1188,-809,-302,-56,160,-304
15499,6393,0,2023-03-01T18:51:13.489730,1663010,1319,1879,-470,-1188,-809,-302,-56,160,-304
15500,6394,0,2023-03-01T18:51:13.494240,1663014,1319,1879,-470,-1188,-809,-302,-56,160,-304
15501,6395,0,2023-03-01T18:51:13.499985,1663021,1319,1879,-470,-1188,-809,-302,-56,160,-304
15502,6396,0,2023-03-01T18:51:13.504765,1663026,1323,1882,-471,-1190,-807,-299,-56,160,-304
15503,6397,0,2023-03-01T18:51:13.510055,1663031,1323,1882,-471,-1190,-807,-299,-56,160,-304
15504,6398,0,2023-03-01T18:51:13.515420,1663036,1323,1882,-471,-1190,-807,-299,-56,160,-304
15505,6399,0,2023-03-01T18:51:13.521552,1663042,1322,1878,-472,-1183,-805,-300,-56,160,-304
15506,6400,0,2023-03-01T18:51:13.526655,1663047,1322,1878,-472,-1183,-805,-300,-56,160,-304
15507,6401,0,2023-03-01T18:51:13.531671,1663052,1322,1878,-472,-1183,-805,-300,-56,160,-304
15508,6402,0,2023-03-01T18:51:13.536423,1663056,1322,1878,-472,-1183,-805,-300,-56,160,-304
15509,6403,0,2023-03-01T18:51:13.542349,1663064,1325,1882,-466,-1192,-800,-297,-56,160,-304
15510,6404,0,2023-03-01T18:51:13.547550,1663068,1325,1882,-466,-1192,-800,-297,-56,160,-304
15511,6405,0,2023-03-01T18:51:13.552356,1663073,1325,1882,-466,-1192,-800,-297,-56,160,-304
15512,6406,0,2023-03-01T18:51:13.557390,1663078,1325,1882,-466,-1192,-800,-297,-56,160,-304
15513,6407,0,2023-03-01T18:51:13.563437,1663084,1324,1882,-460,-1187,-793,-300,-58,172,-310
15514,6408,0,2023-03-01T18:51:13.569200,1663089,1324,1882,-460,-1187,-793,-300,-58,172,-310
15515,6409,0,2023-03-01T18:51:13.574303,1663094,1324,1882,-460,-1187,-793,-300,-58,172,-310
15516,6410,0,2023-03-01T18:51:13.580613,1663100,1326,1881,-463,-1184,-793,-307,-58,172,-310
15517,6411,0,2023-03-01T18:51:13.586362,1663107,1326,1881,-463,-1184,-793,-307,-58,172,-310
15518,6412,0,2023-03-01T18:51:13.591675,1663112,1326,1881,-463,-1184,-793,-307,-58,172,-310
15519,6413,0,2023-03-01T18:51:13.596800,1663117,1326,1881,-463,-1184,-793,-307,-58,172,-310
15520,6414,0,2023-03-01T18:51:13.602855,1663123,1323,1883,-465,-1181,-788,-300,-58,172,-310
15521,6415,0,2023-03-01T18:51:13.608929,1663129,1323,1883,-465,-1181,-788,-300,-58,172,-310
15522,6416,0,2023-03-01T18:51:13.613976,1663134,1323,1883,-465,-1181,-788,-300,-58,172,-310
15523,6417,0,2023-03-01T18:51:13.620024,1663140,1323,1883,-465,-1181,-788,-300,-58,172,-310
15524,6418,0,2023-03-01T18:51:13.625076,1663145,1326,1877,-471,-1185,-788,-300,-58,172,-310
15525,6419,0,2023-03-01T18:51:13.630439,1663151,1326,1877,-471,-1185,-788,-300,-58,172,-310
15526,6420,0,2023-03-01T18:51:13.635535,1663156,1326,1877,-471,-1185,-788,-300,-58,172,-310
15527,6421,0,2023-03-01T18:51:13.641813,1663162,1326,1881,-475,-1172,-771,-305,-58,172,-310
15528,6422,0,2023-03-01T18:51:13.647680,1663168,1326,1881,-475,-1172,-771,-305,-58,172,-310
15529,6423,0,2023-03-01T18:51:13.652447,1663173,1326,1881,-475,-1172,-771,-305,-58,172,-310
15530,6424,0,2023-03-01T18:51:13.657492,1663178,1326,1881,-475,-1172,-771,-305,-58,172,-310
15531,6425,0,2023-03-01T18:51:13.663960,1663184,1322,1880,-472,-1173,-771,-303,-58,172,-310
15532,6426,0,2023-03-01T18:51:13.669692,1663191,1322,1880,-472,-1173,-771,-303,-58,172,-310
15533,6427,0,2023-03-01T18:51:13.674513,1663195,1322,1880,-472,-1173,-771,-303,-58,172,-310
15534,6428,0,2023-03-01T18:51:13.679491,1663200,1322,1880,-472,-1173,-771,-303,-58,172,-310
15535,6429,0,2023-03-01T18:51:13.684283,1663205,1320,1881,-471,-1167,-770,-298,-62,168,-306
15536,6430,0,2023-03-01T18:51:13.689935,1663210,1320,1881,-471,-1167,-770,-298,-62,168,-306
15537,6431,0,2023-03-01T18:51:13.695254,1663215,1320,1881,-471,-1167,-770,-298,-62,168,-306
15538,6432,0,2023-03-01T18:51:13.701471,1663222,1324,1882,-465,-1161,-784,-296,-62,168,-306
15539,6433,0,2023-03-01T18:51:13.706865,1663227,1324,1882,-465,-1161,-784,-296,-62,168,-306
15540,6434,0,2023-03-01T18:51:13.711623,1663233,1324,1882,-465,-1161,-784,-296,-62,168,-306
15541,6435,0,2023-03-01T18:51:13.716248,1663237,1324,1882,-465,-1161,-784,-296,-62,168,-306
15542,6436,0,2023-03-01T18:51:13.722746,1663243,1325,1882,-473,-1166,-766,-295,-62,168,-306
15543,6437,0,2023-03-01T18:51:13.729590,1663250,1325,1882,-473,-1166,-766,-295,-62,168,-306
15544,6438,0,2023-03-01T18:51:13.734712,1663255,1325,1882,-473,-1166,-766,-295,-62,168,-306
15545,6439,0,2023-03-01T18:51:13.741050,1663261,1325,1879,-464,-1160,-755,-299,-62,168,-306
15546,6440,0,2023-03-01T18:51:13.746615,1663267,1325,1879,-464,-1160,-755,-299,-62,168,-306
15547,6441,0,2023-03-01T18:51:13.751337,1663271,1325,1879,-464,-1160,-755,-299,-62,168,-306
15548,6442,0,2023-03-01T18:51:13.756303,1663277,1325,1879,-464,-1160,-755,-299,-62,168,-306
15549,6443,0,2023-03-01T18:51:13.762181,1663283,1323,1887,-465,-1154,-745,-310,-62,168,-306
15550,6444,0,2023-03-01T18:51:13.767674,1663288,1323,1887,-465,-1154,-745,-310,-62,168,-306
15551,6445,0,2023-03-01T18:51:13.772221,1663293,1323,1887,-465,-1154,-745,-310,-62,168,-306
15552,6446,0,2023-03-01T18:51:13.777194,1663298,1323,1887,-465,-1154,-745,-310,-62,168,-306
15553,6447,0,2023-03-01T18:51:13.783324,1663304,1322,1878,-465,-1154,-748,-303,-62,168,-306
15554,6448,0,2023-03-01T18:51:13.789510,1663309,1322,1878,-465,-1154,-748,-303,-62,168,-306
15555,6449,0,2023-03-01T18:51:13.794447,1663315,1322,1878,-465,-1154,-748,-303,-62,168,-306
15556,6450,0,2023-03-01T18:51:13.799843,1663321,1322,1878,-465,-1154,-748,-303,-62,168,-306
15557,6451,0,2023-03-01T18:51:13.804552,1663325,1325,1882,-467,-1159,-753,-309,-62,168,-306
15558,6452,0,2023-03-01T18:51:13.810465,1663331,1325,1882,-467,-1159,-753,-309,-62,168,-306
15559,6453,0,2023-03-01T18:51:13.815107,1663336,1325,1882,-467,-1159,-753,-309,-62,168,-306
15560,6454,0,2023-03-01T18:51:13.821091,1663342,1326,1879,-467,-1166,-767,-310,-61,153,-297
15561,6455,0,2023-03-01T18:51:13.825957,1663346,1326,1879,-467,-1166,-767,-310,-61,153,-297
15562,6456,0,2023-03-01T18:51:13.830530,1663351,1326,1879,-467,-1166,-767,-310,-61,153,-297
15563,6457,0,2023-03-01T18:51:13.835361,1663355,1326,1879,-467,-1166,-767,-310,-61,153,-297
15564,6458,0,2023-03-01T18:51:13.841378,1663362,1323,1878,-468,-1162,-758,-310,-61,153,-297
15565,6459,0,2023-03-01T18:51:13.847216,1663368,1323,1878,-468,-1162,-758,-310,-61,153,-297
15566,6460,0,2023-03-01T18:51:13.852180,1663373,1323,1878,-468,-1162,-758,-310,-61,153,-297
15567,6461,0,2023-03-01T18:51:13.857175,1663378,1323,1878,-468,-1162,-758,-310,-61,153,-297
15568,6462,0,2023-03-01T18:51:13.863605,1663384,1326,1882,-467,-1167,-758,-306,-61,153,-297
15569,6463,0,2023-03-01T18:51:13.869181,1663390,1326,1882,-467,-1167,-758,-306,-61,153,-297
15570,6464,0,2023-03-01T18:51:13.874003,1663394,1326,1882,-467,-1167,-758,-306,-61,153,-297
15571,6465,0,2023-03-01T18:51:13.880194,1663400,1326,1882,-467,-1167,-758,-306,-61,153,-297
15572,6466,0,2023-03-01T18:51:13.885011,1663406,1327,1880,-465,-1166,-757,-298,-61,153,-297
15573,6467,0,2023-03-01T18:51:13.890475,1663411,1327,1880,-465,-1166,-757,-298,-61,153,-297
15574,6468,0,2023-03-01T18:51:13.895372,1663416,1327,1880,-465,-1166,-757,-298,-61,153,-297
15575,6469,0,2023-03-01T18:51:13.901697,1663422,1328,1880,-460,-1157,-766,-305,-61,153,-297
15576,6470,0,2023-03-01T18:51:13.907143,1663427,1328,1880,-460,-1157,-766,-305,-61,153,-297
15577,6471,0,2023-03-01T18:51:13.912252,1663432,1328,1880,-460,-1157,-766,-305,-61,153,-297
15578,6472,0,2023-03-01T18:51:13.917506,1663438,1328,1880,-460,-1157,-766,-305,-61,153,-297
15579,6473,0,2023-03-01T18:51:13.924151,1663444,1325,1880,-469,-1165,-772,-304,-61,153,-297
15580,6474,0,2023-03-01T18:51:13.930379,1663451,1325,1880,-469,-1165,-772,-304,-61,153,-297
15581,6475,0,2023-03-01T18:51:13.935338,1663456,1325,1880,-469,-1165,-772,-304,-61,153,-297
15582,6476,0,2023-03-01T18:51:13.941455,1663462,1325,1878,-458,-1176,-777,-301,-60,158,-302
15583,6477,0,2023-03-01T18:51:13.947403,1663467,1325,1878,-458,-1176,-777,-301,-60,158,-302
15584,6478,0,2023-03-01T18:51:13.952335,1663473,1325,1878,-458,-1176,-777,-301,-60,158,-302
15585,6479,0,2023-03-01T18:51:13.958224,1663478,1325,1878,-458,-1176,-777,-301,-60,158,-302
15586,6480,0,2023-03-01T18:51:13.965105,1663485,1325,1884,-465,-1177,-781,-307,-60,158,-302
15587,6481,0,2023-03-01T18:51:13.971410,1663492,1325,1884,-465,-1177,-781,-307,-60,158,-302
15588,6482,0,2023-03-01T18:51:13.976691,1663497,1325,1884,-465,-1177,-781,-307,-60,158,-302
15589,6483,0,2023-03-01T18:51:13.982887,1663503,1327,1879,-465,-1181,-782,-303,-60,158,-302
15590,6484,0,2023-03-01T18:51:13.988291,1663509,1327,1879,-465,-1181,-782,-303,-60,158,-302
15591,6485,0,2023-03-01T18:51:13.993372,1663514,1327,1879,-465,-1181,-782,-303,-60,158,-302
15592,6486,0,2023-03-01T18:51:13.998786,1663518,1327,1879,-465,-1181,-782,-303,-60,158,-302
15593,6487,0,2023-03-01T18:51:14.004478,1663524,1327,1878,-462,-1180,-785,-299,-60,158,-302
15594,6488,0,2023-03-01T18:51:14.010226,1663531,1327,1878,-462,-1180,-785,-299,-60,158,-302
15595,6489,0,2023-03-01T18:51:14.015060,1663536,1327,1878,-462,-1180,-785,-299,-60,158,-302
15596,6490,0,2023-03-01T18:51:14.021229,1663542,1324,1882,-470,-1175,-782,-298,-60,158,-302
15597,6491,0,2023-03-01T18:51:14.027305,1663548,1324,1882,-470,-1175,-782,-298,-60,158,-302
15598,6492,0,2023-03-01T18:51:14.032334,1663553,1324,1882,-470,-1175,-782,-298,-60,158,-302
15599,6493,0,2023-03-01T18:51:14.037729,1663558,1324,1882,-470,-1175,-782,-298,-60,158,-302
15600,6494,0,2023-03-01T18:51:14.043388,1663564,1324,1879,-470,-1163,-771,-299,-60,158,-302
15601,6495,0,2023-03-01T18:51:14.048930,1663569,1324,1879,-470,-1163,-771,-299,-60,158,-302
15602,6496,0,2023-03-01T18:51:14.053438,1663575,1324,1879,-470,-1163,-771,-299,-60,158,-302
15603,6497,0,2023-03-01T18:51:14.058669,1663579,1324,1879,-470,-1163,-771,-299,-60,158,-302
15604,6498,0,2023-03-01T18:51:14.064243,1663585,1325,1880,-464,-1163,-760,-300,-60,158,-302
15605,6499,0,2023-03-01T18:51:14.071013,1663592,1325,1880,-464,-1163,-760,-300,-60,158,-302
15606,6500,0,2023-03-01T18:51:14.076114,1663596,1325,1880,-464,-1163,-760,-300,-60,158,-302
15607,6501,0,2023-03-01T18:51:14.081845,1663602,1324,1877,-457,-1166,-763,-299,-67,177,-305
15608,6502,0,2023-03-01T18:51:14.088114,1663608,1324,1877,-457,-1166,-763,-299,-67,177,-305
15609,6503,0,2023-03-01T18:51:14.093161,1663613,1324,1877,-457,-1166,-763,-299,-67,177,-305
15610,6504,0,2023-03-01T18:51:14.098201,1663619,1324,1877,-457,-1166,-763,-299,-67,177,-305
15611,6505,0,2023-03-01T18:51:14.103385,1663624,1328,1876,-470,-1157,-772,-295,-67,177,-305
15612,6506,0,2023-03-01T18:51:14.108965,1663630,1328,1876,-470,-1157,-772,-295,-67,177,-305
15613,6507,0,2023-03-01T18:51:14.114164,1663634,1328,1876,-470,-1157,-772,-295,-67,177,-305
15614,6508,0,2023-03-01T18:51:14.120115,1663640,1328,1876,-470,-1157,-772,-295,-67,177,-305
15615,6509,0,2023-03-01T18:51:14.126332,1663647,1328,1881,-468,-1172,-779,-299,-67,177,-305
15616,6510,0,2023-03-01T18:51:14.132367,1663652,1328,1881,-468,-1172,-779,-299,-67,177,-305
15617,6511,0,2023-03-01T18:51:14.137317,1663657,1328,1881,-468,-1172,-779,-299,-67,177,-305
15618,6512,0,2023-03-01T18:51:14.143432,1663664,1324,1878,-469,-1178,-778,-306,-67,177,-305
15619,6513,0,2023-03-01T18:51:14.150743,1663671,1324,1878,-469,-1178,-778,-306,-67,177,-305
15620,6514,0,2023-03-01T18:51:14.155683,1663676,1324,1878,-469,-1178,-778,-306,-67,177,-305
15621,6515,0,2023-03-01T18:51:14.162013,1663682,1326,1882,-469,-1182,-781,-301,-67,177,-305
15622,6516,0,2023-03-01T18:51:14.168106,1663688,1326,1882,-469,-1182,-781,-301,-67,177,-305
15623,6517,0,2023-03-01T18:51:14.173440,1663693,1326,1882,-469,-1182,-781,-301,-67,177,-305
15624,6518,0,2023-03-01T18:51:14.178243,1663698,1326,1882,-469,-1182,-781,-301,-67,177,-305
15625,6519,0,2023-03-01T18:51:14.184439,1663705,1324,1882,-469,-1181,-785,-308,-67,177,-305
15626,6520,0,2023-03-01T18:51:14.190046,1663711,1324,1882,-469,-1181,-785,-308,-67,177,-305
15627,6521,0,2023-03-01T18:51:14.195383,1663716,1324,1882,-469,-1181,-785,-308,-67,177,-305
15628,6522,0,2023-03-01T18:51:14.201823,1663722,1324,1878,-466,-1178,-784,-304,-52,164,-308
15629,6523,0,2023-03-01T18:51:14.207670,1663728,1324,1878,-466,-1178,-784,-304,-52,164,-308
15630,6524,0,2023-03-01T18:51:14.212467,1663733,1324,1878,-466,-1178,-784,-304,-52,164,-308
15631,6525,0,2023-03-01T18:51:14.217708,1663738,1324,1878,-466,-1178,-784,-304,-52,164,-308
15632,6526,0,2023-03-01T18:51:14.224161,1663745,1325,1883,-468,-1170,-789,-294,-52,164,-308
15633,6527,0,2023-03-01T18:51:14.230099,1663751,1325,1883,-468,-1170,-789,-294,-52,164,-308
15634,6528,0,2023-03-01T18:51:14.235183,1663756,1325,1883,-468,-1170,-789,-294,-52,164,-308
15635,6529,0,2023-03-01T18:51:14.240034,1663761,1325,1883,-468,-1170,-789,-294,-52,164,-308
15636,6530,0,2023-03-01T18:51:14.245275,1663766,1328,1881,-467,-1172,-785,-294,-52,164,-308
15637,6531,0,2023-03-01T18:51:14.251345,1663772,1328,1881,-467,-1172,-785,-294,-52,164,-308
15638,6532,0,2023-03-01T18:51:14.256419,1663776,1328,1881,-467,-1172,-785,-294,-52,164,-308
15639,6533,0,2023-03-01T18:51:14.262453,1663783,1328,1881,-466,-1186,-786,-303,-52,164,-308
15640,6534,0,2023-03-01T18:51:14.268488,1663789,1328,1881,-466,-1186,-786,-303,-52,164,-308
15641,6535,0,2023-03-01T18:51:14.274119,1663794,1328,1881,-466,-1186,-786,-303,-52,164,-308
15642,6536,0,2023-03-01T18:51:14.279090,1663800,1328,1881,-466,-1186,-786,-303,-52,164,-308
15643,6537,0,2023-03-01T18:51:14.284994,1663806,1325,1881,-466,-1183,-788,-297,-52,164,-308
15644,6538,0,2023-03-01T18:51:14.291371,1663812,1325,1881,-466,-1183,-788,-297,-52,164,-308
15645,6539,0,2023-03-01T18:51:14.296231,1663816,1325,1881,-466,-1183,-788,-297,-52,164,-308
15646,6540,0,2023-03-01T18:51:14.302518,1663822,1325,1877,-472,-1193,-797,-296,-52,164,-308
15647,6541,0,2023-03-01T18:51:14.308453,1663828,1325,1877,-472,-1193,-797,-296,-52,164,-308
15648,6542,0,2023-03-01T18:51:14.313194,1663834,1325,1877,-472,-1193,-797,-296,-52,164,-308
15649,6543,0,2023-03-01T18:51:14.317947,1663839,1325,1877,-472,-1193,-797,-296,-52,164,-308
15650,6544,0,2023-03-01T18:51:14.323916,1663845,1328,1882,-466,-1195,-795,-297,-61,165,-301
15651,6545,0,2023-03-01T18:51:14.329362,1663850,1328,1882,-466,-1195,-795,-297,-61,165,-301
15652,6546,0,2023-03-01T18:51:14.334067,1663855,1328,1882,-466,-1195,-795,-297,-61,165,-301
15653,6547,0,2023-03-01T18:51:14.340224,1663860,1328,1882,-466,-1195,-795,-297,-61,165,-301
15654,6548,0,2023-03-01T18:51:14.345150,1663865,1325,1881,-460,-1185,-790,-300,-61,165,-301
15655,6549,0,2023-03-01T18:51:14.350641,1663872,1325,1881,-460,-1185,-790,-300,-61,165,-301
15656,6550,0,2023-03-01T18:51:14.355418,1663876,1325,1881,-460,-1185,-790,-300,-61,165,-301
15657,6551,0,2023-03-01T18:51:14.360343,1663881,1325,1881,-460,-1185,-790,-300,-61,165,-301
15658,6552,0,2023-03-01T18:51:14.365107,1663886,1325,1879,-461,-1177,-803,-296,-61,165,-301
15659,6553,0,2023-03-01T18:51:14.370453,1663891,1325,1879,-461,-1177,-803,-296,-61,165,-301
15660,6554,0,2023-03-01T18:51:14.375135,1663896,1325,1879,-461,-1177,-803,-296,-61,165,-301
15661,6555,0,2023-03-01T18:51:14.380868,1663901,1325,1879,-461,-1177,-803,-296,-61,165,-301
15662,6556,0,2023-03-01T18:51:14.385885,1663906,1327,1881,-463,-1176,-794,-305,-61,165,-301
15663,6557,0,2023-03-01T18:51:14.391486,1663912,1327,1881,-463,-1176,-794,-305,-61,165,-301
15664,6558,0,2023-03-01T18:51:14.396675,1663917,1327,1881,-463,-1176,-794,-305,-61,165,-301
15665,6559,0,2023-03-01T18:51:14.402637,1663924,1327,1877,-472,-1175,-796,-297,-61,165,-301
15666,6560,0,2023-03-01T18:51:14.407126,1663928,1327,1877,-472,-1175,-796,-297,-61,165,-301
15667,6561,0,2023-03-01T18:51:14.412821,1663933,1327,1877,-472,-1175,-796,-297,-61,165,-301
15668,6562,0,2023-03-01T18:51:14.417695,1663938,1327,1877,-472,-1175,-796,-297,-61,165,-301
15669,6563,0,2023-03-01T18:51:14.423920,1663944,1327,1878,-463,-1183,-793,-300,-61,165,-301
15670,6564,0,2023-03-01T18:51:14.429407,1663950,1327,1878,-463,-1183,-793,-300,-61,165,-301
15671,6565,0,2023-03-01T18:51:14.434533,1663954,1327,1878,-463,-1183,-793,-300,-61,165,-301
15672,6566,0,2023-03-01T18:51:14.440845,1663961,1327,1878,-463,-1183,-793,-300,-61,165,-301
15673,6567,0,2023-03-01T18:51:14.446322,1663967,1325,1880,-468,-1179,-788,-296,-61,165,-301
15674,6568,0,2023-03-01T18:51:14.451703,1663972,1325,1880,-468,-1179,-788,-296,-61,165,-301
15675,6569,0,2023-03-01T18:51:14.456381,1663977,1325,1880,-468,-1179,-788,-296,-61,165,-301
15676,6570,0,2023-03-01T18:51:14.461424,1663982,1325,1876,-463,-1182,-787,-303,-60,158,-306
15677,6571,0,2023-03-01T18:51:14.466742,1663987,1325,1876,-463,-1182,-787,-303,-60,158,-306
15678,6572,0,2023-03-01T18:51:14.471517,1663992,1325,1876,-463,-1182,-787,-303,-60,158,-306
15679,6573,0,2023-03-01T18:51:14.476301,1663996,1325,1876,-463,-1182,-787,-303,-60,158,-306
15680,6574,0,2023-03-01T18:51:14.482368,1664003,1327,1882,-468,-1193,-794,-299,-60,158,-306
15681,6575,0,2023-03-01T18:51:14.487665,1664008,1327,1882,-468,-1193,-794,-299,-60,158,-306
15682,6576,0,2023-03-01T18:51:14.492409,1664013,1327,1882,-468,-1193,-794,-299,-60,158,-306
15683,6577,0,2023-03-01T18:51:14.497409,1664018,1327,1882,-468,-1193,-794,-299,-60,158,-306
15684,6578,0,2023-03-01T18:51:14.503576,1664024,1326,1878,-465,-1193,-792,-302,-60,158,-306
15685,6579,0,2023-03-01T18:51:14.509934,1664030,1326,1878,-465,-1193,-792,-302,-60,158,-306
15686,6580,0,2023-03-01T18:51:14.514543,1664035,1326,1878,-465,-1193,-792,-302,-60,158,-306
15687,6581,0,2023-03-01T18:51:14.520385,1664040,1326,1878,-465,-1193,-792,-302,-60,158,-306
15688,6582,0,2023-03-01T18:51:14.525308,1664046,1325,1879,-471,-1199,-799,-302,-60,158,-306
15689,6583,0,2023-03-01T18:51:14.530702,1664051,1325,1879,-471,-1199,-799,-302,-60,158,-306
15690,6584,0,2023-03-01T18:51:14.535350,1664056,1325,1879,-471,-1199,-799,-302,-60,158,-306
15691,6585,0,2023-03-01T18:51:14.541283,1664062,1331,1879,-473,-1184,-794,-297,-60,158,-306
15692,6586,0,2023-03-01T18:51:14.546589,1664067,1331,1879,-473,-1184,-794,-297,-60,158,-306
15693,6587,0,2023-03-01T18:51:14.551355,1664072,1331,1879,-473,-1184,-794,-297,-60,158,-306
15694,6588,0,2023-03-01T18:51:14.556151,1664077,1331,1879,-473,-1184,-794,-297,-60,158,-306
15695,6589,0,2023-03-01T18:51:14.562182,1664082,1331,1879,-473,-1184,-794,-297,-60,158,-306
15696,6590,0,2023-03-01T18:51:14.567010,1664088,1331,1879,-473,-1184,-794,-297,-60,158,-306
15697,6591,0,2023-03-01T18:51:14.571800,1664093,1331,1879,-473,-1184,-794,-297,-60,158,-306
15698,6592,0,2023-03-01T18:51:14.576400,1664097,1331,1879,-473,-1184,-794,-297,-60,158,-306
15699,6593,0,2023-03-01T18:51:14.582319,1664103,1326,1881,-466,-1190,-792,-297,-62,166,-302
15700,6594,0,2023-03-01T18:51:14.587081,1664108,1326,1881,-466,-1190,-792,-297,-62,166,-302
15701,6595,0,2023-03-01T18:51:14.591714,1664112,1326,1881,-466,-1190,-792,-297,-62,166,-302
15702,6596,0,2023-03-01T18:51:14.596410,1664117,1326,1881,-466,-1190,-792,-297,-62,166,-302
15703,6597,0,2023-03-01T18:51:14.602473,1664123,1327,1881,-467,-1182,-792,-293,-62,166,-302
15704,6598,0,2023-03-01T18:51:14.607984,1664129,1327,1881,-467,-1182,-792,-293,-62,166,-302
15705,6599,0,2023-03-01T18:51:14.613570,1664134,1327,1881,-467,-1182,-792,-293,-62,166,-302
15706,6600,0,2023-03-01T18:51:14.619749,1664140,1327,1881,-467,-1182,-792,-293,-62,166,-302
15707,6601,0,2023-03-01T18:51:14.625805,1664146,1327,1878,-465,-1178,-788,-295,-62,166,-302
15708,6602,0,2023-03-01T18:51:14.631210,1664152,1327,1878,-465,-1178,-788,-295,-62,166,-302
15709,6603,0,2023-03-01T18:51:14.636169,1664156,1327,1878,-465,-1178,-788,-295,-62,166,-302
15710,6604,0,2023-03-01T18:51:14.641227,1664161,1327,1878,-465,-1178,-788,-295,-62,166,-302
15711,6605,0,2023-03-01T18:51:14.646643,1664166,1329,1881,-467,-1183,-790,-297,-62,166,-302
15712,6606,0,2023-03-01T18:51:14.651932,1664173,1329,1881,-467,-1183,-790,-297,-62,166,-302
15713,6607,0,2023-03-01T18:51:14.656918,1664178,1329,1881,-467,-1183,-790,-297,-62,166,-302
15714,6608,0,2023-03-01T18:51:14.662654,1664183,1328,1877,-468,-1188,-793,-300,-62,166,-302
15715,6609,0,2023-03-01T18:51:14.668593,1664189,1328,1877,-468,-1188,-793,-300,-62,166,-302
15716,6610,0,2023-03-01T18:51:14.673285,1664194,1328,1877,-468,-1188,-793,-300,-62,166,-302
15717,6611,0,2023-03-01T18:51:14.678175,1664198,1328,1877,-468,-1188,-793,-300,-62,166,-302
15718,6612,0,2023-03-01T18:51:14.684318,1664205,1331,1876,-466,-1181,-800,-302,-62,166,-302
15719,6613,0,2023-03-01T18:51:14.689728,1664210,1331,1876,-466,-1181,-800,-302,-62,166,-302
15720,6614,0,2023-03-01T18:51:14.694948,1664216,1331,1876,-466,-1181,-800,-302,-62,166,-302
15721,6615,0,2023-03-01T18:51:14.701060,1664222,1331,1876,-466,-1181,-800,-302,-62,166,-302
15722,6616,0,2023-03-01T18:51:14.705937,1664227,1329,1880,-466,-1187,-793,-298,-62,166,-302
15723,6617,0,2023-03-01T18:51:14.711429,1664232,1329,1880,-466,-1187,-793,-298,-62,166,-302
15724,6618,0,2023-03-01T18:51:14.716220,1664237,1329,1880,-466,-1187,-793,-298,-62,166,-302
15725,6619,0,2023-03-01T18:51:14.722869,1664243,1327,1879,-461,-1186,-788,-302,-65,165,-299
15726,6620,0,2023-03-01T18:51:14.728560,1664249,1327,1879,-461,-1186,-788,-302,-65,165,-299
15727,6621,0,2023-03-01T18:51:14.733304,1664253,1327,1879,-461,-1186,-788,-302,-65,165,-299
15728,6622,0,2023-03-01T18:51:14.738270,1664259,1327,1879,-461,-1186,-788,-302,-65,165,-299
15729,6623,0,2023-03-01T18:51:14.743613,1664264,1328,1878,-465,-1183,-795,-300,-65,165,-299
15730,6624,0,2023-03-01T18:51:14.749265,1664270,1328,1878,-465,-1183,-795,-300,-65,165,-299
15731,6625,0,2023-03-01T18:51:14.754415,1664275,1328,1878,-465,-1183,-795,-300,-65,165,-299
15732,6626,0,2023-03-01T18:51:14.759141,1664280,1328,1878,-465,-1183,-795,-300,-65,165,-299
15733,6627,0,2023-03-01T18:51:14.764558,1664285,1330,1877,-463,-1190,-799,-300,-65,165,-299
15734,6628,0,2023-03-01T18:51:14.769932,1664290,1330,1877,-463,-1190,-799,-300,-65,165,-299
15735,6629,0,2023-03-01T18:51:14.775296,1664295,1330,1877,-463,-1190,-799,-300,-65,165,-299
15736,6630,0,2023-03-01T18:51:14.781369,1664302,1330,1877,-463,-1190,-799,-300,-65,165,-299
15737,6631,0,2023-03-01T18:51:14.786325,1664307,1327,1877,-466,-1182,-798,-299,-65,165,-299
15738,6632,0,2023-03-01T18:51:14.792095,1664312,1327,1877,-466,-1182,-798,-299,-65,165,-299
15739,6633,0,2023-03-01T18:51:14.796796,1664317,1327,1877,-466,-1182,-798,-299,-65,165,-299
15740,6634,0,2023-03-01T18:51:14.803111,1664323,1328,1878,-472,-1193,-800,-306,-65,165,-299
15741,6635,0,2023-03-01T18:51:14.808543,1664329,1328,1878,-472,-1193,-800,-306,-65,165,-299
15742,6636,0,2023-03-01T18:51:14.813823,1664334,1328,1878,-472,-1193,-800,-306,-65,165,-299
15743,6637,0,2023-03-01T18:51:14.818604,1664339,1328,1878,-472,-1193,-800,-306,-65,165,-299
15744,6638,0,2023-03-01T18:51:14.825103,1664346,1326,1876,-472,-1185,-800,-306,-65,165,-299
15745,6639,0,2023-03-01T18:51:14.830502,1664351,1326,1876,-472,-1185,-800,-306,-65,165,-299
15746,6640,0,2023-03-01T18:51:14.835563,1664356,1326,1876,-472,-1185,-800,-306,-65,165,-299
15747,6641,0,2023-03-01T18:51:14.842147,1664363,1328,1880,-468,-1188,-804,-306,-61,159,-301
15748,6642,0,2023-03-01T18:51:14.847639,1664368,1328,1880,-468,-1188,-804,-306,-61,159,-301
15749,6643,0,2023-03-01T18:51:14.852461,1664373,1328,1880,-468,-1188,-804,-306,-61,159,-301
15750,6644,0,2023-03-01T18:51:14.857339,1664378,1328,1880,-468,-1188,-804,-306,-61,159,-301
15751,6645,0,2023-03-01T18:51:14.862710,1664384,1325,1879,-467,-1196,-803,-300,-61,159,-301
15752,6646,0,2023-03-01T18:51:14.869183,1664389,1325,1879,-467,-1196,-803,-300,-61,159,-301
15753,6647,0,2023-03-01T18:51:14.874147,1664395,1325,1879,-467,-1196,-803,-300,-61,159,-301
15754,6648,0,2023-03-01T18:51:14.879491,1664400,1325,1879,-467,-1196,-803,-300,-61,159,-301
15755,6649,0,2023-03-01T18:51:14.884064,1664405,1328,1880,-462,-1192,-800,-294,-61,159,-301
15756,6650,0,2023-03-01T18:51:14.889428,1664410,1328,1880,-462,-1192,-800,-294,-61,159,-301
15757,6651,0,2023-03-01T18:51:14.894189,1664415,1328,1880,-462,-1192,-800,-294,-61,159,-301
15758,6652,0,2023-03-01T18:51:14.899286,1664419,1328,1880,-462,-1192,-800,-294,-61,159,-301
15759,6653,0,2023-03-01T18:51:14.905091,1664425,1331,1880,-473,-1183,-797,-292,-61,159,-301
15760,6654,0,2023-03-01T18:51:14.910376,1664431,1331,1880,-473,-1183,-797,-292,-61,159,-301
15761,6655,0,2023-03-01T18:51:14.915331,1664436,1331,1880,-473,-1183,-797,-292,-61,159,-301
15762,6656,0,2023-03-01T18:51:14.921780,1664442,1331,1880,-473,-1183,-797,-292,-61,159,-301
15763,6657,0,2023-03-01T18:51:14.926814,1664447,1328,1876,-471,-1188,-807,-295,-61,159,-301
15764,6658,0,2023-03-01T18:51:14.932118,1664453,1328,1876,-471,-1188,-807,-295,-61,159,-301
15765,6659,0,2023-03-01T18:51:14.937280,1664457,1328,1876,-471,-1188,-807,-295,-61,159,-301
15766,6660,0,2023-03-01T18:51:14.942288,1664463,1328,1877,-464,-1189,-791,-301,-61,159,-301
15767,6661,0,2023-03-01T18:51:14.947879,1664468,1328,1877,-464,-1189,-791,-301,-61,159,-301
15768,6662,0,2023-03-01T18:51:14.952853,1664474,1328,1877,-464,-1189,-791,-301,-61,159,-301
15769,6663,0,2023-03-01T18:51:14.957789,1664479,1328,1877,-464,-1189,-791,-301,-61,159,-301
15770,6664,0,2023-03-01T18:51:14.963594,1664484,1328,1882,-469,-1184,-785,-303,-61,159,-301
15771,6665,0,2023-03-01T18:51:14.969088,1664490,1328,1882,-469,-1184,-785,-303,-61,159,-301
15772,6666,0,2023-03-01T18:51:14.974029,1664494,1328,1882,-469,-1184,-785,-303,-61,159,-301
15773,6667,0,2023-03-01T18:51:14.979460,1664500,1328,1882,-469,-1184,-785,-303,-61,159,-301
15774,6668,0,2023-03-01T18:51:14.984354,1664505,1326,1875,-463,-1180,-783,-299,-60,178,-304
15775,6669,0,2023-03-01T18:51:14.989974,1664510,1326,1875,-463,-1180,-783,-299,-60,178,-304
15776,6670,0,2023-03-01T18:51:14.994680,1664516,1326,1875,-463,-1180,-783,-299,-60,178,-304
15777,6671,0,2023-03-01T18:51:15.000615,1664521,1326,1875,-463,-1180,-783,-299,-60,178,-304
15778,6672,0,2023-03-01T18:51:15.005598,1664526,1331,1875,-461,-1174,-780,-296,-60,178,-304
15779,6673,0,2023-03-01T18:51:15.011328,1664532,1331,1875,-461,-1174,-780,-296,-60,178,-304
15780,6674,0,2023-03-01T18:51:15.016165,1664537,1331,1875,-461,-1174,-780,-296,-60,178,-304
15781,6675,0,2023-03-01T18:51:15.022046,1664542,1330,1879,-469,-1164,-795,-294,-60,178,-304
15782,6676,0,2023-03-01T18:51:15.027060,1664547,1330,1879,-469,-1164,-795,-294,-60,178,-304
15783,6677,0,2023-03-01T18:51:15.031901,1664552,1330,1879,-469,-1164,-795,-294,-60,178,-304
15784,6678,0,2023-03-01T18:51:15.036629,1664558,1330,1879,-469,-1164,-795,-294,-60,178,-304
15785,6679,0,2023-03-01T18:51:15.042526,1664563,1328,1879,-468,-1169,-800,-292,-60,178,-304
15786,6680,0,2023-03-01T18:51:15.048013,1664569,1328,1879,-468,-1169,-800,-292,-60,178,-304
15787,6681,0,2023-03-01T18:51:15.052838,1664573,1328,1879,-468,-1169,-800,-292,-60,178,-304
15788,6682,0,2023-03-01T18:51:15.057568,1664578,1328,1879,-468,-1169,-800,-292,-60,178,-304
15789,6683,0,2023-03-01T18:51:15.063552,1664584,1326,1879,-471,-1186,-803,-289,-60,178,-304
15790,6684,0,2023-03-01T18:51:15.069050,1664589,1326,1879,-471,-1186,-803,-289,-60,178,-304
15791,6685,0,2023-03-01T18:51:15.074011,1664594,1326,1879,-471,-1186,-803,-289,-60,178,-304
15792,6686,0,2023-03-01T18:51:15.079497,1664600,1326,1879,-471,-1186,-803,-289,-60,178,-304
15793,6687,0,2023-03-01T18:51:15.084123,1664605,1327,1880,-472,-1189,-798,-293,-60,178,-304
15794,6688,0,2023-03-01T18:51:15.089498,1664610,1327,1880,-472,-1189,-798,-293,-60,178,-304
15795,6689,0,2023-03-01T18:51:15.094417,1664615,1327,1880,-472,-1189,-798,-293,-60,178,-304
15796,6690,0,2023-03-01T18:51:15.100446,1664621,1327,1880,-472,-1189,-798,-293,-60,178,-304
15797,6691,0,2023-03-01T18:51:15.105864,1664626,1324,1876,-465,-1188,-795,-300,-55,163,-299
15798,6692,0,2023-03-01T18:51:15.111322,1664632,1324,1876,-465,-1188,-795,-300,-55,163,-299
15799,6693,0,2023-03-01T18:51:15.116734,1664637,1324,1876,-465,-1188,-795,-300,-55,163,-299
15800,6694,0,2023-03-01T18:51:15.121834,1664643,1324,1876,-465,-1188,-795,-300,-55,163,-299
15801,6695,0,2023-03-01T18:51:15.127378,1664648,1329,1879,-470,-1183,-788,-297,-55,163,-299
15802,6696,0,2023-03-01T18:51:15.133157,1664654,1329,1879,-470,-1183,-788,-297,-55,163,-299
15803,6697,0,2023-03-01T18:51:15.138026,1664659,1329,1879,-470,-1183,-788,-297,-55,163,-299
15804,6698,0,2023-03-01T18:51:15.143750,1664664,1327,1877,-469,-1190,-799,-289,-55,163,-299
15805,6699,0,2023-03-01T18:51:15.149520,1664670,1327,1877,-469,-1190,-799,-289,-55,163,-299
15806,6700,0,2023-03-01T18:51:15.154313,1664674,1327,1877,-469,-1190,-799,-289,-55,163,-299
15807,6701,0,2023-03-01T18:51:15.159489,1664680,1327,1877,-469,-1190,-799,-289,-55,163,-299
15808,6702,0,2023-03-01T18:51:15.164268,1664685,1327,1876,-464,-1189,-797,-298,-55,163,-299
15809,6703,0,2023-03-01T18:51:15.169670,1664691,1327,1876,-464,-1189,-797,-298,-55,163,-299
15810,6704,0,2023-03-01T18:51:15.174806,1664695,1327,1876,-464,-1189,-797,-298,-55,163,-299
15811,6705,0,2023-03-01T18:51:15.181409,1664701,1327,1876,-464,-1189,-797,-298,-55,163,-299
15812,6706,0,2023-03-01T18:51:15.187719,1664708,1328,1876,-469,-1183,-789,-293,-55,163,-299
15813,6707,0,2023-03-01T18:51:15.192873,1664713,1328,1876,-469,-1183,-789,-293,-55,163,-299
15814,6708,0,2023-03-01T18:51:15.198234,1664718,1328,1876,-469,-1183,-789,-293,-55,163,-299
15815,6709,0,2023-03-01T18:51:15.205579,1664726,1327,1877,-469,-1174,-795,-300,-55,163,-299
15816,6710,0,2023-03-01T18:51:15.211316,1664732,1327,1877,-469,-1174,-795,-300,-55,163,-299
15817,6711,0,2023-03-01T18:51:15.216736,1664737,1327,1877,-469,-1174,-795,-300,-55,163,-299
15818,6712,0,2023-03-01T18:51:15.222310,1664743,1332,1879,-470,-1182,-799,-300,-54,174,-299
15819,6713,0,2023-03-01T18:51:15.228215,1664749,1332,1879,-470,-1182,-799,-300,-54,174,-294
15820,6714,0,2023-03-01T18:51:15.233224,1664753,1332,1879,-470,-1182,-799,-300,-54,174,-294
15821,6715,0,2023-03-01T18:51:15.238545,1664758,1332,1879,-470,-1182,-799,-300,-54,174,-294
15822,6716,0,2023-03-01T18:51:15.244347,1664764,1328,1877,-462,-1186,-790,-301,-54,174,-294
15823,6717,0,2023-03-01T18:51:15.250405,1664771,1328,1877,-462,-1186,-790,-301,-54,174,-294
15824,6718,0,2023-03-01T18:51:15.255676,1664776,1328,1877,-462,-1186,-790,-301,-54,174,-294
15825,6719,0,2023-03-01T18:51:15.261786,1664782,1328,1877,-462,-1186,-790,-301,-54,174,-294
15826,6720,0,2023-03-01T18:51:15.266242,1664787,1331,1877,-464,-1186,-788,-297,-54,174,-294
15827,6721,0,2023-03-01T18:51:15.273094,1664793,1331,1877,-464,-1186,-788,-297,-54,174,-294
15828,6722,0,2023-03-01T18:51:15.278259,1664798,1331,1877,-464,-1186,-788,-297,-54,174,-294
15829,6723,0,2023-03-01T18:51:15.285023,1664805,1328,1882,-469,-1189,-794,-301,-54,174,-294
15830,6724,0,2023-03-01T18:51:15.290716,1664811,1328,1882,-469,-1189,-794,-301,-54,174,-294
15831,6725,0,2023-03-01T18:51:15.295772,1664817,1328,1882,-469,-1189,-794,-301,-54,174,-294
15832,6726,0,2023-03-01T18:51:15.301637,1664822,1328,1882,-469,-1189,-794,-301,-54,174,-294
15833,6727,0,2023-03-01T18:51:15.306644,1664827,1332,1873,-467,-1192,-787,-300,-54,174,-294
15834,6728,0,2023-03-01T18:51:15.312502,1664833,1332,1873,-467,-1192,-787,-300,-54,174,-294
15835,6729,0,2023-03-01T18:51:15.317652,1664838,1332,1873,-467,-1192,-787,-300,-54,174,-294
15836,6730,0,2023-03-01T18:51:15.323339,1664844,1330,1876,-470,-1187,-788,-303,-54,174,-294
15837,6731,0,2023-03-01T18:51:15.328359,1664849,1330,1876,-470,-1187,-788,-303,-54,174,-294
15838,6732,0,2023-03-01T18:51:15.333374,1664854,1330,1876,-470,-1187,-788,-303,-54,174,-294
15839,6733,0,2023-03-01T18:51:15.338365,1664859,1330,1876,-470,-1187,-788,-303,-54,174,-294
15840,6734,0,2023-03-01T18:51:15.344115,1664865,1332,1877,-465,-1188,-797,-297,-54,174,-294
15841,6735,0,2023-03-01T18:51:15.349862,1664870,1332,1877,-465,-1188,-797,-297,-54,174,-294
15842,6736,0,2023-03-01T18:51:15.354819,1664875,1332,1877,-465,-1188,-797,-297,-54,174,-294
15843,6737,0,2023-03-01T18:51:15.360923,1664881,1332,1877,-465,-1188,-797,-297,-54,174,-294
15844,6738,0,2023-03-01T18:51:15.365689,1664886,1330,1878,-462,-1193,-798,-298,-57,161,-293
15845,6739,0,2023-03-01T18:51:15.371670,1664892,1330,1878,-462,-1193,-798,-298,-57,161,-293
15846,6740,0,2023-03-01T18:51:15.376202,1664897,1330,1878,-462,-1193,-798,-298,-57,161,-293
15847,6741,0,2023-03-01T18:51:15.382923,1664904,1329,1877,-466,-1185,-796,-300,-57,161,-293
15848,6742,0,2023-03-01T18:51:15.388380,1664909,1329,1877,-466,-1185,-796,-300,-57,161,-293
15849,6743,0,2023-03-01T18:51:15.393356,1664914,1329,1877,-466,-1185,-796,-300,-57,161,-293
15850,6744,0,2023-03-01T18:51:15.399217,1664920,1329,1877,-466,-1185,-796,-300,-57,161,-293
15851,6745,0,2023-03-01T18:51:15.404788,1664925,1330,1877,-467,-1186,-785,-295,-57,161,-293
15852,6746,0,2023-03-01T18:51:15.410282,1664931,1330,1877,-467,-1186,-785,-295,-57,161,-293
15853,6747,0,2023-03-01T18:51:15.414897,1664935,1330,1877,-467,-1186,-785,-295,-57,161,-293
15854,6748,0,2023-03-01T18:51:15.420845,1664942,1330,1877,-467,-1186,-785,-295,-57,161,-293
15855,6749,0,2023-03-01T18:51:15.425894,1664947,1328,1878,-469,-1188,-792,-287,-57,161,-293
15856,6750,0,2023-03-01T18:51:15.431400,1664952,1328,1878,-469,-1188,-792,-287,-57,161,-293
15857,6751,0,2023-03-01T18:51:15.436315,1664957,1328,1878,-469,-1188,-792,-287,-57,161,-293
15858,6752,0,2023-03-01T18:51:15.442213,1664963,1328,1878,-469,-1188,-792,-287,-57,161,-293
15859,6753,0,2023-03-01T18:51:15.446893,1664967,1328,1877,-467,-1183,-796,-297,-57,161,-293
15860,6754,0,2023-03-01T18:51:15.452381,1664973,1328,1877,-467,-1183,-796,-297,-57,161,-293
15861,6755,0,2023-03-01T18:51:15.457546,1664977,1328,1877,-467,-1183,-796,-297,-57,161,-293
15862,6756,0,2023-03-01T18:51:15.463158,1664984,1328,1877,-467,-1183,-796,-297,-57,161,-293
15863,6757,0,2023-03-01T18:51:15.468280,1664989,1328,1877,-467,-1183,-796,-297,-57,161,-293
15864,6758,0,2023-03-01T18:51:15.472866,1664994,1328,1877,-467,-1183,-796,-297,-57,161,-293
15865,6759,0,2023-03-01T18:51:15.477896,1664998,1328,1877,-467,-1183,-796,-297,-57,161,-293
15866,6760,0,2023-03-01T18:51:15.484211,1665005,1332,1879,-466,-1185,-800,-304,-65,163,-303
15867,6761,0,2023-03-01T18:51:15.490165,1665010,1332,1879,-466,-1185,-800,-304,-65,163,-303
15868,6762,0,2023-03-01T18:51:15.494998,1665015,1332,1879,-466,-1185,-800,-304,-65,163,-303
15869,6763,0,2023-03-01T18:51:15.500731,1665021,1332,1879,-466,-1185,-800,-304,-65,163,-303
15870,6764,0,2023-03-01T18:51:15.505843,1665027,1330,1876,-468,-1182,-804,-306,-65,163,-303
15871,6765,0,2023-03-01T18:51:15.511708,1665033,1330,1876,-468,-1182,-804,-306,-65,163,-303
15872,6766,0,2023-03-01T18:51:15.516625,1665037,1330,1876,-468,-1182,-804,-306,-65,163,-303
15873,6767,0,2023-03-01T18:51:15.522175,1665043,1330,1876,-468,-1182,-804,-306,-65,163,-303
15874,6768,0,2023-03-01T18:51:15.526988,1665048,1329,1875,-458,-1182,-794,-312,-65,163,-303
15875,6769,0,2023-03-01T18:51:15.532565,1665053,1329,1875,-458,-1182,-794,-312,-65,163,-303
15876,6770,0,2023-03-01T18:51:15.537446,1665058,1329,1875,-458,-1182,-794,-312,-65,163,-303
15877,6771,0,2023-03-01T18:51:15.543022,1665063,1329,1879,-470,-1181,-789,-295,-65,163,-303
15878,6772,0,2023-03-01T18:51:15.549469,1665070,1329,1879,-470,-1181,-789,-295,-65,163,-303
15879,6773,0,2023-03-01T18:51:15.554403,1665075,1329,1879,-470,-1181,-789,-295,-65,163,-303
15880,6774,0,2023-03-01T18:51:15.560135,1665081,1329,1879,-470,-1181,-789,-295,-65,163,-303
15881,6775,0,2023-03-01T18:51:15.564955,1665085,1331,1877,-470,-1189,-798,-291,-65,163,-303
15882,6776,0,2023-03-01T18:51:15.570508,1665091,1331,1877,-470,-1189,-798,-291,-65,163,-303
15883,6777,0,2023-03-01T18:51:15.575362,1665096,1331,1877,-470,-1189,-798,-291,-65,163,-303
15884,6778,0,2023-03-01T18:51:15.581503,1665102,1331,1877,-470,-1189,-798,-291,-65,163,-303
15885,6779,0,2023-03-01T18:51:15.586548,1665107,1330,1876,-471,-1196,-800,-305,-65,163,-303
15886,6780,0,2023-03-01T18:51:15.592414,1665113,1330,1876,-471,-1196,-800,-305,-65,163,-303
15887,6781,0,2023-03-01T18:51:15.597454,1665118,1330,1876,-471,-1196,-800,-305,-65,163,-303
15888,6782,0,2023-03-01T18:51:15.603384,1665124,1333,1878,-473,-1191,-809,-304,-65,163,-303
15889,6783,0,2023-03-01T18:51:15.608961,1665129,1333,1878,-473,-1191,-809,-304,-65,163,-303
15890,6784,0,2023-03-01T18:51:15.613981,1665134,1333,1878,-473,-1191,-809,-304,-65,163,-303
15891,6785,0,2023-03-01T18:51:15.619063,1665139,1333,1878,-473,-1191,-809,-304,-65,163,-303
15892,6786,0,2023-03-01T18:51:15.624898,1665145,1330,1876,-468,-1196,-793,-297,-55,173,-305
15893,6787,0,2023-03-01T18:51:15.631507,1665153,1330,1876,-468,-1196,-793,-297,-55,173,-305
15894,6788,0,2023-03-01T18:51:15.636548,1665158,1330,1876,-468,-1196,-793,-297,-55,173,-305
15895,6789,0,2023-03-01T18:51:15.642645,1665163,1330,1876,-468,-1196,-793,-297,-55,173,-305
15896,6790,0,2023-03-01T18:51:15.647706,1665168,1332,1876,-472,-1184,-784,-299,-55,173,-305
15897,6791,0,2023-03-01T18:51:15.653479,1665174,1332,1876,-472,-1184,-784,-299,-55,173,-305
15898,6792,0,2023-03-01T18:51:15.658464,1665179,1332,1876,-472,-1184,-784,-299,-55,173,-305
15899,6793,0,2023-03-01T18:51:15.664353,1665185,1331,1881,-468,-1188,-790,-301,-55,173,-305
15900,6794,0,2023-03-01T18:51:15.670154,1665190,1331,1881,-468,-1188,-790,-301,-55,173,-305
15901,6795,0,2023-03-01T18:51:15.675005,1665196,1331,1881,-468,-1188,-790,-301,-55,173,-305
15902,6796,0,2023-03-01T18:51:15.681051,1665202,1331,1881,-468,-1188,-790,-301,-55,173,-305
15903,6797,0,2023-03-01T18:51:15.686774,1665207,1331,1875,-464,-1181,-791,-292,-55,173,-305
15904,6798,0,2023-03-01T18:51:15.692128,1665213,1331,1875,-464,-1181,-791,-292,-55,173,-305
15905,6799,0,2023-03-01T18:51:15.697124,1665218,1331,1875,-464,-1181,-791,-292,-55,173,-305
15906,6800,0,2023-03-01T18:51:15.703151,1665223,1333,1875,-469,-1183,-805,-292,-55,173,-305
15907,6801,0,2023-03-01T18:51:15.708961,1665229,1333,1875,-469,-1183,-805,-292,-55,173,-305
15908,6802,0,2023-03-01T18:51:15.714143,1665234,1333,1875,-469,-1183,-805,-292,-55,173,-305
15909,6803,0,2023-03-01T18:51:15.718888,1665240,1333,1875,-469,-1183,-805,-292,-55,173,-305
15910,6804,0,2023-03-01T18:51:15.725014,1665246,1330,1876,-468,-1183,-792,-302,-55,173,-305
15911,6805,0,2023-03-01T18:51:15.730663,1665251,1330,1876,-468,-1183,-792,-302,-55,173,-305
15912,6806,0,2023-03-01T18:51:15.735566,1665256,1330,1876,-468,-1183,-792,-302,-55,173,-305
15913,6807,0,2023-03-01T18:51:15.741544,1665262,1330,1876,-468,-1183,-792,-302,-55,173,-305
15914,6808,0,2023-03-01T18:51:15.746035,1665267,1331,1874,-464,-1187,-792,-297,-62,160,-298
15915,6809,0,2023-03-01T18:51:15.751649,1665272,1331,1874,-464,-1187,-792,-297,-62,160,-298
15916,6810,0,2023-03-01T18:51:15.756708,1665277,1331,1874,-464,-1187,-792,-297,-62,160,-298
15917,6811,0,2023-03-01T18:51:15.763888,1665284,1333,1877,-469,-1186,-798,-298,-62,160,-298
15918,6812,0,2023-03-01T18:51:15.769802,1665291,1333,1877,-469,-1186,-798,-298,-62,160,-298
15919,6813,0,2023-03-01T18:51:15.774787,1665295,1333,1877,-469,-1186,-798,-298,-62,160,-298
15920,6814,0,2023-03-01T18:51:15.780138,1665301,1333,1877,-469,-1186,-798,-298,-62,160,-298
15921,6815,0,2023-03-01T18:51:15.784803,1665305,1332,1873,-469,-1193,-793,-299,-62,160,-298
15922,6816,0,2023-03-01T18:51:15.790593,1665311,1332,1873,-469,-1193,-793,-299,-62,160,-298
15923,6817,0,2023-03-01T18:51:15.795740,1665316,1332,1873,-469,-1193,-793,-299,-62,160,-298
15924,6818,0,2023-03-01T18:51:15.801942,1665323,1332,1873,-469,-1193,-793,-299,-62,160,-298
15925,6819,0,2023-03-01T18:51:15.806702,1665328,1332,1875,-468,-1178,-775,-297,-62,160,-298
15926,6820,0,2023-03-01T18:51:15.812077,1665333,1332,1875,-468,-1178,-775,-297,-62,160,-298
15927,6821,0,2023-03-01T18:51:15.817111,1665338,1332,1875,-468,-1178,-775,-297,-62,160,-298
15928,6822,0,2023-03-01T18:51:15.823637,1665344,1330,1876,-471,-1178,-789,-294,-62,160,-298
15929,6823,0,2023-03-01T18:51:15.829263,1665350,1330,1876,-471,-1178,-789,-294,-62,160,-298
15930,6824,0,2023-03-01T18:51:15.834868,1665355,1330,1876,-471,-1178,-789,-294,-62,160,-298
15931,6825,0,2023-03-01T18:51:15.840473,1665361,1330,1876,-471,-1178,-789,-294,-62,160,-298
15932,6826,0,2023-03-01T18:51:15.845020,1665366,1327,1874,-469,-1185,-789,-297,-62,160,-298
15933,6827,0,2023-03-01T18:51:15.851040,1665372,1327,1874,-469,-1185,-789,-297,-62,160,-298
15934,6828,0,2023-03-01T18:51:15.855912,1665377,1327,1874,-469,-1185,-789,-297,-62,160,-298
15935,6829,0,2023-03-01T18:51:15.860361,1665381,1327,1874,-469,-1185,-789,-297,-62,160,-298
15936,6830,0,2023-03-01T18:51:15.865268,1665386,1333,1878,-470,-1187,-786,-295,-62,160,-298
15937,6831,0,2023-03-01T18:51:15.870817,1665391,1333,1878,-470,-1187,-786,-295,-62,160,-298
15938,6832,0,2023-03-01T18:51:15.876220,1665396,1333,1878,-470,-1187,-786,-295,-62,160,-298
15939,6833,0,2023-03-01T18:51:15.881687,1665402,1333,1878,-470,-1187,-786,-295,-62,160,-298
15940,6834,0,2023-03-01T18:51:15.886688,1665408,1334,1874,-468,-1187,-786,-294,-62,160,-298
15941,6835,0,2023-03-01T18:51:15.892223,1665413,1334,1874,-468,-1187,-786,-294,-62,160,-298
15942,6836,0,2023-03-01T18:51:15.898221,1665418,1334,1874,-468,-1187,-786,-294,-62,160,-298
15943,6837,0,2023-03-01T18:51:15.904227,1665425,1334,1876,-469,-1186,-793,-291,-62,160,-298
15944,6838,0,2023-03-01T18:51:15.910413,1665430,1334,1876,-469,-1186,-793,-291,-62,160,-298
15945,6839,0,2023-03-01T18:51:15.915241,1665436,1334,1876,-469,-1186,-793,-291,-62,160,-298
15946,6840,0,2023-03-01T18:51:15.920668,1665441,1334,1876,-469,-1186,-793,-291,-62,160,-298
15947,6841,0,2023-03-01T18:51:15.926340,1665446,1329,1880,-471,-1190,-791,-303,-62,160,-298
15948,6842,0,2023-03-01T18:51:15.932703,1665454,1329,1880,-471,-1190,-791,-303,-62,160,-298
15949,6843,0,2023-03-01T18:51:15.937563,1665458,1329,1880,-471,-1190,-791,-303,-62,160,-298
15950,6844,0,2023-03-01T18:51:15.942734,1665464,1329,1880,-471,-1190,-791,-303,-62,160,-298
15951,6845,0,2023-03-01T18:51:15.947540,1665468,1329,1872,-469,-1193,-794,-296,-62,160,-298
15952,6846,0,2023-03-01T18:51:15.953057,1665473,1329,1872,-469,-1193,-794,-296,-62,160,-298
15953,6847,0,2023-03-01T18:51:15.957792,1665478,1329,1872,-469,-1193,-794,-296,-62,160,-298
15954,6848,0,2023-03-01T18:51:15.962689,1665483,1329,1872,-469,-1193,-794,-296,-62,160,-298
15955,6849,0,2023-03-01T18:51:15.967788,1665488,1332,1877,-472,-1192,-790,-307,-62,160,-298
15956,6850,0,2023-03-01T18:51:15.973270,1665494,1332,1877,-472,-1192,-790,-307,-62,160,-298
15957,6851,0,2023-03-01T18:51:15.978962,1665499,1332,1877,-472,-1192,-790,-307,-62,160,-298
15958,6852,0,2023-03-01T18:51:15.984228,1665505,1333,1875,-466,-1189,-794,-297,-62,160,-298
15959,6853,0,2023-03-01T18:51:15.989988,1665511,1333,1875,-466,-1189,-794,-297,-62,160,-298
15960,6854,0,2023-03-01T18:51:15.994848,1665515,1333,1875,-466,-1189,-794,-297,-62,160,-298
15961,6855,0,2023-03-01T18:51:16.000045,1665521,1333,1875,-466,-1189,-794,-297,-62,160,-298
15962,6856,0,2023-03-01T18:51:16.005071,1665525,1329,1874,-463,-1177,-785,-295,-58,162,-304
15963,6857,0,2023-03-01T18:51:16.010258,1665530,1329,1874,-463,-1177,-785,-295,-58,162,-304
15964,6858,0,2023-03-01T18:51:16.015311,1665536,1329,1874,-463,-1177,-785,-295,-58,162,-304
15965,6859,0,2023-03-01T18:51:16.020918,1665542,1329,1874,-463,-1177,-785,-295,-58,162,-304
15966,6860,0,2023-03-01T18:51:16.026398,1665547,1333,1879,-470,-1182,-784,-299,-58,162,-304
15967,6861,0,2023-03-01T18:51:16.031851,1665553,1333,1879,-470,-1182,-784,-299,-58,162,-304
15968,6862,0,2023-03-01T18:51:16.037535,1665557,1333,1879,-470,-1182,-784,-299,-58,162,-304
15969,6863,0,2023-03-01T18:51:16.043678,1665564,1333,1875,-467,-1188,-794,-302,-58,162,-304
15970,6864,0,2023-03-01T18:51:16.049219,1665569,1333,1875,-467,-1188,-794,-302,-58,162,-304
15971,6865,0,2023-03-01T18:51:16.054457,1665574,1333,1875,-467,-1188,-794,-302,-58,162,-304
15972,6866,0,2023-03-01T18:51:16.059949,1665581,1333,1875,-467,-1188,-794,-302,-58,162,-304
15973,6867,0,2023-03-01T18:51:16.065161,1665586,1333,1877,-470,-1185,-799,-295,-58,162,-304
15974,6868,0,2023-03-01T18:51:16.070561,1665591,1333,1877,-470,-1185,-799,-295,-58,162,-304
15975,6869,0,2023-03-01T18:51:16.075361,1665596,1333,1877,-470,-1185,-799,-295,-58,162,-304
15976,6870,0,2023-03-01T18:51:16.081230,1665602,1333,1877,-470,-1185,-799,-295,-58,162,-304
15977,6871,0,2023-03-01T18:51:16.086144,1665607,1332,1877,-469,-1183,-796,-297,-58,162,-304
15978,6872,0,2023-03-01T18:51:16.091604,1665612,1332,1877,-469,-1183,-796,-297,-58,162,-304
15979,6873,0,2023-03-01T18:51:16.096335,1665617,1332,1877,-469,-1183,-796,-297,-58,162,-304
15980,6874,0,2023-03-01T18:51:16.101638,1665623,1332,1877,-469,-1183,-796,-297,-58,162,-304
15981,6875,0,2023-03-01T18:51:16.106695,1665628,1333,1873,-468,-1175,-785,-298,-58,162,-304
15982,6876,0,2023-03-01T18:51:16.112484,1665633,1333,1873,-468,-1175,-785,-298,-58,162,-304
15983,6877,0,2023-03-01T18:51:16.117472,1665638,1333,1873,-468,-1175,-785,-298,-58,162,-304
15984,6878,0,2023-03-01T18:51:16.122551,1665643,1333,1873,-468,-1175,-785,-298,-58,162,-304
15985,6879,0,2023-03-01T18:51:16.127526,1665648,1334,1874,-466,-1190,-795,-295,-67,163,-299
15986,6880,0,2023-03-01T18:51:16.132822,1665653,1334,1874,-466,-1190,-795,-295,-67,163,-299
15987,6881,0,2023-03-01T18:51:16.137561,1665658,1334,1874,-466,-1190,-795,-295,-67,163,-299
15988,6882,0,2023-03-01T18:51:16.143400,1665665,1329,1874,-465,-1191,-799,-291,-67,163,-299
15989,6883,0,2023-03-01T18:51:16.149024,1665670,1329,1874,-465,-1191,-799,-291,-67,163,-299
15990,6884,0,2023-03-01T18:51:16.154016,1665675,1329,1874,-465,-1191,-799,-291,-67,163,-299
15991,6885,0,2023-03-01T18:51:16.158924,1665680,1329,1874,-465,-1191,-799,-291,-67,163,-299
15992,6886,0,2023-03-01T18:51:16.164450,1665685,1333,1878,-469,-1182,-794,-298,-67,163,-299
15993,6887,0,2023-03-01T18:51:16.170089,1665691,1333,1878,-469,-1182,-794,-298,-67,163,-299
15994,6888,0,2023-03-01T18:51:16.175439,1665695,1333,1878,-469,-1182,-794,-298,-67,163,-299
15995,6889,0,2023-03-01T18:51:16.180846,1665701,1333,1878,-469,-1182,-794,-298,-67,163,-299
15996,6890,0,2023-03-01T18:51:16.186190,1665707,1333,1876,-467,-1186,-801,-305,-67,163,-299
15997,6891,0,2023-03-01T18:51:16.191798,1665713,1333,1876,-467,-1186,-801,-305,-67,163,-299
15998,6892,0,2023-03-01T18:51:16.196911,1665718,1333,1876,-467,-1186,-801,-305,-67,163,-299
15999,6893,0,2023-03-01T18:51:16.202818,1665724,1333,1876,-467,-1186,-801,-305,-67,163,-299
16000,6894,0,2023-03-01T18:51:16.207954,1665728,1330,1874,-462,-1186,-797,-301,-67,163,-299
16001,6895,0,2023-03-01T18:51:16.214460,1665735,1330,1874,-462,-1186,-797,-301,-67,163,-299
16002,6896,0,2023-03-01T18:51:16.220329,1665740,1330,1874,-462,-1186,-797,-301,-67,163,-299
16003,6897,0,2023-03-01T18:51:16.226103,1665746,1336,1880,-473,-1193,-801,-303,-67,163,-299
16004,6898,0,2023-03-01T18:51:16.231486,1665753,1336,1880,-473,-1193,-801,-303,-67,163,-299
16005,6899,0,2023-03-01T18:51:16.236434,1665757,1336,1880,-473,-1193,-801,-303,-67,163,-299
16006,6900,0,2023-03-01T18:51:16.242138,1665763,1336,1880,-473,-1193,-801,-303,-67,163,-299
16007,6901,0,2023-03-01T18:51:16.246854,1665768,1335,1876,-465,-1190,-797,-296,-67,163,-299
16008,6902,0,2023-03-01T18:51:16.252051,1665773,1335,1876,-465,-1190,-797,-296,-67,163,-299
16009,6903,0,2023-03-01T18:51:16.257702,1665778,1335,1876,-465,-1190,-797,-296,-67,163,-299
16010,6904,0,2023-03-01T18:51:16.264031,1665784,1335,1874,-463,-1185,-783,-298,-57,163,-287
16011,6905,0,2023-03-01T18:51:16.270504,1665792,1335,1874,-463,-1185,-783,-298,-57,163,-287
16012,6906,0,2023-03-01T18:51:16.275283,1665796,1335,1874,-463,-1185,-783,-298,-57,163,-287
16013,6907,0,2023-03-01T18:51:16.281147,1665802,1335,1874,-463,-1185,-783,-298,-57,163,-287
16014,6908,0,2023-03-01T18:51:16.286296,1665807,1333,1880,-466,-1188,-778,-305,-57,163,-287
16015,6909,0,2023-03-01T18:51:16.292458,1665813,1333,1880,-466,-1188,-778,-305,-57,163,-287
16016,6910,0,2023-03-01T18:51:16.297480,1665818,1333,1880,-466,-1188,-778,-305,-57,163,-287
16017,6911,0,2023-03-01T18:51:16.303668,1665824,1331,1874,-475,-1182,-783,-305,-57,163,-287
16018,6912,0,2023-03-01T18:51:16.309526,1665829,1331,1874,-475,-1182,-783,-305,-57,163,-287
16019,6913,0,2023-03-01T18:51:16.314175,1665835,1331,1874,-475,-1182,-783,-305,-57,163,-287
16020,6914,0,2023-03-01T18:51:16.319116,1665840,1331,1874,-475,-1182,-783,-305,-57,163,-287
16021,6915,0,2023-03-01T18:51:16.324112,1665845,1334,1874,-468,-1176,-796,-304,-57,163,-287
16022,6916,0,2023-03-01T18:51:16.329923,1665851,1334,1874,-468,-1176,-796,-304,-57,163,-287
16023,6917,0,2023-03-01T18:51:16.334824,1665856,1334,1874,-468,-1176,-796,-304,-57,163,-287
16024,6918,0,2023-03-01T18:51:16.340020,1665861,1334,1874,-468,-1176,-796,-304,-57,163,-287
16025,6919,0,2023-03-01T18:51:16.345424,1665866,1335,1875,-466,-1172,-797,-294,-57,163,-287
16026,6920,0,2023-03-01T18:51:16.350853,1665871,1335,1875,-466,-1172,-797,-294,-57,163,-287
16027,6921,0,2023-03-01T18:51:16.356005,1665876,1335,1875,-466,-1172,-797,-294,-57,163,-287
16028,6922,0,2023-03-01T18:51:16.360835,1665882,1335,1875,-466,-1172,-797,-294,-57,163,-287
16029,6923,0,2023-03-01T18:51:16.365524,1665887,1335,1875,-466,-1172,-797,-294,-57,163,-287
16030,6924,0,2023-03-01T18:51:16.370656,1665891,1335,1875,-466,-1172,-797,-294,-57,163,-287
16031,6925,0,2023-03-01T18:51:16.375460,1665896,1335,1875,-466,-1172,-797,-294,-57,163,-287
16032,6926,0,2023-03-01T18:51:16.380947,1665902,1335,1875,-466,-1172,-797,-294,-57,163,-287
16033,6927,0,2023-03-01T18:51:16.386700,1665907,1335,1878,-469,-1187,-796,-303,-72,166,-298
16034,6928,0,2023-03-01T18:51:16.392550,1665913,1335,1878,-469,-1187,-796,-303,-72,166,-298
16035,6929,0,2023-03-01T18:51:16.397636,1665918,1335,1878,-469,-1187,-796,-303,-72,166,-298
16036,6930,0,2023-03-01T18:51:16.403230,1665924,1335,1878,-469,-1187,-796,-303,-72,166,-298
16037,6931,0,2023-03-01T18:51:16.407979,1665929,1337,1874,-468,-1196,-804,-298,-72,166,-298
16038,6932,0,2023-03-01T18:51:16.413478,1665934,1337,1874,-468,-1196,-804,-298,-72,166,-298
16039,6933,0,2023-03-01T18:51:16.418608,1665939,1337,1874,-468,-1196,-804,-298,-72,166,-298
16040,6934,0,2023-03-01T18:51:16.424534,1665945,1338,1877,-467,-1195,-794,-300,-72,166,-298
16041,6935,0,2023-03-01T18:51:16.430067,1665950,1338,1877,-467,-1195,-794,-300,-72,166,-298
16042,6936,0,2023-03-01T18:51:16.435211,1665955,1338,1877,-467,-1195,-794,-300,-72,166,-298
16043,6937,0,2023-03-01T18:51:16.440730,1665961,1338,1877,-467,-1195,-794,-300,-72,166,-298
16044,6938,0,2023-03-01T18:51:16.445690,1665967,1335,1878,-469,-1191,-798,-297,-72,166,-298
16045,6939,0,2023-03-01T18:51:16.451145,1665972,1335,1878,-469,-1191,-798,-297,-72,166,-298
16046,6940,0,2023-03-01T18:51:16.456002,1665977,1335,1878,-469,-1191,-798,-297,-72,166,-298
16047,6941,0,2023-03-01T18:51:16.462408,1665983,1335,1878,-469,-1191,-798,-297,-72,166,-298
16048,6942,0,2023-03-01T18:51:16.467885,1665988,1334,1876,-467,-1188,-794,-294,-72,166,-298
16049,6943,0,2023-03-01T18:51:16.473092,1665994,1334,1876,-467,-1188,-794,-294,-72,166,-298
16050,6944,0,2023-03-01T18:51:16.478220,1665998,1334,1876,-467,-1188,-794,-294,-72,166,-298
16051,6945,0,2023-03-01T18:51:16.483720,1666004,1335,1873,-474,-1180,-794,-290,-72,166,-298
16052,6946,0,2023-03-01T18:51:16.490131,1666010,1335,1873,-474,-1180,-794,-290,-72,166,-298
16053,6947,0,2023-03-01T18:51:16.495156,1666016,1335,1873,-474,-1180,-794,-290,-72,166,-298
16054,6948,0,2023-03-01T18:51:16.500417,1666021,1335,1873,-474,-1180,-794,-290,-72,166,-298
16055,6949,0,2023-03-01T18:51:16.505756,1666027,1336,1876,-473,-1186,-791,-293,-72,166,-298
16056,6950,0,2023-03-01T18:51:16.511667,1666031,1336,1876,-473,-1186,-791,-293,-72,166,-298
16057,6951,0,2023-03-01T18:51:16.516961,1666037,1336,1876,-473,-1186,-791,-293,-72,166,-298
16058,6952,0,2023-03-01T18:51:16.523052,1666043,1336,1876,-473,-1186,-791,-293,-72,166,-298
16059,6953,0,2023-03-01T18:51:16.528176,1666049,1333,1871,-462,-1191,-801,-300,-59,169,-305
16060,6954,0,2023-03-01T18:51:16.533730,1666055,1333,1871,-462,-1191,-801,-300,-59,169,-305
16061,6955,0,2023-03-01T18:51:16.538563,1666059,1333,1871,-462,-1191,-801,-300,-59,169,-305
16062,6956,0,2023-03-01T18:51:16.544432,1666065,1334,1876,-467,-1193,-802,-302,-59,169,-305
16063,6957,0,2023-03-01T18:51:16.549997,1666071,1334,1876,-467,-1193,-802,-302,-59,169,-305
16064,6958,0,2023-03-01T18:51:16.555098,1666076,1334,1876,-467,-1193,-802,-302,-59,169,-305
16065,6959,0,2023-03-01T18:51:16.560471,1666081,1334,1876,-467,-1193,-802,-302,-59,169,-305
16066,6960,0,2023-03-01T18:51:16.565167,1666086,1335,1877,-472,-1182,-790,-302,-59,169,-305
16067,6961,0,2023-03-01T18:51:16.571231,1666092,1335,1877,-472,-1182,-790,-302,-59,169,-305
16068,6962,0,2023-03-01T18:51:16.576100,1666097,1335,1877,-472,-1182,-790,-302,-59,169,-305
16069,6963,0,2023-03-01T18:51:16.582495,1666103,1335,1877,-472,-1182,-790,-302,-59,169,-305
16070,6964,0,2023-03-01T18:51:16.587483,1666108,1333,1875,-461,-1189,-790,-299,-59,169,-305
16071,6965,0,2023-03-01T18:51:16.592976,1666114,1333,1875,-461,-1189,-790,-299,-59,169,-305
16072,6966,0,2023-03-01T18:51:16.597621,1666118,1333,1875,-461,-1189,-790,-299,-59,169,-305
16073,6967,0,2023-03-01T18:51:16.603455,1666123,1333,1875,-461,-1189,-790,-299,-59,169,-305
16074,6968,0,2023-03-01T18:51:16.608731,1666129,1332,1879,-466,-1202,-798,-290,-59,169,-305
16075,6969,0,2023-03-01T18:51:16.614067,1666135,1332,1879,-466,-1202,-798,-290,-59,169,-305
16076,6970,0,2023-03-01T18:51:16.619174,1666140,1332,1879,-466,-1202,-798,-290,-59,169,-305
16077,6971,0,2023-03-01T18:51:16.623716,1666145,1334,1874,-466,-1183,-790,-294,-59,169,-305
16078,6972,0,2023-03-01T18:51:16.630032,1666150,1334,1874,-466,-1183,-790,-294,-59,169,-305
16079,6973,0,2023-03-01T18:51:16.635594,1666156,1334,1874,-466,-1183,-790,-294,-59,169,-305
16080,6974,0,2023-03-01T18:51:16.640719,1666161,1334,1874,-466,-1183,-790,-294,-59,169,-305
16081,6975,0,2023-03-01T18:51:16.645517,1666166,1334,1874,-466,-1183,-790,-294,-69,169,-295
16082,6976,0,2023-03-01T18:51:16.650650,1666171,1334,1874,-466,-1183,-790,-294,-69,169,-295
16083,6977,0,2023-03-01T18:51:16.655332,1666177,1334,1874,-466,-1183,-790,-294,-69,169,-295
16084,6978,0,2023-03-01T18:51:16.660472,1666182,1334,1874,-466,-1183,-790,-294,-69,169,-295
16085,6979,0,2023-03-01T18:51:16.665582,1666186,1337,1872,-468,-1186,-791,-296,-69,169,-295
16086,6980,0,2023-03-01T18:51:16.671395,1666192,1337,1872,-468,-1186,-791,-296,-69,169,-295
16087,6981,0,2023-03-01T18:51:16.676187,1666197,1337,1872,-468,-1186,-791,-296,-69,169,-295
16088,6982,0,2023-03-01T18:51:16.681040,1666202,1337,1872,-468,-1186,-791,-296,-69,169,-295
16089,6983,0,2023-03-01T18:51:16.685686,1666206,1335,1874,-467,-1181,-788,-303,-69,169,-295
16090,6984,0,2023-03-01T18:51:16.691495,1666212,1335,1874,-467,-1181,-788,-303,-69,169,-295
16091,6985,0,2023-03-01T18:51:16.696491,1666217,1335,1874,-467,-1181,-788,-303,-69,169,-295
16092,6986,0,2023-03-01T18:51:16.703006,1666224,1335,1874,-467,-1181,-788,-303,-69,169,-295
16093,6987,0,2023-03-01T18:51:16.707779,1666229,1337,1879,-469,-1190,-785,-303,-69,169,-295
16094,6988,0,2023-03-01T18:51:16.713428,1666234,1337,1879,-469,-1190,-785,-303,-69,169,-295
16095,6989,0,2023-03-01T18:51:16.718216,1666239,1337,1879,-469,-1190,-785,-303,-69,169,-295
16096,6990,0,2023-03-01T18:51:16.723882,1666244,1336,1878,-467,-1192,-781,-301,-69,169,-295
16097,6991,0,2023-03-01T18:51:16.729189,1666250,1336,1878,-467,-1192,-781,-301,-69,169,-295
16098,6992,0,2023-03-01T18:51:16.734161,1666254,1336,1878,-467,-1192,-781,-301,-69,169,-295
16099,6993,0,2023-03-01T18:51:16.739060,1666259,1336,1878,-467,-1192,-781,-301,-69,169,-295
