,Unnamed: 0,imu,server_time,arduino_time,ax,ay,az,gx,gy,gz,mx,my,mz
16100,6994,0,2023-03-01T18:51:16.744638,1666266,1335,1873,-467,-1189,-780,-301,-69,169,-295
16101,6995,0,2023-03-01T18:51:16.750226,1666271,1335,1873,-467,-1189,-780,-301,-69,169,-295
16102,6996,0,2023-03-01T18:51:16.755103,1666276,1335,1873,-467,-1189,-780,-301,-69,169,-295
16103,6997,0,2023-03-01T18:51:16.760718,1666281,1335,1873,-467,-1189,-780,-301,-69,169,-295
16104,6998,0,2023-03-01T18:51:16.765645,1666286,1333,1874,-469,-1176,-785,-300,-63,167,-299
16105,6999,0,2023-03-01T18:51:16.771244,1666292,1333,1874,-469,-1176,-785,-300,-63,167,-299
16106,7000,0,2023-03-01T18:51:16.776162,1666296,1333,1874,-469,-1176,-785,-300,-63,167,-299
16107,7001,0,2023-03-01T18:51:16.782212,1666302,1333,1874,-469,-1176,-785,-300,-63,167,-299
16108,7002,0,2023-03-01T18:51:16.787298,1666308,1333,1871,-468,-1175,-781,-305,-63,167,-299
16109,7003,0,2023-03-01T18:51:16.792682,1666314,1333,1871,-468,-1175,-781,-305,-63,167,-299
16110,7004,0,2023-03-01T18:51:16.797608,1666318,1333,1871,-468,-1175,-781,-305,-63,167,-299
16111,7005,0,2023-03-01T18:51:16.803539,1666324,1333,1871,-468,-1175,-781,-305,-63,167,-299
16112,7006,0,2023-03-01T18:51:16.808397,1666329,1336,1875,-463,-1178,-771,-296,-63,167,-299
16113,7007,0,2023-03-01T18:51:16.813602,1666334,1336,1875,-463,-1178,-771,-296,-63,167,-299
16114,7008,0,2023-03-01T18:51:16.818381,1666339,1336,1875,-463,-1178,-771,-296,-63,167,-299
16115,7009,0,2023-03-01T18:51:16.824345,1666344,1335,1874,-470,-1169,-776,-296,-63,167,-299
16116,7010,0,2023-03-01T18:51:16.829542,1666351,1335,1874,-470,-1169,-776,-296,-63,167,-299
16117,7011,0,2023-03-01T18:51:16.834507,1666355,1335,1874,-470,-1169,-776,-296,-63,167,-299
16118,7012,0,2023-03-01T18:51:16.839263,1666360,1335,1874,-470,-1169,-776,-296,-63,167,-299
16119,7013,0,2023-03-01T18:51:16.845020,1666366,1335,1874,-470,-1169,-776,-296,-63,167,-299
16120,7014,0,2023-03-01T18:51:16.850576,1666371,1335,1874,-470,-1169,-776,-296,-63,167,-299
16121,7015,0,2023-03-01T18:51:16.855712,1666376,1335,1874,-470,-1169,-776,-296,-63,167,-299
16122,7016,0,2023-03-01T18:51:16.861374,1666382,1335,1874,-470,-1169,-776,-296,-63,167,-299
16123,7017,0,2023-03-01T18:51:16.866342,1666386,1336,1877,-472,-1164,-774,-306,-63,167,-299
16124,7018,0,2023-03-01T18:51:16.871928,1666393,1336,1877,-472,-1164,-774,-306,-63,167,-299
16125,7019,0,2023-03-01T18:51:16.876436,1666398,1336,1877,-472,-1164,-774,-306,-63,167,-299
16126,7020,0,2023-03-01T18:51:16.882619,1666403,1336,1877,-472,-1164,-774,-306,-63,167,-299
16127,7021,0,2023-03-01T18:51:16.887491,1666408,1337,1873,-468,-1166,-768,-301,-63,167,-299
16128,7022,0,2023-03-01T18:51:16.892841,1666413,1337,1873,-468,-1166,-768,-301,-63,167,-299
16129,7023,0,2023-03-01T18:51:16.898183,1666419,1337,1873,-468,-1166,-768,-301,-63,167,-299
16130,7024,0,2023-03-01T18:51:16.903457,1666424,1337,1873,-468,-1166,-768,-301,-63,167,-299
16131,7025,0,2023-03-01T18:51:16.908227,1666428,1337,1873,-460,-1168,-766,-300,-66,166,-286
16132,7026,0,2023-03-01T18:51:16.914032,1666435,1337,1873,-460,-1168,-766,-300,-66,166,-286
16133,7027,0,2023-03-01T18:51:16.918688,1666440,1337,1873,-460,-1168,-766,-300,-66,166,-286
16134,7028,0,2023-03-01T18:51:16.924376,1666445,1340,1876,-467,-1175,-768,-297,-66,166,-286
16135,7029,0,2023-03-01T18:51:16.929809,1666450,1340,1876,-467,-1175,-768,-297,-66,166,-286
16136,7030,0,2023-03-01T18:51:16.934646,1666455,1340,1876,-467,-1175,-768,-297,-66,166,-286
16137,7031,0,2023-03-01T18:51:16.939695,1666460,1340,1876,-467,-1175,-768,-297,-66,166,-286
16138,7032,0,2023-03-01T18:51:16.944984,1666465,1333,1873,-467,-1170,-770,-301,-66,166,-286
16139,7033,0,2023-03-01T18:51:16.950722,1666471,1333,1873,-467,-1170,-770,-301,-66,166,-286
16140,7034,0,2023-03-01T18:51:16.955703,1666477,1333,1873,-467,-1170,-770,-301,-66,166,-286
16141,7035,0,2023-03-01T18:51:16.961253,1666482,1333,1873,-467,-1170,-770,-301,-66,166,-286
16142,7036,0,2023-03-01T18:51:16.966032,1666487,1336,1868,-469,-1168,-768,-304,-66,166,-286
16143,7037,0,2023-03-01T18:51:16.971791,1666492,1336,1868,-469,-1168,-768,-304,-66,166,-286
16144,7038,0,2023-03-01T18:51:16.976634,1666497,1336,1868,-469,-1168,-768,-304,-66,166,-286
16145,7039,0,2023-03-01T18:51:16.982765,1666503,1336,1868,-469,-1168,-768,-304,-66,166,-286
16146,7040,0,2023-03-01T18:51:16.987878,1666508,1336,1875,-472,-1176,-769,-307,-66,166,-286
16147,7041,0,2023-03-01T18:51:16.993567,1666514,1336,1875,-472,-1176,-769,-307,-66,166,-286
16148,7042,0,2023-03-01T18:51:16.998436,1666519,1336,1875,-472,-1176,-769,-307,-66,166,-286
16149,7043,0,2023-03-01T18:51:17.004165,1666525,1336,1875,-472,-1176,-769,-307,-66,166,-286
16150,7044,0,2023-03-01T18:51:17.009332,1666530,1334,1873,-467,-1165,-761,-300,-66,166,-286
16151,7045,0,2023-03-01T18:51:17.015163,1666536,1334,1873,-467,-1165,-761,-300,-66,166,-286
16152,7046,0,2023-03-01T18:51:17.020742,1666541,1334,1873,-467,-1165,-761,-300,-66,166,-286
16153,7047,0,2023-03-01T18:51:17.026922,1666547,1334,1875,-469,-1170,-785,-291,-57,163,-293
16154,7048,0,2023-03-01T18:51:17.032603,1666553,1334,1875,-469,-1170,-785,-291,-57,163,-293
16155,7049,0,2023-03-01T18:51:17.038202,1666558,1334,1875,-469,-1170,-785,-291,-57,163,-293
16156,7050,0,2023-03-01T18:51:17.045313,1666566,1335,1873,-462,-1165,-785,-303,-57,163,-293
16157,7051,0,2023-03-01T18:51:17.051455,1666572,1335,1873,-462,-1165,-785,-303,-57,163,-293
16158,7052,0,2023-03-01T18:51:17.056179,1666577,1335,1873,-462,-1165,-785,-303,-57,163,-293
16159,7053,0,2023-03-01T18:51:17.060935,1666582,1335,1873,-462,-1165,-785,-303,-57,163,-293
16160,7054,0,2023-03-01T18:51:17.065666,1666586,1336,1871,-465,-1163,-773,-296,-57,163,-293
16161,7055,0,2023-03-01T18:51:17.071357,1666592,1336,1871,-465,-1163,-773,-296,-57,163,-293
16162,7056,0,2023-03-01T18:51:17.076546,1666597,1336,1871,-465,-1163,-773,-296,-57,163,-293
16163,7057,0,2023-03-01T18:51:17.082580,1666604,1336,1871,-465,-1163,-773,-296,-57,163,-293
16164,7058,0,2023-03-01T18:51:17.087546,1666609,1337,1874,-472,-1172,-774,-306,-57,163,-293
16165,7059,0,2023-03-01T18:51:17.093072,1666614,1337,1874,-472,-1172,-774,-306,-57,163,-293
16166,7060,0,2023-03-01T18:51:17.097834,1666619,1337,1874,-472,-1172,-774,-306,-57,163,-293
16167,7061,0,2023-03-01T18:51:17.104224,1666625,1337,1874,-472,-1172,-774,-306,-57,163,-293
16168,7062,0,2023-03-01T18:51:17.109034,1666630,1337,1872,-471,-1171,-780,-305,-57,163,-293
16169,7063,0,2023-03-01T18:51:17.114388,1666635,1337,1872,-471,-1171,-780,-305,-57,163,-293
16170,7064,0,2023-03-01T18:51:17.119319,1666639,1337,1872,-471,-1171,-780,-305,-57,163,-293
16171,7065,0,2023-03-01T18:51:17.125180,1666646,1339,1873,-464,-1173,-777,-295,-57,163,-293
16172,7066,0,2023-03-01T18:51:17.130629,1666652,1339,1873,-464,-1173,-777,-295,-57,163,-293
16173,7067,0,2023-03-01T18:51:17.135835,1666657,1339,1873,-464,-1173,-777,-295,-57,163,-293
16174,7068,0,2023-03-01T18:51:17.141596,1666662,1339,1873,-464,-1173,-777,-295,-57,163,-293
16175,7069,0,2023-03-01T18:51:17.146308,1666667,1334,1876,-472,-1173,-776,-304,-57,163,-293
16176,7070,0,2023-03-01T18:51:17.152208,1666673,1334,1876,-472,-1173,-776,-304,-57,163,-293
16177,7071,0,2023-03-01T18:51:17.156864,1666677,1334,1876,-472,-1173,-776,-304,-57,163,-293
16178,7072,0,2023-03-01T18:51:17.162958,1666683,1334,1876,-472,-1173,-776,-304,-57,163,-293
16179,7073,0,2023-03-01T18:51:17.168631,1666690,1339,1875,-469,-1178,-783,-294,-62,166,-296
16180,7074,0,2023-03-01T18:51:17.174398,1666695,1339,1875,-469,-1178,-783,-294,-62,166,-296
16181,7075,0,2023-03-01T18:51:17.179024,1666700,1339,1875,-469,-1178,-783,-294,-62,166,-296
16182,7076,0,2023-03-01T18:51:17.185094,1666706,1339,1876,-469,-1181,-778,-295,-62,166,-296
16183,7077,0,2023-03-01T18:51:17.190881,1666711,1339,1876,-469,-1181,-778,-295,-62,166,-296
16184,7078,0,2023-03-01T18:51:17.196078,1666717,1339,1876,-469,-1181,-778,-295,-62,166,-296
16185,7079,0,2023-03-01T18:51:17.201588,1666722,1339,1876,-469,-1181,-778,-295,-62,166,-296
16186,7080,0,2023-03-01T18:51:17.207137,1666727,1334,1871,-468,-1173,-771,-296,-62,166,-296
16187,7081,0,2023-03-01T18:51:17.212759,1666734,1334,1871,-468,-1173,-771,-296,-62,166,-296
16188,7082,0,2023-03-01T18:51:17.217982,1666739,1334,1871,-468,-1173,-771,-296,-62,166,-296
16189,7083,0,2023-03-01T18:51:17.223564,1666744,1334,1871,-468,-1173,-771,-296,-62,166,-296
16190,7084,0,2023-03-01T18:51:17.228294,1666749,1331,1872,-467,-1173,-771,-297,-62,166,-296
16191,7085,0,2023-03-01T18:51:17.233651,1666754,1331,1872,-467,-1173,-771,-297,-62,166,-296
16192,7086,0,2023-03-01T18:51:17.238495,1666759,1331,1872,-467,-1173,-771,-297,-62,166,-296
16193,7087,0,2023-03-01T18:51:17.244570,1666765,1331,1872,-467,-1173,-771,-297,-62,166,-296
16194,7088,0,2023-03-01T18:51:17.249590,1666770,1335,1875,-471,-1178,-786,-301,-62,166,-296
16195,7089,0,2023-03-01T18:51:17.255017,1666776,1335,1875,-471,-1178,-786,-301,-62,166,-296
16196,7090,0,2023-03-01T18:51:17.259449,1666780,1335,1875,-471,-1178,-786,-301,-62,166,-296
16197,7091,0,2023-03-01T18:51:17.264335,1666785,1335,1875,-471,-1178,-786,-301,-62,166,-296
16198,7092,0,2023-03-01T18:51:17.269268,1666790,1336,1873,-468,-1175,-768,-296,-62,166,-296
16199,7093,0,2023-03-01T18:51:17.274933,1666795,1336,1873,-468,-1175,-768,-296,-62,166,-296
16200,7094,0,2023-03-01T18:51:17.280519,1666801,1336,1873,-468,-1175,-768,-296,-62,166,-296
16201,7095,0,2023-03-01T18:51:17.285527,1666806,1338,1871,-472,-1172,-776,-301,-60,168,-290
16202,7096,0,2023-03-01T18:51:17.291409,1666811,1338,1871,-472,-1172,-776,-301,-60,168,-290
16203,7097,0,2023-03-01T18:51:17.296359,1666817,1338,1871,-472,-1172,-776,-301,-60,168,-290
16204,7098,0,2023-03-01T18:51:17.301902,1666823,1338,1871,-472,-1172,-776,-301,-60,168,-290
16205,7099,0,2023-03-01T18:51:17.306956,1666828,1337,1874,-467,-1167,-780,-298,-60,168,-290
16206,7100,0,2023-03-01T18:51:17.312606,1666833,1337,1874,-467,-1167,-780,-298,-60,168,-290
16207,7101,0,2023-03-01T18:51:17.317608,1666838,1337,1874,-467,-1167,-780,-298,-60,168,-290
16208,7102,0,2023-03-01T18:51:17.323521,1666844,1337,1874,-467,-1167,-780,-298,-60,168,-290
16209,7103,0,2023-03-01T18:51:17.328469,1666849,1337,1871,-466,-1174,-776,-297,-60,168,-290
16210,7104,0,2023-03-01T18:51:17.333819,1666854,1337,1871,-466,-1174,-776,-297,-60,168,-290
16211,7105,0,2023-03-01T18:51:17.338557,1666860,1337,1871,-466,-1174,-776,-297,-60,168,-290
16212,7106,0,2023-03-01T18:51:17.344830,1666866,1338,1874,-469,-1182,-775,-302,-60,168,-290
16213,7107,0,2023-03-01T18:51:17.352540,1666873,1338,1874,-469,-1182,-775,-302,-60,168,-290
16214,7108,0,2023-03-01T18:51:17.357894,1666878,1338,1874,-469,-1182,-775,-302,-60,168,-290
16215,7109,0,2023-03-01T18:51:17.363814,1666885,1338,1874,-469,-1182,-775,-302,-60,168,-290
16216,7110,0,2023-03-01T18:51:17.368486,1666889,1336,1873,-469,-1181,-779,-300,-60,168,-290
16217,7111,0,2023-03-01T18:51:17.373969,1666894,1336,1873,-469,-1181,-779,-300,-60,168,-290
16218,7112,0,2023-03-01T18:51:17.378810,1666899,1336,1873,-469,-1181,-779,-300,-60,168,-290
16219,7113,0,2023-03-01T18:51:17.385149,1666906,1336,1874,-471,-1181,-781,-301,-60,168,-290
16220,7114,0,2023-03-01T18:51:17.390526,1666911,1336,1874,-471,-1181,-781,-301,-60,168,-290
16221,7115,0,2023-03-01T18:51:17.395376,1666916,1336,1874,-471,-1181,-781,-301,-60,168,-290
16222,7116,0,2023-03-01T18:51:17.400037,1666921,1336,1874,-471,-1181,-781,-301,-60,168,-290
16223,7117,0,2023-03-01T18:51:17.406344,1666927,1337,1874,-473,-1173,-785,-297,-60,168,-290
16224,7118,0,2023-03-01T18:51:17.412147,1666933,1337,1874,-473,-1173,-785,-297,-60,168,-290
16225,7119,0,2023-03-01T18:51:17.417082,1666937,1337,1874,-473,-1173,-785,-297,-60,168,-290
16226,7120,0,2023-03-01T18:51:17.423098,1666944,1337,1874,-473,-1173,-785,-297,-60,168,-290
16227,7121,0,2023-03-01T18:51:17.427623,1666949,1338,1868,-471,-1176,-788,-302,-60,170,-296
16228,7122,0,2023-03-01T18:51:17.432991,1666954,1338,1868,-471,-1176,-788,-302,-60,170,-296
16229,7123,0,2023-03-01T18:51:17.437743,1666959,1338,1868,-471,-1176,-788,-302,-60,170,-296
16230,7124,0,2023-03-01T18:51:17.443681,1666964,1338,1868,-471,-1176,-788,-302,-60,170,-296
16231,7125,0,2023-03-01T18:51:17.448589,1666969,1340,1873,-467,-1173,-782,-301,-60,170,-296
16232,7126,0,2023-03-01T18:51:17.454105,1666975,1340,1873,-467,-1173,-782,-301,-60,170,-296
16233,7127,0,2023-03-01T18:51:17.459042,1666979,1340,1873,-467,-1173,-782,-301,-60,170,-296
16234,7128,0,2023-03-01T18:51:17.466328,1666987,1336,1874,-469,-1177,-786,-304,-60,170,-296
16235,7129,0,2023-03-01T18:51:17.471995,1666993,1336,1874,-469,-1177,-786,-304,-60,170,-296
16236,7130,0,2023-03-01T18:51:17.477210,1666998,1336,1874,-469,-1177,-786,-304,-60,170,-296
16237,7131,0,2023-03-01T18:51:17.483395,1667004,1336,1874,-469,-1177,-786,-304,-60,170,-296
16238,7132,0,2023-03-01T18:51:17.487975,1667009,1335,1876,-471,-1182,-783,-297,-60,170,-296
16239,7133,0,2023-03-01T18:51:17.493482,1667014,1335,1876,-471,-1182,-783,-297,-60,170,-296
16240,7134,0,2023-03-01T18:51:17.498341,1667019,1335,1876,-471,-1182,-783,-297,-60,170,-296
16241,7135,0,2023-03-01T18:51:17.504460,1667025,1335,1876,-471,-1182,-783,-297,-60,170,-296
16242,7136,0,2023-03-01T18:51:17.509407,1667030,1336,1869,-472,-1184,-789,-296,-60,170,-296
16243,7137,0,2023-03-01T18:51:17.515385,1667036,1336,1869,-472,-1184,-789,-296,-60,170,-296
16244,7138,0,2023-03-01T18:51:17.520958,1667042,1336,1869,-472,-1184,-789,-296,-60,170,-296
16245,7139,0,2023-03-01T18:51:17.525817,1667047,1339,1875,-474,-1195,-790,-300,-60,170,-296
16246,7140,0,2023-03-01T18:51:17.531021,1667052,1339,1875,-474,-1195,-790,-300,-60,170,-296
16247,7141,0,2023-03-01T18:51:17.535888,1667056,1339,1875,-474,-1195,-790,-300,-60,170,-296
16248,7142,0,2023-03-01T18:51:17.541658,1667062,1339,1875,-474,-1195,-790,-300,-60,170,-296
16249,7143,0,2023-03-01T18:51:17.547585,1667068,1336,1874,-466,-1190,-794,-287,-66,164,-298
16250,7144,0,2023-03-01T18:51:17.553521,1667074,1336,1874,-466,-1190,-794,-287,-66,164,-298
16251,7145,0,2023-03-01T18:51:17.558459,1667079,1336,1874,-466,-1190,-794,-287,-66,164,-298
16252,7146,0,2023-03-01T18:51:17.564814,1667085,1336,1874,-466,-1190,-794,-287,-66,164,-298
16253,7147,0,2023-03-01T18:51:17.569609,1667090,1338,1873,-469,-1186,-790,-299,-66,164,-298
16254,7148,0,2023-03-01T18:51:17.577798,1667098,1338,1873,-469,-1186,-790,-299,-66,164,-298
16255,7149,0,2023-03-01T18:51:17.584674,1667104,1338,1873,-469,-1186,-790,-299,-66,164,-298
16256,7150,0,2023-03-01T18:51:17.589909,1667110,1338,1872,-467,-1191,-784,-293,-66,164,-298
16257,7151,0,2023-03-01T18:51:17.595685,1667117,1338,1872,-467,-1191,-784,-293,-66,164,-298
16258,7152,0,2023-03-01T18:51:17.600627,1667122,1338,1872,-467,-1191,-784,-293,-66,164,-298
16259,7153,0,2023-03-01T18:51:17.605548,1667127,1338,1871,-472,-1176,-779,-298,-66,164,-298
16260,7154,0,2023-03-01T18:51:17.611063,1667132,1338,1871,-472,-1176,-779,-298,-66,164,-298
16261,7155,0,2023-03-01T18:51:17.615904,1667137,1338,1871,-472,-1176,-779,-298,-66,164,-298
16262,7156,0,2023-03-01T18:51:17.621830,1667142,1338,1871,-472,-1176,-779,-298,-66,164,-298
16263,7157,0,2023-03-01T18:51:17.627170,1667147,1338,1871,-469,-1173,-788,-300,-66,164,-298
16264,7158,0,2023-03-01T18:51:17.632894,1667153,1338,1871,-469,-1173,-788,-300,-66,164,-298
16265,7159,0,2023-03-01T18:51:17.637816,1667159,1338,1871,-469,-1173,-788,-300,-66,164,-298
16266,7160,0,2023-03-01T18:51:17.643871,1667165,1338,1871,-469,-1173,-788,-300,-66,164,-298
16267,7161,0,2023-03-01T18:51:17.648617,1667170,1338,1872,-468,-1179,-788,-291,-66,164,-298
16268,7162,0,2023-03-01T18:51:17.654036,1667175,1338,1872,-468,-1179,-788,-291,-66,164,-298
16269,7163,0,2023-03-01T18:51:17.659039,1667180,1338,1872,-468,-1179,-788,-291,-66,164,-298
16270,7164,0,2023-03-01T18:51:17.664727,1667185,1338,1872,-468,-1179,-788,-291,-66,164,-298
16271,7165,0,2023-03-01T18:51:17.669352,1667190,1340,1869,-468,-1184,-786,-296,-59,163,-295
16272,7166,0,2023-03-01T18:51:17.674574,1667195,1340,1869,-468,-1184,-786,-296,-59,163,-295
16273,7167,0,2023-03-01T18:51:17.680452,1667201,1340,1869,-468,-1184,-786,-296,-59,163,-295
16274,7168,0,2023-03-01T18:51:17.685463,1667206,1337,1872,-462,-1169,-792,-292,-59,163,-295
16275,7169,0,2023-03-01T18:51:17.691282,1667212,1337,1872,-462,-1169,-792,-292,-59,163,-295
16276,7170,0,2023-03-01T18:51:17.696406,1667217,1337,1872,-462,-1169,-792,-292,-59,163,-295
16277,7171,0,2023-03-01T18:51:17.701965,1667223,1337,1872,-462,-1169,-792,-292,-59,163,-295
16278,7172,0,2023-03-01T18:51:17.707056,1667227,1335,1873,-469,-1171,-786,-302,-59,163,-295
16279,7173,0,2023-03-01T18:51:17.713366,1667233,1335,1873,-469,-1171,-786,-302,-59,163,-295
16280,7174,0,2023-03-01T18:51:17.718006,1667238,1335,1873,-469,-1171,-786,-302,-59,163,-295
16281,7175,0,2023-03-01T18:51:17.723838,1667245,1335,1873,-469,-1171,-786,-302,-59,163,-295
16282,7176,0,2023-03-01T18:51:17.728739,1667250,1341,1873,-477,-1172,-794,-306,-59,163,-295
16283,7177,0,2023-03-01T18:51:17.734374,1667255,1341,1873,-477,-1172,-794,-306,-59,163,-295
16284,7178,0,2023-03-01T18:51:17.738978,1667260,1341,1873,-477,-1172,-794,-306,-59,163,-295
16285,7179,0,2023-03-01T18:51:17.744954,1667266,1341,1873,-477,-1172,-794,-306,-59,163,-295
16286,7180,0,2023-03-01T18:51:17.749817,1667270,1339,1870,-469,-1180,-786,-304,-59,163,-295
16287,7181,0,2023-03-01T18:51:17.755205,1667276,1339,1870,-469,-1180,-786,-304,-59,163,-295
16288,7182,0,2023-03-01T18:51:17.760577,1667281,1339,1870,-469,-1180,-786,-304,-59,163,-295
16289,7183,0,2023-03-01T18:51:17.765610,1667287,1340,1871,-476,-1175,-785,-303,-59,163,-295
16290,7184,0,2023-03-01T18:51:17.771057,1667292,1340,1871,-476,-1175,-785,-303,-59,163,-295
16291,7185,0,2023-03-01T18:51:17.776092,1667297,1340,1871,-476,-1175,-785,-303,-59,163,-295
16292,7186,0,2023-03-01T18:51:17.781222,1667302,1340,1871,-476,-1175,-785,-303,-59,163,-295
16293,7187,0,2023-03-01T18:51:17.785991,1667307,1339,1872,-472,-1177,-789,-302,-59,163,-295
16294,7188,0,2023-03-01T18:51:17.791697,1667312,1339,1872,-472,-1177,-789,-302,-59,163,-295
16295,7189,0,2023-03-01T18:51:17.797332,1667317,1339,1872,-472,-1177,-789,-302,-59,163,-295
16296,7190,0,2023-03-01T18:51:17.802632,1667323,1339,1872,-472,-1177,-789,-302,-59,163,-295
16297,7191,0,2023-03-01T18:51:17.808583,1667330,1338,1873,-469,-1182,-787,-303,-57,179,-301
16298,7192,0,2023-03-01T18:51:17.813956,1667335,1338,1873,-469,-1182,-787,-303,-57,179,-301
16299,7193,0,2023-03-01T18:51:17.818889,1667340,1338,1873,-469,-1182,-787,-303,-57,179,-301
16300,7194,0,2023-03-01T18:51:17.824187,1667345,1338,1873,-469,-1182,-787,-303,-57,179,-301
16301,7195,0,2023-03-01T18:51:17.829344,1667350,1338,1872,-470,-1185,-789,-301,-57,179,-301
16302,7196,0,2023-03-01T18:51:17.834585,1667355,1338,1872,-470,-1185,-789,-301,-57,179,-301
16303,7197,0,2023-03-01T18:51:17.839954,1667361,1338,1872,-470,-1185,-789,-301,-57,179,-301
16304,7198,0,2023-03-01T18:51:17.845735,1667366,1337,1875,-467,-1190,-775,-295,-57,179,-301
16305,7199,0,2023-03-01T18:51:17.851220,1667373,1337,1875,-467,-1190,-775,-295,-57,179,-301
16306,7200,0,2023-03-01T18:51:17.856021,1667377,1337,1875,-467,-1190,-775,-295,-57,179,-301
16307,7201,0,2023-03-01T18:51:17.861526,1667383,1337,1875,-467,-1190,-775,-295,-57,179,-301
16308,7202,0,2023-03-01T18:51:17.866370,1667387,1336,1867,-476,-1170,-771,-286,-57,179,-301
16309,7203,0,2023-03-01T18:51:17.871646,1667392,1336,1867,-476,-1170,-771,-286,-57,179,-301
16310,7204,0,2023-03-01T18:51:17.876363,1667397,1336,1867,-476,-1170,-771,-286,-57,179,-301
16311,7205,0,2023-03-01T18:51:17.881835,1667402,1336,1867,-476,-1170,-771,-286,-57,179,-301
16312,7206,0,2023-03-01T18:51:17.887325,1667408,1338,1875,-474,-1179,-777,-298,-57,179,-301
16313,7207,0,2023-03-01T18:51:17.892555,1667414,1338,1875,-474,-1179,-777,-298,-57,179,-301
16314,7208,0,2023-03-01T18:51:17.898022,1667418,1338,1875,-474,-1179,-777,-298,-57,179,-301
16315,7209,0,2023-03-01T18:51:17.905216,1667426,1338,1875,-474,-1179,-777,-298,-57,179,-301
16316,7210,0,2023-03-01T18:51:17.910203,1667431,1336,1867,-476,-1176,-777,-296,-57,179,-301
16317,7211,0,2023-03-01T18:51:17.915859,1667437,1336,1867,-476,-1176,-777,-296,-57,179,-301
16318,7212,0,2023-03-01T18:51:17.921398,1667442,1336,1867,-476,-1176,-777,-296,-57,179,-301
16319,7213,0,2023-03-01T18:51:17.926604,1667446,1339,1871,-465,-1169,-760,-310,-57,171,-291
16320,7214,0,2023-03-01T18:51:17.932167,1667452,1339,1871,-465,-1169,-760,-310,-57,171,-291
16321,7215,0,2023-03-01T18:51:17.937002,1667458,1339,1871,-465,-1169,-760,-310,-57,171,-291
16322,7216,0,2023-03-01T18:51:17.942678,1667464,1339,1871,-465,-1169,-760,-310,-57,171,-291
16323,7217,0,2023-03-01T18:51:17.948024,1667469,1337,1869,-470,-1172,-764,-304,-57,171,-291
16324,7218,0,2023-03-01T18:51:17.953555,1667474,1337,1869,-470,-1172,-764,-304,-57,171,-291
16325,7219,0,2023-03-01T18:51:17.958446,1667479,1337,1869,-470,-1172,-764,-304,-57,171,-291
16326,7220,0,2023-03-01T18:51:17.963142,1667484,1337,1869,-470,-1172,-764,-304,-57,171,-291
16327,7221,0,2023-03-01T18:51:17.968023,1667488,1338,1870,-467,-1175,-760,-302,-57,171,-291
16328,7222,0,2023-03-01T18:51:17.973997,1667494,1338,1870,-467,-1175,-760,-302,-57,171,-291
16329,7223,0,2023-03-01T18:51:17.979143,1667500,1338,1870,-467,-1175,-760,-302,-57,171,-291
16330,7224,0,2023-03-01T18:51:17.984554,1667506,1338,1870,-467,-1175,-760,-302,-57,171,-291
16331,7225,0,2023-03-01T18:51:17.989436,1667510,1341,1872,-470,-1172,-764,-308,-57,171,-291
16332,7226,0,2023-03-01T18:51:17.995293,1667516,1341,1872,-470,-1172,-764,-308,-57,171,-291
16333,7227,0,2023-03-01T18:51:18.000568,1667521,1341,1872,-470,-1172,-764,-308,-57,171,-291
16334,7228,0,2023-03-01T18:51:18.005877,1667526,1340,1870,-466,-1175,-766,-299,-57,171,-291
16335,7229,0,2023-03-01T18:51:18.011592,1667532,1340,1870,-466,-1175,-766,-299,-57,171,-291
16336,7230,0,2023-03-01T18:51:18.016947,1667537,1340,1870,-466,-1175,-766,-299,-57,171,-291
16337,7231,0,2023-03-01T18:51:18.022184,1667543,1340,1870,-466,-1175,-766,-299,-57,171,-291
16338,7232,0,2023-03-01T18:51:18.026974,1667548,1337,1868,-470,-1179,-760,-304,-57,171,-291
16339,7233,0,2023-03-01T18:51:18.032270,1667553,1337,1868,-470,-1179,-760,-304,-57,171,-291
16340,7234,0,2023-03-01T18:51:18.037090,1667558,1337,1868,-470,-1179,-760,-304,-57,171,-291
16341,7235,0,2023-03-01T18:51:18.041946,1667563,1337,1868,-470,-1179,-760,-304,-57,171,-291
16342,7236,0,2023-03-01T18:51:18.046954,1667567,1341,1872,-475,-1171,-764,-307,-57,171,-291
16343,7237,0,2023-03-01T18:51:18.052486,1667573,1341,1872,-475,-1171,-764,-307,-57,171,-291
16344,7238,0,2023-03-01T18:51:18.057498,1667578,1341,1872,-475,-1171,-764,-307,-57,171,-291
16345,7239,0,2023-03-01T18:51:18.063395,1667585,1341,1872,-475,-1171,-764,-307,-57,171,-291
16346,7240,0,2023-03-01T18:51:18.068210,1667589,1338,1875,-464,-1161,-762,-302,-71,169,-297
16347,7241,0,2023-03-01T18:51:18.074502,1667595,1338,1875,-464,-1161,-762,-302,-71,169,-297
16348,7242,0,2023-03-01T18:51:18.079269,1667600,1338,1875,-464,-1161,-762,-302,-71,169,-297
16349,7243,0,2023-03-01T18:51:18.085053,1667606,1338,1875,-464,-1161,-762,-302,-71,169,-297
16350,7244,0,2023-03-01T18:51:18.090147,1667611,1340,1871,-472,-1170,-762,-302,-71,169,-297
16351,7245,0,2023-03-01T18:51:18.095950,1667616,1340,1871,-472,-1170,-762,-302,-71,169,-297
16352,7246,0,2023-03-01T18:51:18.101456,1667622,1340,1871,-472,-1170,-762,-302,-71,169,-297
16353,7247,0,2023-03-01T18:51:18.107152,1667628,1341,1870,-463,-1169,-768,-297,-71,169,-297
16354,7248,0,2023-03-01T18:51:18.112930,1667634,1341,1870,-463,-1169,-768,-297,-71,169,-297
16355,7249,0,2023-03-01T18:51:18.119651,1667640,1341,1870,-463,-1169,-768,-297,-71,169,-297
16356,7250,0,2023-03-01T18:51:18.125693,1667646,1337,1868,-471,-1179,-785,-294,-71,169,-297
16357,7251,0,2023-03-01T18:51:18.131516,1667652,1337,1868,-471,-1179,-785,-294,-71,169,-297
16358,7252,0,2023-03-01T18:51:18.136521,1667657,1337,1868,-471,-1179,-785,-294,-71,169,-297
16359,7253,0,2023-03-01T18:51:18.141859,1667662,1337,1868,-471,-1179,-785,-294,-71,169,-297
16360,7254,0,2023-03-01T18:51:18.146790,1667667,1339,1872,-474,-1186,-794,-297,-71,169,-297
16361,7255,0,2023-03-01T18:51:18.151909,1667673,1339,1872,-474,-1186,-794,-297,-71,169,-297
16362,7256,0,2023-03-01T18:51:18.157088,1667678,1339,1872,-474,-1186,-794,-297,-71,169,-297
16363,7257,0,2023-03-01T18:51:18.162200,1667683,1339,1872,-474,-1186,-794,-297,-71,169,-297
16364,7258,0,2023-03-01T18:51:18.168134,1667689,1337,1871,-471,-1184,-788,-295,-71,169,-297
16365,7259,0,2023-03-01T18:51:18.173645,1667694,1337,1871,-471,-1184,-788,-295,-71,169,-297
16366,7260,0,2023-03-01T18:51:18.178687,1667699,1337,1871,-471,-1184,-788,-295,-71,169,-297
16367,7261,0,2023-03-01T18:51:18.184719,1667705,1337,1871,-471,-1184,-788,-295,-71,169,-297
16368,7262,0,2023-03-01T18:51:18.189528,1667710,1339,1870,-467,-1187,-788,-297,-63,165,-295
16369,7263,0,2023-03-01T18:51:18.194968,1667716,1339,1870,-467,-1187,-788,-297,-63,165,-295
16370,7264,0,2023-03-01T18:51:18.200384,1667721,1339,1870,-467,-1187,-788,-297,-63,165,-295
16371,7265,0,2023-03-01T18:51:18.205080,1667726,1339,1870,-467,-1187,-788,-297,-63,165,-295
16372,7266,0,2023-03-01T18:51:18.209859,1667731,1338,1872,-468,-1189,-797,-294,-63,165,-295
16373,7267,0,2023-03-01T18:51:18.214168,1667735,1338,1872,-468,-1189,-797,-294,-63,165,-295
16374,7268,0,2023-03-01T18:51:18.218967,1667740,1338,1872,-468,-1189,-797,-294,-63,165,-295
16375,7269,0,2023-03-01T18:51:18.225015,1667746,1338,1872,-468,-1189,-797,-294,-63,165,-295
16376,7270,0,2023-03-01T18:51:18.230752,1667751,1335,1870,-469,-1179,-781,-297,-63,165,-295
16377,7271,0,2023-03-01T18:51:18.235953,1667757,1335,1870,-469,-1179,-781,-297,-63,165,-295
16378,7272,0,2023-03-01T18:51:18.241284,1667762,1335,1870,-469,-1179,-781,-297,-63,165,-295
16379,7273,0,2023-03-01T18:51:18.247355,1667768,1339,1876,-475,-1177,-771,-295,-63,165,-295
16380,7274,0,2023-03-01T18:51:18.252978,1667774,1339,1876,-475,-1177,-771,-295,-63,165,-295
16381,7275,0,2023-03-01T18:51:18.258164,1667779,1339,1876,-475,-1177,-771,-295,-63,165,-295
16382,7276,0,2023-03-01T18:51:18.264069,1667785,1339,1876,-475,-1177,-771,-295,-63,165,-295
16383,7277,0,2023-03-01T18:51:18.269139,1667790,1340,1871,-470,-1176,-782,-303,-63,165,-295
16384,7278,0,2023-03-01T18:51:18.274418,1667795,1340,1871,-470,-1176,-782,-303,-63,165,-295
16385,7279,0,2023-03-01T18:51:18.279439,1667801,1340,1871,-470,-1176,-782,-303,-63,165,-295
16386,7280,0,2023-03-01T18:51:18.285211,1667806,1340,1871,-470,-1176,-782,-303,-63,165,-295
16387,7281,0,2023-03-01T18:51:18.290234,1667811,1338,1866,-473,-1176,-785,-296,-63,165,-295
16388,7282,0,2023-03-01T18:51:18.295849,1667817,1338,1866,-473,-1176,-785,-296,-63,165,-295
16389,7283,0,2023-03-01T18:51:18.301882,1667822,1338,1866,-473,-1176,-785,-296,-63,165,-295
16390,7284,0,2023-03-01T18:51:18.307495,1667828,1338,1866,-473,-1176,-785,-296,-63,165,-295
16391,7285,0,2023-03-01T18:51:18.312247,1667833,1338,1866,-473,-1176,-785,-296,-63,165,-295
16392,7286,0,2023-03-01T18:51:18.316998,1667837,1338,1866,-473,-1176,-785,-296,-63,165,-295
16393,7287,0,2023-03-01T18:51:18.321914,1667843,1338,1866,-473,-1176,-785,-296,-63,165,-295
16394,7288,0,2023-03-01T18:51:18.326535,1667848,1342,1870,-476,-1180,-784,-297,-60,170,-296
16395,7289,0,2023-03-01T18:51:18.331718,1667853,1342,1870,-476,-1180,-784,-297,-60,170,-296
16396,7290,0,2023-03-01T18:51:18.336984,1667857,1342,1870,-476,-1180,-784,-297,-60,170,-296
16397,7291,0,2023-03-01T18:51:18.342673,1667863,1342,1870,-476,-1180,-784,-297,-60,170,-296
16398,7292,0,2023-03-01T18:51:18.347421,1667868,1342,1870,-473,-1180,-785,-299,-60,170,-296
16399,7293,0,2023-03-01T18:51:18.353044,1667873,1342,1870,-473,-1180,-785,-299,-60,170,-296
16400,7294,0,2023-03-01T18:51:18.358301,1667879,1342,1870,-473,-1180,-785,-299,-60,170,-296
16401,7295,0,2023-03-01T18:51:18.365548,1667886,1342,1870,-473,-1180,-785,-299,-60,170,-296
16402,7296,0,2023-03-01T18:51:18.370359,1667892,1341,1870,-469,-1177,-797,-295,-60,170,-296
16403,7297,0,2023-03-01T18:51:18.375819,1667897,1341,1870,-469,-1177,-797,-295,-60,170,-296
16404,7298,0,2023-03-01T18:51:18.381653,1667902,1341,1870,-469,-1177,-797,-295,-60,170,-296
16405,7299,0,2023-03-01T18:51:18.387586,1667908,1340,1868,-467,-1175,-786,-304,-60,170,-296
16406,7300,0,2023-03-01T18:51:18.393233,1667914,1340,1868,-467,-1175,-786,-304,-60,170,-296
16407,7301,0,2023-03-01T18:51:18.397875,1667918,1340,1868,-467,-1175,-786,-304,-60,170,-296
16408,7302,0,2023-03-01T18:51:18.403641,1667924,1340,1868,-467,-1175,-786,-304,-60,170,-296
16409,7303,0,2023-03-01T18:51:18.408411,1667930,1341,1868,-473,-1168,-789,-306,-60,170,-296
16410,7304,0,2023-03-01T18:51:18.413660,1667935,1341,1868,-473,-1168,-789,-306,-60,170,-296
16411,7305,0,2023-03-01T18:51:18.418487,1667939,1341,1868,-473,-1168,-789,-306,-60,170,-296
16412,7306,0,2023-03-01T18:51:18.424482,1667945,1341,1868,-473,-1168,-789,-306,-60,170,-296
16413,7307,0,2023-03-01T18:51:18.428997,1667950,1340,1872,-473,-1176,-778,-303,-60,170,-296
16414,7308,0,2023-03-01T18:51:18.434228,1667955,1340,1872,-473,-1176,-778,-303,-60,170,-296
16415,7309,0,2023-03-01T18:51:18.438967,1667960,1340,1872,-473,-1176,-778,-303,-60,170,-296
16416,7310,0,2023-03-01T18:51:18.445321,1667965,1340,1872,-473,-1176,-778,-303,-60,170,-296
16417,7311,0,2023-03-01T18:51:18.450611,1667972,1340,1869,-472,-1173,-784,-298,-65,165,-295
16418,7312,0,2023-03-01T18:51:18.456163,1667977,1340,1869,-472,-1173,-784,-298,-65,165,-295
16419,7313,0,2023-03-01T18:51:18.461488,1667982,1340,1869,-472,-1173,-784,-298,-65,165,-295
16420,7314,0,2023-03-01T18:51:18.467272,1667988,1344,1876,-469,-1177,-779,-305,-65,165,-295
16421,7315,0,2023-03-01T18:51:18.472875,1667993,1344,1876,-469,-1177,-779,-305,-65,165,-295
16422,7316,0,2023-03-01T18:51:18.477933,1667998,1344,1876,-469,-1177,-779,-305,-65,165,-295
16423,7317,0,2023-03-01T18:51:18.483971,1668004,1344,1876,-469,-1177,-779,-305,-65,165,-295
16424,7318,0,2023-03-01T18:51:18.489113,1668009,1339,1869,-469,-1191,-786,-293,-65,165,-295
16425,7319,0,2023-03-01T18:51:18.494587,1668016,1339,1869,-469,-1191,-786,-293,-65,165,-295
16426,7320,0,2023-03-01T18:51:18.499446,1668020,1339,1869,-469,-1191,-786,-293,-65,165,-295
16427,7321,0,2023-03-01T18:51:18.504181,1668025,1339,1869,-469,-1191,-786,-293,-65,165,-295
16428,7322,0,2023-03-01T18:51:18.509011,1668030,1339,1871,-475,-1186,-790,-306,-65,165,-295
16429,7323,0,2023-03-01T18:51:18.514016,1668035,1339,1871,-475,-1186,-790,-306,-65,165,-295
16430,7324,0,2023-03-01T18:51:18.518992,1668040,1339,1871,-475,-1186,-790,-306,-65,165,-295
16431,7325,0,2023-03-01T18:51:18.525147,1668046,1339,1871,-475,-1186,-790,-306,-65,165,-295
16432,7326,0,2023-03-01T18:51:18.529820,1668050,1342,1870,-471,-1187,-798,-295,-65,165,-295
16433,7327,0,2023-03-01T18:51:18.535430,1668057,1342,1870,-471,-1187,-798,-295,-65,165,-295
16434,7328,0,2023-03-01T18:51:18.540632,1668062,1342,1870,-471,-1187,-798,-295,-65,165,-295
16435,7329,0,2023-03-01T18:51:18.546299,1668067,1342,1870,-471,-1187,-798,-295,-65,165,-295
16436,7330,0,2023-03-01T18:51:18.551214,1668072,1341,1868,-465,-1191,-789,-299,-65,165,-295
16437,7331,0,2023-03-01T18:51:18.557217,1668078,1341,1868,-465,-1191,-789,-299,-65,165,-295
16438,7332,0,2023-03-01T18:51:18.562452,1668083,1341,1868,-465,-1191,-789,-299,-65,165,-295
16439,7333,0,2023-03-01T18:51:18.567222,1668088,1343,1872,-472,-1191,-795,-298,-61,167,-293
16440,7334,0,2023-03-01T18:51:18.572562,1668093,1343,1872,-472,-1191,-795,-298,-61,167,-293
16441,7335,0,2023-03-01T18:51:18.577252,1668099,1343,1872,-472,-1191,-795,-298,-61,167,-293
16442,7336,0,2023-03-01T18:51:18.582664,1668104,1343,1872,-472,-1191,-795,-298,-61,167,-293
16443,7337,0,2023-03-01T18:51:18.588576,1668110,1339,1869,-469,-1188,-792,-302,-61,167,-293
16444,7338,0,2023-03-01T18:51:18.594350,1668115,1339,1869,-469,-1188,-792,-302,-61,167,-293
16445,7339,0,2023-03-01T18:51:18.599179,1668120,1339,1869,-469,-1188,-792,-302,-61,167,-293
16446,7340,0,2023-03-01T18:51:18.605276,1668126,1339,1869,-469,-1188,-792,-302,-61,167,-293
16447,7341,0,2023-03-01T18:51:18.610056,1668131,1342,1868,-470,-1178,-783,-304,-61,167,-293
16448,7342,0,2023-03-01T18:51:18.616221,1668136,1342,1868,-470,-1178,-783,-304,-61,167,-293
16449,7343,0,2023-03-01T18:51:18.622219,1668143,1342,1868,-470,-1178,-783,-304,-61,167,-293
16450,7344,0,2023-03-01T18:51:18.627541,1668149,1343,1871,-471,-1185,-779,-310,-61,167,-293
16451,7345,0,2023-03-01T18:51:18.632885,1668154,1343,1871,-471,-1185,-779,-310,-61,167,-293
16452,7346,0,2023-03-01T18:51:18.637659,1668158,1343,1871,-471,-1185,-779,-310,-61,167,-293
16453,7347,0,2023-03-01T18:51:18.643561,1668164,1343,1871,-471,-1185,-779,-310,-61,167,-293
16454,7348,0,2023-03-01T18:51:18.648768,1668169,1341,1867,-469,-1182,-783,-310,-61,167,-293
16455,7349,0,2023-03-01T18:51:18.654119,1668175,1341,1867,-469,-1182,-783,-310,-61,167,-293
16456,7350,0,2023-03-01T18:51:18.659366,1668179,1341,1867,-469,-1182,-783,-310,-61,167,-293
16457,7351,0,2023-03-01T18:51:18.665702,1668187,1341,1867,-469,-1182,-783,-310,-61,167,-293
16458,7352,0,2023-03-01T18:51:18.670695,1668192,1341,1874,-479,-1185,-786,-295,-61,167,-293
16459,7353,0,2023-03-01T18:51:18.676346,1668197,1341,1874,-479,-1185,-786,-295,-61,167,-293
16460,7354,0,2023-03-01T18:51:18.682113,1668203,1341,1874,-479,-1185,-786,-295,-61,167,-293
16461,7355,0,2023-03-01T18:51:18.687569,1668208,1341,1871,-474,-1185,-798,-299,-61,167,-293
16462,7356,0,2023-03-01T18:51:18.693319,1668214,1341,1871,-474,-1185,-798,-299,-61,167,-293
16463,7357,0,2023-03-01T18:51:18.698560,1668219,1341,1871,-474,-1185,-798,-299,-61,167,-293
16464,7358,0,2023-03-01T18:51:18.704116,1668225,1341,1871,-474,-1185,-798,-299,-61,167,-293
16465,7359,0,2023-03-01T18:51:18.709025,1668230,1342,1872,-473,-1190,-788,-299,-60,164,-296
16466,7360,0,2023-03-01T18:51:18.714601,1668235,1342,1872,-473,-1190,-788,-299,-60,164,-296
16467,7361,0,2023-03-01T18:51:18.719504,1668240,1342,1872,-473,-1190,-788,-299,-60,164,-296
16468,7362,0,2023-03-01T18:51:18.725596,1668246,1342,1872,-473,-1190,-788,-299,-60,164,-296
16469,7363,0,2023-03-01T18:51:18.730376,1668251,1343,1875,-472,-1191,-789,-301,-60,164,-296
16470,7364,0,2023-03-01T18:51:18.735731,1668256,1343,1875,-472,-1191,-789,-301,-60,164,-296
16471,7365,0,2023-03-01T18:51:18.741096,1668261,1343,1875,-472,-1191,-789,-301,-60,164,-296
16472,7366,0,2023-03-01T18:51:18.746635,1668268,1343,1869,-465,-1186,-792,-302,-60,164,-296
16473,7367,0,2023-03-01T18:51:18.752145,1668273,1343,1869,-465,-1186,-792,-302,-60,164,-296
16474,7368,0,2023-03-01T18:51:18.756947,1668278,1343,1869,-465,-1186,-792,-302,-60,164,-296
16475,7369,0,2023-03-01T18:51:18.762509,1668283,1343,1869,-465,-1186,-792,-302,-60,164,-296
16476,7370,0,2023-03-01T18:51:18.768079,1668288,1337,1870,-477,-1184,-787,-297,-60,164,-296
16477,7371,0,2023-03-01T18:51:18.774158,1668295,1337,1870,-477,-1184,-787,-297,-60,164,-296
16478,7372,0,2023-03-01T18:51:18.778893,1668299,1337,1870,-477,-1184,-787,-297,-60,164,-296
16479,7373,0,2023-03-01T18:51:18.784988,1668305,1337,1870,-477,-1184,-787,-297,-60,164,-296
16480,7374,0,2023-03-01T18:51:18.789762,1668311,1342,1876,-473,-1184,-787,-303,-60,164,-296
16481,7375,0,2023-03-01T18:51:18.796108,1668317,1342,1876,-473,-1184,-787,-303,-60,164,-296
16482,7376,0,2023-03-01T18:51:18.801251,1668322,1342,1876,-473,-1184,-787,-303,-60,164,-296
16483,7377,0,2023-03-01T18:51:18.806140,1668327,1342,1876,-473,-1184,-787,-303,-60,164,-296
16484,7378,0,2023-03-01T18:51:18.811310,1668332,1344,1868,-473,-1185,-788,-297,-60,164,-296
16485,7379,0,2023-03-01T18:51:18.817037,1668338,1344,1868,-473,-1185,-788,-297,-60,164,-296
16486,7380,0,2023-03-01T18:51:18.822264,1668343,1344,1868,-473,-1185,-788,-297,-60,164,-296
16487,7381,0,2023-03-01T18:51:18.827246,1668347,1340,1866,-474,-1188,-801,-301,-52,160,-288
16488,7382,0,2023-03-01T18:51:18.832865,1668354,1340,1866,-474,-1188,-801,-301,-52,160,-288
16489,7383,0,2023-03-01T18:51:18.837542,1668359,1340,1866,-474,-1188,-801,-301,-52,160,-288
16490,7384,0,2023-03-01T18:51:18.842774,1668364,1340,1866,-474,-1188,-801,-301,-52,160,-288
16491,7385,0,2023-03-01T18:51:18.848000,1668369,1339,1872,-476,-1193,-801,-299,-52,160,-288
16492,7386,0,2023-03-01T18:51:18.853461,1668374,1339,1872,-476,-1193,-801,-299,-52,160,-288
16493,7387,0,2023-03-01T18:51:18.858517,1668379,1339,1872,-476,-1193,-801,-299,-52,160,-288
16494,7388,0,2023-03-01T18:51:18.864460,1668385,1339,1872,-476,-1193,-801,-299,-52,160,-288
16495,7389,0,2023-03-01T18:51:18.869515,1668390,1343,1872,-473,-1181,-795,-301,-52,160,-288
16496,7390,0,2023-03-01T18:51:18.874722,1668396,1343,1872,-473,-1181,-795,-301,-52,160,-288
16497,7391,0,2023-03-01T18:51:18.879671,1668401,1343,1872,-473,-1181,-795,-301,-52,160,-288
16498,7392,0,2023-03-01T18:51:18.886292,1668407,1343,1872,-473,-1181,-795,-301,-52,160,-288
16499,7393,0,2023-03-01T18:51:18.891466,1668412,1339,1872,-476,-1183,-791,-302,-52,160,-288
16500,7394,0,2023-03-01T18:51:18.897193,1668418,1339,1872,-476,-1183,-791,-302,-52,160,-288
16501,7395,0,2023-03-01T18:51:18.902564,1668423,1339,1872,-476,-1183,-791,-302,-52,160,-288
16502,7396,0,2023-03-01T18:51:18.908447,1668428,1340,1866,-470,-1175,-785,-304,-52,160,-288
16503,7397,0,2023-03-01T18:51:18.913932,1668434,1340,1866,-470,-1175,-785,-304,-52,160,-288
16504,7398,0,2023-03-01T18:51:18.918784,1668440,1340,1866,-470,-1175,-785,-304,-52,160,-288
16505,7399,0,2023-03-01T18:51:18.925016,1668446,1340,1866,-470,-1175,-785,-304,-52,160,-288
16506,7400,0,2023-03-01T18:51:18.929631,1668451,1342,1872,-472,-1173,-778,-300,-52,160,-288
16507,7401,0,2023-03-01T18:51:18.935077,1668456,1342,1872,-472,-1173,-778,-300,-52,160,-288
16508,7402,0,2023-03-01T18:51:18.940724,1668461,1342,1872,-472,-1173,-778,-300,-52,160,-288
16509,7403,0,2023-03-01T18:51:18.946298,1668467,1342,1872,-472,-1173,-778,-300,-52,160,-288
16510,7404,0,2023-03-01T18:51:18.951506,1668472,1345,1868,-468,-1165,-763,-305,-52,160,-288
16511,7405,0,2023-03-01T18:51:18.957152,1668478,1345,1868,-468,-1165,-763,-305,-52,160,-288
16512,7406,0,2023-03-01T18:51:18.962631,1668484,1345,1868,-468,-1165,-763,-305,-52,160,-288
16513,7407,0,2023-03-01T18:51:18.967399,1668488,1340,1870,-468,-1156,-761,-307,-61,169,-293
16514,7408,0,2023-03-01T18:51:18.973546,1668494,1340,1870,-468,-1156,-761,-307,-61,169,-293
16515,7409,0,2023-03-01T18:51:18.978201,1668499,1340,1870,-468,-1156,-761,-307,-61,169,-293
16516,7410,0,2023-03-01T18:51:18.985082,1668505,1340,1870,-468,-1156,-761,-307,-61,169,-293
16517,7411,0,2023-03-01T18:51:18.991520,1668512,1342,1873,-474,-1163,-766,-301,-61,169,-293
16518,7412,0,2023-03-01T18:51:18.997182,1668517,1342,1873,-474,-1163,-766,-301,-61,169,-293
16519,7413,0,2023-03-01T18:51:19.002607,1668524,1342,1873,-474,-1163,-766,-301,-61,169,-293
16520,7414,0,2023-03-01T18:51:19.007399,1668529,1344,1873,-468,-1164,-757,-303,-61,169,-293
16521,7415,0,2023-03-01T18:51:19.012634,1668534,1344,1873,-468,-1164,-757,-303,-61,169,-293
16522,7416,0,2023-03-01T18:51:19.017475,1668538,1344,1873,-468,-1164,-757,-303,-61,169,-293
16523,7417,0,2023-03-01T18:51:19.022694,1668544,1344,1873,-468,-1164,-757,-303,-61,169,-293
16524,7418,0,2023-03-01T18:51:19.027681,1668548,1338,1868,-468,-1164,-779,-294,-61,169,-293
16525,7419,0,2023-03-01T18:51:19.033336,1668554,1338,1868,-468,-1164,-779,-294,-61,169,-293
16526,7420,0,2023-03-01T18:51:19.038002,1668559,1338,1868,-468,-1164,-779,-294,-61,169,-293
16527,7421,0,2023-03-01T18:51:19.044064,1668564,1338,1868,-468,-1164,-779,-294,-61,169,-293
16528,7422,0,2023-03-01T18:51:19.049370,1668570,1341,1870,-470,-1166,-777,-299,-61,169,-293
16529,7423,0,2023-03-01T18:51:19.055151,1668576,1341,1870,-470,-1166,-777,-299,-61,169,-293
16530,7424,0,2023-03-01T18:51:19.061087,1668582,1341,1870,-470,-1166,-777,-299,-61,169,-293
16531,7425,0,2023-03-01T18:51:19.066290,1668587,1341,1870,-470,-1166,-777,-299,-61,169,-293
16532,7426,0,2023-03-01T18:51:19.070775,1668592,1341,1863,-472,-1168,-780,-296,-61,169,-293
16533,7427,0,2023-03-01T18:51:19.076072,1668597,1341,1863,-472,-1168,-780,-296,-61,169,-293
16534,7428,0,2023-03-01T18:51:19.081644,1668602,1341,1863,-472,-1168,-780,-296,-61,169,-293
16535,7429,0,2023-03-01T18:51:19.087987,1668608,1342,1872,-468,-1171,-767,-300,-60,168,-296
16536,7430,0,2023-03-01T18:51:19.093743,1668615,1342,1872,-468,-1171,-767,-300,-60,168,-296
16537,7431,0,2023-03-01T18:51:19.099567,1668620,1342,1872,-468,-1171,-767,-300,-60,168,-296
16538,7432,0,2023-03-01T18:51:19.105444,1668626,1342,1872,-468,-1171,-767,-300,-60,168,-296
16539,7433,0,2023-03-01T18:51:19.111018,1668631,1338,1866,-463,-1167,-764,-297,-60,168,-296
16540,7434,0,2023-03-01T18:51:19.116625,1668637,1338,1866,-463,-1167,-764,-297,-60,168,-296
16541,7435,0,2023-03-01T18:51:19.122664,1668643,1338,1866,-463,-1167,-764,-297,-60,168,-296
16542,7436,0,2023-03-01T18:51:19.127803,1668648,1343,1867,-472,-1168,-764,-308,-60,168,-296
16543,7437,0,2023-03-01T18:51:19.133541,1668654,1343,1867,-472,-1168,-764,-308,-60,168,-296
16544,7438,0,2023-03-01T18:51:19.138675,1668659,1343,1867,-472,-1168,-764,-308,-60,168,-296
16545,7439,0,2023-03-01T18:51:19.144798,1668666,1343,1867,-472,-1168,-764,-308,-60,168,-296
16546,7440,0,2023-03-01T18:51:19.149692,1668670,1341,1871,-472,-1162,-764,-304,-60,168,-296
16547,7441,0,2023-03-01T18:51:19.155504,1668676,1341,1871,-472,-1162,-764,-304,-60,168,-296
16548,7442,0,2023-03-01T18:51:19.162019,1668682,1341,1871,-472,-1162,-764,-304,-60,168,-296
16549,7443,0,2023-03-01T18:51:19.167335,1668687,1338,1868,-470,-1159,-759,-304,-60,168,-296
16550,7444,0,2023-03-01T18:51:19.173170,1668694,1338,1868,-470,-1159,-759,-304,-60,168,-296
16551,7445,0,2023-03-01T18:51:19.178090,1668699,1338,1868,-470,-1159,-759,-304,-60,168,-296
16552,7446,0,2023-03-01T18:51:19.184053,1668705,1338,1868,-470,-1159,-759,-304,-60,168,-296
16553,7447,0,2023-03-01T18:51:19.189393,1668710,1344,1868,-473,-1174,-766,-308,-60,168,-296
16554,7448,0,2023-03-01T18:51:19.194963,1668715,1344,1868,-473,-1174,-766,-308,-60,168,-296
16555,7449,0,2023-03-01T18:51:19.199895,1668720,1344,1868,-473,-1174,-766,-308,-60,168,-296
16556,7450,0,2023-03-01T18:51:19.205886,1668726,1344,1868,-473,-1174,-766,-308,-60,168,-296
16557,7451,0,2023-03-01T18:51:19.211130,1668731,1345,1865,-476,-1173,-768,-294,-60,168,-296
16558,7452,0,2023-03-01T18:51:19.216588,1668738,1345,1865,-476,-1173,-768,-294,-60,168,-296
16559,7453,0,2023-03-01T18:51:19.222188,1668743,1345,1865,-476,-1173,-768,-294,-60,168,-296
16560,7454,0,2023-03-01T18:51:19.227906,1668749,1344,1867,-469,-1179,-777,-301,-55,159,-299
16561,7455,0,2023-03-01T18:51:19.233631,1668754,1344,1867,-469,-1179,-777,-301,-55,159,-299
16562,7456,0,2023-03-01T18:51:19.238436,1668759,1344,1867,-469,-1179,-777,-301,-55,159,-299
16563,7457,0,2023-03-01T18:51:19.244659,1668765,1344,1867,-469,-1179,-777,-301,-55,159,-299
16564,7458,0,2023-03-01T18:51:19.249477,1668770,1343,1868,-478,-1182,-787,-298,-55,159,-299
16565,7459,0,2023-03-01T18:51:19.255131,1668775,1343,1868,-478,-1182,-787,-298,-55,159,-299
16566,7460,0,2023-03-01T18:51:19.260099,1668781,1343,1868,-478,-1182,-787,-298,-55,159,-299
16567,7461,0,2023-03-01T18:51:19.265602,1668787,1343,1868,-478,-1182,-787,-298,-55,159,-299
16568,7462,0,2023-03-01T18:51:19.270392,1668791,1340,1867,-476,-1188,-779,-299,-55,159,-299
16569,7463,0,2023-03-01T18:51:19.276406,1668797,1340,1867,-476,-1188,-779,-299,-55,159,-299
16570,7464,0,2023-03-01T18:51:19.282181,1668803,1340,1867,-476,-1188,-779,-299,-55,159,-299
16571,7465,0,2023-03-01T18:51:19.287355,1668808,1342,1868,-474,-1184,-784,-308,-55,159,-299
16572,7466,0,2023-03-01T18:51:19.292720,1668813,1342,1868,-474,-1184,-784,-308,-55,159,-299
16573,7467,0,2023-03-01T18:51:19.297382,1668818,1342,1868,-474,-1184,-784,-308,-55,159,-299
16574,7468,0,2023-03-01T18:51:19.302631,1668824,1342,1868,-474,-1184,-784,-308,-55,159,-299
16575,7469,0,2023-03-01T18:51:19.308167,1668829,1342,1867,-471,-1189,-792,-305,-55,159,-299
16576,7470,0,2023-03-01T18:51:19.314186,1668835,1342,1867,-471,-1189,-792,-305,-55,159,-299
16577,7471,0,2023-03-01T18:51:19.319280,1668840,1342,1867,-471,-1189,-792,-305,-55,159,-299
16578,7472,0,2023-03-01T18:51:19.324695,1668845,1342,1867,-471,-1189,-792,-305,-55,159,-299
16579,7473,0,2023-03-01T18:51:19.329541,1668850,1343,1862,-471,-1186,-789,-301,-55,159,-299
16580,7474,0,2023-03-01T18:51:19.335298,1668856,1343,1862,-471,-1186,-789,-301,-55,159,-299
16581,7475,0,2023-03-01T18:51:19.340826,1668861,1343,1862,-471,-1186,-789,-301,-55,159,-299
16582,7476,0,2023-03-01T18:51:19.345747,1668867,1343,1862,-471,-1186,-789,-301,-55,159,-299
16583,7477,0,2023-03-01T18:51:19.350848,1668872,1342,1871,-468,-1192,-792,-304,-65,169,-299
16584,7478,0,2023-03-01T18:51:19.356350,1668877,1342,1871,-468,-1192,-792,-304,-65,169,-299
16585,7479,0,2023-03-01T18:51:19.361920,1668883,1342,1871,-468,-1192,-792,-304,-65,169,-299
16586,7480,0,2023-03-01T18:51:19.367615,1668888,1342,1865,-474,-1179,-788,-308,-65,169,-299
16587,7481,0,2023-03-01T18:51:19.373227,1668894,1342,1865,-474,-1179,-788,-308,-65,169,-299
16588,7482,0,2023-03-01T18:51:19.377867,1668899,1342,1865,-474,-1179,-788,-308,-65,169,-299
16589,7483,0,2023-03-01T18:51:19.383132,1668904,1342,1865,-474,-1179,-788,-308,-65,169,-299
16590,7484,0,2023-03-01T18:51:19.387551,1668909,1343,1865,-478,-1185,-788,-303,-65,169,-299
16591,7485,0,2023-03-01T18:51:19.393428,1668914,1343,1865,-478,-1185,-788,-303,-65,169,-299
16592,7486,0,2023-03-01T18:51:19.398178,1668919,1343,1865,-478,-1185,-788,-303,-65,169,-299
16593,7487,0,2023-03-01T18:51:19.403852,1668925,1343,1865,-478,-1185,-788,-303,-65,169,-299
16594,7488,0,2023-03-01T18:51:19.409063,1668930,1342,1869,-469,-1196,-787,-303,-65,169,-299
16595,7489,0,2023-03-01T18:51:19.414337,1668935,1342,1869,-469,-1196,-787,-303,-65,169,-299
16596,7490,0,2023-03-01T18:51:19.419092,1668940,1342,1869,-469,-1196,-787,-303,-65,169,-299
16597,7491,0,2023-03-01T18:51:19.425468,1668945,1342,1869,-469,-1196,-787,-303,-65,169,-299
16598,7492,0,2023-03-01T18:51:19.430460,1668952,1343,1866,-469,-1184,-795,-306,-65,169,-299
16599,7493,0,2023-03-01T18:51:19.435879,1668957,1343,1866,-469,-1184,-795,-306,-65,169,-299
16600,7494,0,2023-03-01T18:51:19.441111,1668962,1343,1866,-469,-1184,-795,-306,-65,169,-299
16601,7495,0,2023-03-01T18:51:19.446728,1668968,1343,1866,-469,-1184,-795,-306,-65,169,-299
16602,7496,0,2023-03-01T18:51:19.451660,1668972,1343,1866,-469,-1184,-795,-306,-65,169,-299
16603,7497,0,2023-03-01T18:51:19.456279,1668977,1343,1866,-469,-1184,-795,-306,-65,169,-299
16604,7498,0,2023-03-01T18:51:19.461741,1668982,1343,1866,-469,-1184,-795,-306,-65,169,-299
16605,7499,0,2023-03-01T18:51:19.466517,1668987,1343,1866,-469,-1184,-795,-306,-65,169,-299
16606,7500,0,2023-03-01T18:51:19.471619,1668993,1344,1866,-472,-1180,-796,-300,-64,170,-292
16607,7501,0,2023-03-01T18:51:19.477521,1668999,1344,1866,-472,-1180,-796,-300,-64,170,-292
16608,7502,0,2023-03-01T18:51:19.483613,1669004,1344,1866,-472,-1180,-796,-300,-64,170,-292
16609,7503,0,2023-03-01T18:51:19.488352,1669009,1344,1869,-462,-1176,-778,-307,-64,170,-292
16610,7504,0,2023-03-01T18:51:19.493968,1669015,1344,1869,-462,-1176,-778,-307,-64,170,-292
16611,7505,0,2023-03-01T18:51:19.499226,1669020,1344,1869,-462,-1176,-778,-307,-64,170,-292
16612,7506,0,2023-03-01T18:51:19.505083,1669026,1344,1869,-462,-1176,-778,-307,-64,170,-292
16613,7507,0,2023-03-01T18:51:19.510148,1669031,1345,1874,-477,-1179,-782,-308,-64,170,-292
16614,7508,0,2023-03-01T18:51:19.515621,1669037,1345,1874,-477,-1179,-782,-308,-64,170,-292
16615,7509,0,2023-03-01T18:51:19.521779,1669043,1345,1874,-477,-1179,-782,-308,-64,170,-292
16616,7510,0,2023-03-01T18:51:19.526641,1669048,1345,1874,-477,-1179,-782,-308,-64,170,-292
16617,7511,0,2023-03-01T18:51:19.531601,1669053,1345,1865,-473,-1183,-783,-298,-64,170,-292
16618,7512,0,2023-03-01T18:51:19.537217,1669058,1345,1865,-473,-1183,-783,-298,-64,170,-292
16619,7513,0,2023-03-01T18:51:19.542879,1669064,1345,1865,-473,-1183,-783,-298,-64,170,-292
16620,7514,0,2023-03-01T18:51:19.548178,1669069,1344,1866,-468,-1185,-791,-301,-64,170,-292
16621,7515,0,2023-03-01T18:51:19.554607,1669075,1344,1866,-468,-1185,-791,-301,-64,170,-292
16622,7516,0,2023-03-01T18:51:19.559449,1669081,1344,1866,-468,-1185,-791,-301,-64,170,-292
16623,7517,0,2023-03-01T18:51:19.565409,1669087,1344,1866,-468,-1185,-791,-301,-64,170,-292
16624,7518,0,2023-03-01T18:51:19.570264,1669091,1346,1871,-476,-1185,-783,-304,-64,170,-292
16625,7519,0,2023-03-01T18:51:19.575419,1669096,1346,1871,-476,-1185,-783,-304,-64,170,-292
16626,7520,0,2023-03-01T18:51:19.580696,1669102,1346,1871,-476,-1185,-783,-304,-64,170,-292
16627,7521,0,2023-03-01T18:51:19.585661,1669106,1346,1871,-476,-1185,-783,-304,-64,170,-292
16628,7522,0,2023-03-01T18:51:19.590773,1669111,1346,1865,-469,-1179,-784,-299,-64,170,-292
16629,7523,0,2023-03-01T18:51:19.596032,1669116,1346,1865,-469,-1179,-784,-299,-64,170,-292
16630,7524,0,2023-03-01T18:51:19.601643,1669123,1346,1865,-469,-1179,-784,-299,-64,170,-292
16631,7525,0,2023-03-01T18:51:19.607322,1669128,1346,1865,-469,-1179,-784,-299,-64,170,-292
16632,7526,0,2023-03-01T18:51:19.612625,1669133,1342,1871,-471,-1177,-783,-304,-61,171,-295
16633,7527,0,2023-03-01T18:51:19.618371,1669139,1342,1871,-471,-1177,-783,-304,-61,171,-295
16634,7528,0,2023-03-01T18:51:19.624057,1669145,1342,1871,-471,-1177,-783,-304,-61,171,-295
16635,7529,0,2023-03-01T18:51:19.629051,1669150,1341,1865,-475,-1186,-788,-293,-61,171,-295
16636,7530,0,2023-03-01T18:51:19.634733,1669155,1341,1865,-475,-1186,-788,-293,-61,171,-295
16637,7531,0,2023-03-01T18:51:19.640136,1669160,1341,1865,-475,-1186,-788,-293,-61,171,-295
16638,7532,0,2023-03-01T18:51:19.646211,1669167,1341,1865,-475,-1186,-788,-293,-61,171,-295
16639,7533,0,2023-03-01T18:51:19.652174,1669173,1346,1865,-469,-1182,-780,-299,-61,171,-295
16640,7534,0,2023-03-01T18:51:19.657586,1669178,1346,1865,-469,-1182,-780,-299,-61,171,-295
16641,7535,0,2023-03-01T18:51:19.662915,1669184,1346,1865,-469,-1182,-780,-299,-61,171,-295
16642,7536,0,2023-03-01T18:51:19.668485,1669189,1340,1866,-474,-1175,-785,-302,-61,171,-295
16643,7537,0,2023-03-01T18:51:19.674171,1669195,1340,1866,-474,-1175,-785,-302,-61,171,-295
16644,7538,0,2023-03-01T18:51:19.678932,1669200,1340,1866,-474,-1175,-785,-302,-61,171,-295
16645,7539,0,2023-03-01T18:51:19.684643,1669206,1340,1866,-474,-1175,-785,-302,-61,171,-295
16646,7540,0,2023-03-01T18:51:19.689475,1669211,1345,1871,-471,-1177,-790,-298,-61,171,-295
16647,7541,0,2023-03-01T18:51:19.695164,1669216,1345,1871,-471,-1177,-790,-298,-61,171,-295
16648,7542,0,2023-03-01T18:51:19.700406,1669221,1345,1871,-471,-1177,-790,-298,-61,171,-295
16649,7543,0,2023-03-01T18:51:19.706636,1669227,1345,1871,-471,-1177,-790,-298,-61,171,-295
16650,7544,0,2023-03-01T18:51:19.711789,1669232,1342,1867,-481,-1181,-807,-299,-61,171,-295
16651,7545,0,2023-03-01T18:51:19.717434,1669237,1342,1867,-481,-1181,-807,-299,-61,171,-295
16652,7546,0,2023-03-01T18:51:19.722935,1669243,1342,1867,-481,-1181,-807,-299,-61,171,-295
16653,7547,0,2023-03-01T18:51:19.728328,1669250,1344,1870,-469,-1189,-792,-299,-62,170,-290
16654,7548,0,2023-03-01T18:51:19.733734,1669255,1344,1870,-469,-1189,-792,-299,-62,170,-290
16655,7549,0,2023-03-01T18:51:19.738867,1669260,1344,1870,-469,-1189,-792,-299,-62,170,-290
16656,7550,0,2023-03-01T18:51:19.744933,1669266,1344,1870,-469,-1189,-792,-299,-62,170,-290
16657,7551,0,2023-03-01T18:51:19.749966,1669271,1343,1869,-466,-1186,-799,-299,-62,170,-290
16658,7552,0,2023-03-01T18:51:19.755444,1669276,1343,1869,-466,-1186,-799,-299,-62,170,-290
16659,7553,0,2023-03-01T18:51:19.761164,1669282,1343,1869,-466,-1186,-799,-299,-62,170,-290
16660,7554,0,2023-03-01T18:51:19.766352,1669287,1343,1869,-466,-1186,-799,-299,-62,170,-290
16661,7555,0,2023-03-01T18:51:19.771039,1669292,1347,1871,-475,-1190,-799,-298,-62,170,-290
16662,7556,0,2023-03-01T18:51:19.776414,1669297,1347,1871,-475,-1190,-799,-298,-62,170,-290
16663,7557,0,2023-03-01T18:51:19.782221,1669303,1347,1871,-475,-1190,-799,-298,-62,170,-290
16664,7558,0,2023-03-01T18:51:19.787053,1669308,1347,1871,-475,-1190,-799,-298,-62,170,-290
16665,7559,0,2023-03-01T18:51:19.792028,1669313,1345,1865,-476,-1183,-796,-295,-62,170,-290
16666,7560,0,2023-03-01T18:51:19.797424,1669318,1345,1865,-476,-1183,-796,-295,-62,170,-290
16667,7561,0,2023-03-01T18:51:19.803083,1669323,1345,1865,-476,-1183,-796,-295,-62,170,-290
16668,7562,0,2023-03-01T18:51:19.807897,1669328,1344,1869,-473,-1179,-779,-305,-62,170,-290
16669,7563,0,2023-03-01T18:51:19.813158,1669335,1344,1869,-473,-1179,-779,-305,-62,170,-290
16670,7564,0,2023-03-01T18:51:19.818079,1669339,1344,1869,-473,-1179,-779,-305,-62,170,-290
16671,7565,0,2023-03-01T18:51:19.823148,1669344,1344,1869,-473,-1179,-779,-305,-62,170,-290
16672,7566,0,2023-03-01T18:51:19.828777,1669350,1344,1869,-479,-1185,-776,-302,-62,170,-290
16673,7567,0,2023-03-01T18:51:19.834110,1669355,1344,1869,-479,-1185,-776,-302,-62,170,-290
16674,7568,0,2023-03-01T18:51:19.839022,1669360,1344,1869,-479,-1185,-776,-302,-62,170,-290
16675,7569,0,2023-03-01T18:51:19.844751,1669365,1344,1869,-479,-1185,-776,-302,-62,170,-290
16676,7570,0,2023-03-01T18:51:19.849658,1669370,1344,1868,-471,-1192,-791,-302,-62,170,-290
16677,7571,0,2023-03-01T18:51:19.854660,1669376,1344,1868,-471,-1192,-791,-302,-62,170,-290
16678,7572,0,2023-03-01T18:51:19.859332,1669381,1344,1868,-471,-1192,-791,-302,-62,170,-290
16679,7573,0,2023-03-01T18:51:19.863706,1669385,1344,1868,-471,-1192,-791,-302,-62,170,-290
16680,7574,0,2023-03-01T18:51:19.868376,1669389,1345,1867,-470,-1190,-806,-295,-59,167,-301
16681,7575,0,2023-03-01T18:51:19.873814,1669395,1345,1867,-470,-1190,-806,-295,-59,167,-301
16682,7576,0,2023-03-01T18:51:19.879594,1669400,1345,1867,-470,-1190,-806,-295,-59,167,-301
16683,7577,0,2023-03-01T18:51:19.885863,1669407,1345,1867,-470,-1190,-806,-295,-59,167,-301
16684,7578,0,2023-03-01T18:51:19.891010,1669411,1343,1865,-475,-1189,-802,-294,-59,167,-301
16685,7579,0,2023-03-01T18:51:19.896211,1669417,1343,1865,-475,-1189,-802,-294,-59,167,-301
16686,7580,0,2023-03-01T18:51:19.901671,1669423,1343,1865,-475,-1189,-802,-294,-59,167,-301
16687,7581,0,2023-03-01T18:51:19.906058,1669427,1343,1865,-475,-1189,-802,-294,-59,167,-301
16688,7582,0,2023-03-01T18:51:19.910862,1669432,1342,1864,-471,-1190,-801,-301,-59,167,-301
16689,7583,0,2023-03-01T18:51:19.916180,1669437,1342,1864,-471,-1190,-801,-301,-59,167,-301
16690,7584,0,2023-03-01T18:51:19.921496,1669442,1342,1864,-471,-1190,-801,-301,-59,167,-301
16691,7585,0,2023-03-01T18:51:19.926361,1669447,1342,1864,-471,-1190,-801,-301,-59,167,-301
16692,7586,0,2023-03-01T18:51:19.931027,1669452,1344,1868,-474,-1190,-796,-301,-59,167,-301
16693,7587,0,2023-03-01T18:51:19.936384,1669457,1344,1868,-474,-1190,-796,-301,-59,167,-301
16694,7588,0,2023-03-01T18:51:19.942001,1669463,1344,1868,-474,-1190,-796,-301,-59,167,-301
16695,7589,0,2023-03-01T18:51:19.946947,1669468,1344,1868,-474,-1190,-796,-301,-59,167,-301
16696,7590,0,2023-03-01T18:51:19.951701,1669473,1346,1866,-469,-1197,-796,-297,-59,167,-301
16697,7591,0,2023-03-01T18:51:19.957195,1669478,1346,1866,-469,-1197,-796,-297,-59,167,-301
16698,7592,0,2023-03-01T18:51:19.962941,1669484,1346,1866,-469,-1197,-796,-297,-59,167,-301
16699,7593,0,2023-03-01T18:51:19.967634,1669488,1346,1866,-469,-1197,-796,-297,-59,167,-301
16700,7594,0,2023-03-01T18:51:19.972388,1669493,1347,1869,-474,-1190,-797,-298,-59,167,-301
16701,7595,0,2023-03-01T18:51:19.979921,1669500,1347,1869,-474,-1190,-797,-298,-59,167,-301
16702,7596,0,2023-03-01T18:51:19.985964,1669507,1347,1869,-474,-1190,-797,-298,-59,167,-301
16703,7597,0,2023-03-01T18:51:19.990884,1669512,1345,1869,-470,-1181,-798,-297,-61,165,-289
16704,7598,0,2023-03-01T18:51:19.996720,1669517,1345,1869,-470,-1181,-798,-297,-61,165,-289
16705,7599,0,2023-03-01T18:51:20.002172,1669523,1345,1869,-470,-1181,-798,-297,-61,165,-289
16706,7600,0,2023-03-01T18:51:20.007880,1669529,1345,1869,-470,-1181,-798,-297,-61,165,-289
16707,7601,0,2023-03-01T18:51:20.012772,1669534,1345,1866,-471,-1193,-802,-298,-61,165,-289
16708,7602,0,2023-03-01T18:51:20.018042,1669539,1345,1866,-471,-1193,-802,-298,-61,165,-289
16709,7603,0,2023-03-01T18:51:20.023564,1669544,1345,1866,-471,-1193,-802,-298,-61,165,-289
16710,7604,0,2023-03-01T18:51:20.028227,1669550,1346,1869,-472,-1192,-801,-301,-61,165,-289
16711,7605,0,2023-03-01T18:51:20.033878,1669555,1346,1869,-472,-1192,-801,-301,-61,165,-289
16712,7606,0,2023-03-01T18:51:20.038680,1669560,1346,1869,-472,-1192,-801,-301,-61,165,-289
16713,7607,0,2023-03-01T18:51:20.044462,1669565,1346,1869,-472,-1192,-801,-301,-61,165,-289
16714,7608,0,2023-03-01T18:51:20.049883,1669571,1344,1865,-466,-1189,-791,-299,-61,165,-289
16715,7609,0,2023-03-01T18:51:20.055192,1669576,1344,1865,-466,-1189,-791,-299,-61,165,-289
16716,7610,0,2023-03-01T18:51:20.059776,1669580,1344,1865,-466,-1189,-791,-299,-61,165,-289
16717,7611,0,2023-03-01T18:51:20.065510,1669586,1344,1865,-466,-1189,-791,-299,-61,165,-289
16718,7612,0,2023-03-01T18:51:20.070214,1669592,1346,1866,-473,-1196,-793,-297,-61,165,-289
16719,7613,0,2023-03-01T18:51:20.075530,1669597,1346,1866,-473,-1196,-793,-297,-61,165,-289
16720,7614,0,2023-03-01T18:51:20.080665,1669602,1346,1866,-473,-1196,-793,-297,-61,165,-289
16721,7615,0,2023-03-01T18:51:20.085361,1669607,1346,1866,-473,-1196,-793,-297,-61,165,-289
16722,7616,0,2023-03-01T18:51:20.090525,1669611,1346,1870,-476,-1199,-798,-299,-61,165,-289
16723,7617,0,2023-03-01T18:51:20.096184,1669617,1346,1870,-476,-1199,-798,-299,-61,165,-289
16724,7618,0,2023-03-01T18:51:20.101659,1669622,1346,1870,-476,-1199,-798,-299,-61,165,-289
16725,7619,0,2023-03-01T18:51:20.106164,1669627,1346,1870,-476,-1199,-798,-299,-61,165,-289
16726,7620,0,2023-03-01T18:51:20.111359,1669632,1346,1867,-468,-1179,-796,-305,-61,165,-289
16727,7621,0,2023-03-01T18:51:20.117044,1669638,1346,1867,-468,-1179,-796,-305,-61,165,-289
16728,7622,0,2023-03-01T18:51:20.122788,1669644,1346,1867,-468,-1179,-796,-305,-61,165,-289
16729,7623,0,2023-03-01T18:51:20.127585,1669648,1346,1867,-468,-1179,-796,-305,-61,165,-289
16730,7624,0,2023-03-01T18:51:20.132172,1669653,1345,1870,-478,-1183,-795,-295,-68,170,-294
16731,7625,0,2023-03-01T18:51:20.137745,1669658,1345,1870,-478,-1183,-795,-295,-68,170,-294
16732,7626,0,2023-03-01T18:51:20.143643,1669664,1345,1870,-478,-1183,-795,-295,-68,170,-294
16733,7627,0,2023-03-01T18:51:20.149395,1669670,1342,1867,-474,-1187,-796,-299,-68,170,-294
16734,7628,0,2023-03-01T18:51:20.155069,1669676,1342,1867,-474,-1187,-796,-299,-68,170,-294
16735,7629,0,2023-03-01T18:51:20.160009,1669681,1342,1867,-474,-1187,-796,-299,-68,170,-294
16736,7630,0,2023-03-01T18:51:20.165387,1669686,1342,1867,-474,-1187,-796,-299,-68,170,-294
16737,7631,0,2023-03-01T18:51:20.170495,1669691,1342,1867,-467,-1188,-799,-303,-68,170,-294
16738,7632,0,2023-03-01T18:51:20.176443,1669697,1342,1867,-467,-1188,-799,-303,-68,170,-294
16739,7633,0,2023-03-01T18:51:20.182030,1669703,1342,1867,-467,-1188,-799,-303,-68,170,-294
16740,7634,0,2023-03-01T18:51:20.186991,1669707,1342,1867,-467,-1188,-799,-303,-68,170,-294
16741,7635,0,2023-03-01T18:51:20.191791,1669712,1349,1868,-476,-1198,-803,-309,-68,170,-294
16742,7636,0,2023-03-01T18:51:20.197359,1669719,1349,1868,-476,-1198,-803,-309,-68,170,-294
16743,7637,0,2023-03-01T18:51:20.202310,1669723,1349,1868,-476,-1198,-803,-309,-68,170,-294
16744,7638,0,2023-03-01T18:51:20.206978,1669728,1349,1868,-476,-1198,-803,-309,-68,170,-294
16745,7639,0,2023-03-01T18:51:20.212184,1669733,1343,1866,-472,-1198,-798,-290,-68,170,-294
16746,7640,0,2023-03-01T18:51:20.218142,1669739,1343,1866,-472,-1198,-798,-290,-68,170,-294
16747,7641,0,2023-03-01T18:51:20.224028,1669745,1343,1866,-472,-1198,-798,-290,-68,170,-294
16748,7642,0,2023-03-01T18:51:20.230015,1669751,1346,1862,-471,-1191,-796,-288,-68,170,-294
16749,7643,0,2023-03-01T18:51:20.235544,1669756,1346,1862,-471,-1191,-796,-288,-68,170,-294
16750,7644,0,2023-03-01T18:51:20.240978,1669762,1346,1862,-471,-1191,-796,-288,-68,170,-294
16751,7645,0,2023-03-01T18:51:20.245793,1669767,1346,1862,-471,-1191,-796,-288,-68,170,-294
16752,7646,0,2023-03-01T18:51:20.250821,1669772,1343,1867,-474,-1196,-803,-300,-66,166,-294
16753,7647,0,2023-03-01T18:51:20.256194,1669777,1343,1867,-474,-1196,-803,-300,-66,166,-294
16754,7648,0,2023-03-01T18:51:20.261956,1669783,1343,1867,-474,-1196,-803,-300,-66,166,-294
16755,7649,0,2023-03-01T18:51:20.267948,1669789,1343,1867,-474,-1196,-803,-300,-66,166,-294
16756,7650,0,2023-03-01T18:51:20.272720,1669793,1344,1865,-472,-1196,-797,-301,-66,166,-294
16757,7651,0,2023-03-01T18:51:20.278412,1669799,1344,1865,-472,-1196,-797,-301,-66,166,-294
16758,7652,0,2023-03-01T18:51:20.284027,1669805,1344,1865,-472,-1196,-797,-301,-66,166,-294
16759,7653,0,2023-03-01T18:51:20.288971,1669810,1348,1868,-473,-1195,-800,-303,-66,166,-294
16760,7654,0,2023-03-01T18:51:20.294693,1669816,1348,1868,-473,-1195,-800,-303,-66,166,-294
16761,7655,0,2023-03-01T18:51:20.299256,1669820,1348,1868,-473,-1195,-800,-303,-66,166,-294
16762,7656,0,2023-03-01T18:51:20.305045,1669826,1348,1868,-473,-1195,-800,-303,-66,166,-294
16763,7657,0,2023-03-01T18:51:20.310215,1669831,1346,1870,-478,-1194,-804,-297,-66,166,-294
16764,7658,0,2023-03-01T18:51:20.315644,1669836,1346,1870,-478,-1194,-804,-297,-66,166,-294
16765,7659,0,2023-03-01T18:51:20.321687,1669842,1346,1870,-478,-1194,-804,-297,-66,166,-294
16766,7660,0,2023-03-01T18:51:20.326455,1669848,1346,1870,-478,-1194,-804,-297,-66,166,-294
16767,7661,0,2023-03-01T18:51:20.330985,1669852,1344,1867,-474,-1196,-794,-295,-66,166,-294
16768,7662,0,2023-03-01T18:51:20.336391,1669857,1344,1867,-474,-1196,-794,-295,-66,166,-294
16769,7663,0,2023-03-01T18:51:20.341729,1669863,1344,1867,-474,-1196,-794,-295,-66,166,-294
16770,7664,0,2023-03-01T18:51:20.346263,1669867,1344,1867,-474,-1196,-794,-295,-66,166,-294
16771,7665,0,2023-03-01T18:51:20.351144,1669872,1343,1866,-472,-1184,-810,-299,-66,166,-294
16772,7666,0,2023-03-01T18:51:20.356660,1669877,1343,1866,-472,-1184,-810,-299,-66,166,-294
16773,7667,0,2023-03-01T18:51:20.362070,1669883,1343,1866,-472,-1184,-810,-299,-66,166,-294
16774,7668,0,2023-03-01T18:51:20.367766,1669889,1343,1866,-472,-1184,-810,-299,-66,166,-294
16775,7669,0,2023-03-01T18:51:20.372770,1669894,1348,1866,-471,-1183,-807,-302,-67,173,-287
16776,7670,0,2023-03-01T18:51:20.378178,1669899,1348,1866,-471,-1183,-807,-302,-67,173,-287
16777,7671,0,2023-03-01T18:51:20.383446,1669905,1348,1866,-471,-1183,-807,-302,-67,173,-287
16778,7672,0,2023-03-01T18:51:20.388053,1669909,1348,1866,-471,-1183,-807,-302,-67,173,-287
16779,7673,0,2023-03-01T18:51:20.393128,1669914,1345,1863,-466,-1193,-809,-298,-67,173,-287
16780,7674,0,2023-03-01T18:51:20.398641,1669919,1345,1863,-466,-1193,-809,-298,-67,173,-287
16781,7675,0,2023-03-01T18:51:20.404313,1669924,1345,1863,-466,-1193,-809,-298,-67,173,-287
16782,7676,0,2023-03-01T18:51:20.409666,1669931,1350,1865,-473,-1190,-807,-293,-67,173,-287
16783,7677,0,2023-03-01T18:51:20.415415,1669936,1350,1865,-473,-1190,-807,-293,-67,173,-287
16784,7678,0,2023-03-01T18:51:20.420137,1669941,1350,1865,-473,-1190,-807,-293,-67,173,-287
16785,7679,0,2023-03-01T18:51:20.426275,1669947,1350,1865,-473,-1190,-807,-293,-67,173,-287
16786,7680,0,2023-03-01T18:51:20.431213,1669952,1350,1865,-473,-1190,-807,-293,-67,173,-287
16787,7681,0,2023-03-01T18:51:20.436270,1669957,1350,1865,-473,-1190,-807,-293,-67,173,-287
16788,7682,0,2023-03-01T18:51:20.441736,1669962,1350,1865,-473,-1190,-807,-293,-67,173,-287
16789,7683,0,2023-03-01T18:51:20.446901,1669967,1350,1865,-473,-1190,-807,-293,-67,173,-287
16790,7684,0,2023-03-01T18:51:20.451908,1669972,1348,1866,-474,-1194,-783,-303,-67,173,-287
16791,7685,0,2023-03-01T18:51:20.457681,1669979,1348,1866,-474,-1194,-783,-303,-67,173,-287
16792,7686,0,2023-03-01T18:51:20.463140,1669984,1348,1866,-474,-1194,-783,-303,-67,173,-287
16793,7687,0,2023-03-01T18:51:20.468130,1669989,1348,1866,-474,-1194,-783,-303,-67,173,-287
16794,7688,0,2023-03-01T18:51:20.472735,1669994,1347,1865,-478,-1193,-794,-303,-67,173,-287
16795,7689,0,2023-03-01T18:51:20.478255,1669999,1347,1865,-478,-1193,-794,-303,-67,173,-287
16796,7690,0,2023-03-01T18:51:20.483756,1670004,1347,1865,-478,-1193,-794,-303,-67,173,-287
16797,7691,0,2023-03-01T18:51:20.489410,1670010,1345,1867,-479,-1193,-795,-300,-67,173,-287
16798,7692,0,2023-03-01T18:51:20.495004,1670016,1345,1867,-479,-1193,-795,-300,-67,173,-287
16799,7693,0,2023-03-01T18:51:20.499883,1670021,1345,1867,-479,-1193,-795,-300,-67,173,-287
