,Unnamed: 0,imu,server_time,arduino_time,ax,ay,az,gx,gy,gz,mx,my,mz
16800,7694,0,2023-03-01T18:51:20.505507,1670027,1345,1867,-479,-1193,-795,-300,-67,173,-287
16801,7695,0,2023-03-01T18:51:20.510369,1670031,1347,1869,-469,-1181,-788,-299,-66,170,-296
16802,7696,0,2023-03-01T18:51:20.516016,1670037,1347,1869,-469,-1181,-788,-299,-66,170,-296
16803,7697,0,2023-03-01T18:51:20.521766,1670043,1347,1869,-469,-1181,-788,-299,-66,170,-296
16804,7698,0,2023-03-01T18:51:20.526478,1670047,1347,1869,-469,-1181,-788,-299,-66,170,-296
16805,7699,0,2023-03-01T18:51:20.531431,1670052,1348,1862,-468,-1185,-778,-292,-66,170,-296
16806,7700,0,2023-03-01T18:51:20.536538,1670057,1348,1862,-468,-1185,-778,-292,-66,170,-296
16807,7701,0,2023-03-01T18:51:20.541797,1670063,1348,1862,-468,-1185,-778,-292,-66,170,-296
16808,7702,0,2023-03-01T18:51:20.546894,1670068,1348,1862,-468,-1185,-778,-292,-66,170,-296
16809,7703,0,2023-03-01T18:51:20.551591,1670073,1347,1865,-469,-1176,-779,-298,-66,170,-296
16810,7704,0,2023-03-01T18:51:20.556711,1670078,1347,1865,-469,-1176,-779,-298,-66,170,-296
16811,7705,0,2023-03-01T18:51:20.561177,1670082,1347,1865,-469,-1176,-779,-298,-66,170,-296
16812,7706,0,2023-03-01T18:51:20.567230,1670088,1347,1865,-469,-1176,-779,-298,-66,170,-296
16813,7707,0,2023-03-01T18:51:20.571954,1670093,1348,1868,-475,-1177,-783,-302,-66,170,-296
16814,7708,0,2023-03-01T18:51:20.577440,1670098,1348,1868,-475,-1177,-783,-302,-66,170,-296
16815,7709,0,2023-03-01T18:51:20.582614,1670104,1348,1868,-475,-1177,-783,-302,-66,170,-296
16816,7710,0,2023-03-01T18:51:20.589725,1670110,1346,1860,-471,-1190,-799,-292,-66,170,-296
16817,7711,0,2023-03-01T18:51:20.595231,1670116,1346,1860,-471,-1190,-799,-292,-66,170,-296
16818,7712,0,2023-03-01T18:51:20.600099,1670121,1346,1860,-471,-1190,-799,-292,-66,170,-296
16819,7713,0,2023-03-01T18:51:20.605980,1670127,1346,1860,-471,-1190,-799,-292,-66,170,-296
16820,7714,0,2023-03-01T18:51:20.610869,1670131,1348,1865,-475,-1195,-797,-301,-66,170,-296
16821,7715,0,2023-03-01T18:51:20.616275,1670137,1348,1865,-475,-1195,-797,-301,-66,170,-296
16822,7716,0,2023-03-01T18:51:20.621410,1670142,1348,1865,-475,-1195,-797,-301,-66,170,-296
16823,7717,0,2023-03-01T18:51:20.626404,1670148,1348,1865,-475,-1195,-797,-301,-66,170,-296
16824,7718,0,2023-03-01T18:51:20.631449,1670153,1345,1863,-467,-1186,-791,-299,-60,174,-292
16825,7719,0,2023-03-01T18:51:20.636823,1670158,1345,1863,-467,-1186,-791,-299,-60,174,-292
16826,7720,0,2023-03-01T18:51:20.641961,1670163,1345,1863,-467,-1186,-791,-299,-60,174,-292
16827,7721,0,2023-03-01T18:51:20.647055,1670168,1345,1863,-467,-1186,-791,-299,-60,174,-292
16828,7722,0,2023-03-01T18:51:20.652030,1670172,1347,1866,-474,-1192,-795,-302,-60,174,-292
16829,7723,0,2023-03-01T18:51:20.657785,1670178,1347,1866,-474,-1192,-795,-302,-60,174,-292
16830,7724,0,2023-03-01T18:51:20.662984,1670183,1347,1866,-474,-1192,-795,-302,-60,174,-292
16831,7725,0,2023-03-01T18:51:20.668621,1670190,1347,1866,-474,-1192,-795,-302,-60,174,-292
16832,7726,0,2023-03-01T18:51:20.673375,1670195,1349,1865,-475,-1186,-799,-300,-60,174,-292
16833,7727,0,2023-03-01T18:51:20.678917,1670200,1349,1865,-475,-1186,-799,-300,-60,174,-292
16834,7728,0,2023-03-01T18:51:20.684625,1670206,1349,1865,-475,-1186,-799,-300,-60,174,-292
16835,7729,0,2023-03-01T18:51:20.690286,1670211,1346,1863,-475,-1190,-793,-299,-60,174,-292
16836,7730,0,2023-03-01T18:51:20.695851,1670216,1346,1863,-475,-1190,-793,-299,-60,174,-292
16837,7731,0,2023-03-01T18:51:20.702150,1670223,1346,1863,-475,-1190,-793,-299,-60,174,-292
16838,7732,0,2023-03-01T18:51:20.708253,1670228,1346,1863,-475,-1190,-793,-299,-60,174,-292
16839,7733,0,2023-03-01T18:51:20.713621,1670235,1348,1864,-475,-1181,-785,-300,-60,174,-292
16840,7734,0,2023-03-01T18:51:20.719427,1670240,1348,1864,-475,-1181,-785,-300,-60,174,-292
16841,7735,0,2023-03-01T18:51:20.725140,1670246,1348,1864,-475,-1181,-785,-300,-60,174,-292
16842,7736,0,2023-03-01T18:51:20.730539,1670252,1347,1867,-477,-1178,-784,-294,-60,174,-292
16843,7737,0,2023-03-01T18:51:20.735163,1670256,1347,1867,-477,-1178,-784,-294,-60,174,-292
16844,7738,0,2023-03-01T18:51:20.740556,1670261,1347,1867,-477,-1178,-784,-294,-60,174,-292
16845,7739,0,2023-03-01T18:51:20.747643,1670268,1347,1867,-477,-1178,-784,-294,-60,174,-292
16846,7740,0,2023-03-01T18:51:20.752414,1670274,1346,1865,-473,-1178,-789,-302,-60,174,-292
16847,7741,0,2023-03-01T18:51:20.757751,1670279,1346,1865,-473,-1178,-789,-302,-60,174,-292
16848,7742,0,2023-03-01T18:51:20.763405,1670284,1346,1865,-473,-1178,-789,-302,-60,174,-292
16849,7743,0,2023-03-01T18:51:20.768499,1670289,1346,1865,-473,-1178,-789,-302,-60,174,-292
16850,7744,0,2023-03-01T18:51:20.773236,1670294,1348,1868,-473,-1177,-783,-301,-69,165,-291
16851,7745,0,2023-03-01T18:51:20.779042,1670300,1348,1868,-473,-1177,-783,-301,-69,165,-291
16852,7746,0,2023-03-01T18:51:20.784827,1670305,1348,1868,-473,-1177,-783,-301,-69,165,-291
16853,7747,0,2023-03-01T18:51:20.790033,1670310,1348,1864,-472,-1178,-784,-299,-69,165,-291
16854,7748,0,2023-03-01T18:51:20.795468,1670317,1348,1864,-472,-1178,-784,-299,-69,165,-291
16855,7749,0,2023-03-01T18:51:20.800379,1670322,1348,1864,-472,-1178,-784,-299,-69,165,-291
16856,7750,0,2023-03-01T18:51:20.806077,1670327,1348,1864,-472,-1178,-784,-299,-69,165,-291
16857,7751,0,2023-03-01T18:51:20.810666,1670332,1348,1865,-473,-1180,-798,-293,-69,165,-291
16858,7752,0,2023-03-01T18:51:20.816375,1670337,1348,1865,-473,-1180,-798,-293,-69,165,-291
16859,7753,0,2023-03-01T18:51:20.822030,1670343,1348,1865,-473,-1180,-798,-293,-69,165,-291
16860,7754,0,2023-03-01T18:51:20.827475,1670348,1348,1865,-473,-1180,-798,-293,-69,165,-291
16861,7755,0,2023-03-01T18:51:20.832112,1670353,1345,1864,-478,-1172,-782,-304,-69,165,-291
16862,7756,0,2023-03-01T18:51:20.837808,1670359,1345,1864,-478,-1172,-782,-304,-69,165,-291
16863,7757,0,2023-03-01T18:51:20.842456,1670364,1345,1864,-478,-1172,-782,-304,-69,165,-291
16864,7758,0,2023-03-01T18:51:20.847055,1670368,1345,1864,-478,-1172,-782,-304,-69,165,-291
16865,7759,0,2023-03-01T18:51:20.852107,1670373,1345,1865,-468,-1170,-777,-304,-69,165,-291
16866,7760,0,2023-03-01T18:51:20.857836,1670379,1345,1865,-468,-1170,-777,-304,-69,165,-291
16867,7761,0,2023-03-01T18:51:20.862885,1670384,1345,1865,-468,-1170,-777,-304,-69,165,-291
16868,7762,0,2023-03-01T18:51:20.867625,1670388,1345,1865,-468,-1170,-777,-304,-69,165,-291
16869,7763,0,2023-03-01T18:51:20.872430,1670393,1346,1867,-474,-1178,-777,-301,-69,165,-291
16870,7764,0,2023-03-01T18:51:20.878005,1670398,1346,1867,-474,-1178,-777,-301,-69,165,-291
16871,7765,0,2023-03-01T18:51:20.883538,1670405,1346,1867,-474,-1178,-777,-301,-69,165,-291
16872,7766,0,2023-03-01T18:51:20.888356,1670410,1346,1867,-474,-1178,-777,-301,-69,165,-291
16873,7767,0,2023-03-01T18:51:20.892973,1670414,1348,1865,-472,-1180,-786,-301,-63,169,-291
16874,7768,0,2023-03-01T18:51:20.898269,1670419,1348,1865,-472,-1180,-786,-301,-63,169,-291
16875,7769,0,2023-03-01T18:51:20.903583,1670424,1348,1865,-472,-1180,-786,-301,-63,169,-291
16876,7770,0,2023-03-01T18:51:20.908519,1670429,1348,1865,-472,-1180,-786,-301,-63,169,-291
16877,7771,0,2023-03-01T18:51:20.913710,1670434,1344,1860,-478,-1171,-777,-298,-63,169,-291
16878,7772,0,2023-03-01T18:51:20.919233,1670440,1344,1860,-478,-1171,-777,-298,-63,169,-291
16879,7773,0,2023-03-01T18:51:20.924514,1670446,1344,1860,-478,-1171,-777,-298,-63,169,-291
16880,7774,0,2023-03-01T18:51:20.929474,1670451,1351,1868,-479,-1169,-766,-301,-63,169,-291
16881,7775,0,2023-03-01T18:51:20.935460,1670456,1351,1868,-479,-1169,-766,-301,-63,169,-291
16882,7776,0,2023-03-01T18:51:20.940344,1670461,1351,1868,-479,-1169,-766,-301,-63,169,-291
16883,7777,0,2023-03-01T18:51:20.946771,1670468,1351,1868,-479,-1169,-766,-301,-63,169,-291
16884,7778,0,2023-03-01T18:51:20.951618,1670472,1348,1863,-473,-1171,-772,-300,-63,169,-291
16885,7779,0,2023-03-01T18:51:20.956827,1670478,1348,1863,-473,-1171,-772,-300,-63,169,-291
16886,7780,0,2023-03-01T18:51:20.962471,1670483,1348,1863,-473,-1171,-772,-300,-63,169,-291
16887,7781,0,2023-03-01T18:51:20.968147,1670489,1348,1863,-473,-1171,-772,-300,-63,169,-291
16888,7782,0,2023-03-01T18:51:20.972827,1670494,1348,1862,-476,-1178,-776,-301,-63,169,-291
16889,7783,0,2023-03-01T18:51:20.978305,1670499,1348,1862,-476,-1178,-776,-301,-63,169,-291
16890,7784,0,2023-03-01T18:51:20.983892,1670505,1348,1862,-476,-1178,-776,-301,-63,169,-291
16891,7785,0,2023-03-01T18:51:20.989516,1670510,1349,1865,-477,-1180,-767,-308,-63,169,-291
16892,7786,0,2023-03-01T18:51:20.995037,1670516,1349,1865,-477,-1180,-767,-308,-63,169,-291
16893,7787,0,2023-03-01T18:51:21.000242,1670521,1349,1865,-477,-1180,-767,-308,-63,169,-291
16894,7788,0,2023-03-01T18:51:21.006126,1670526,1349,1865,-477,-1180,-767,-308,-63,169,-291
16895,7789,0,2023-03-01T18:51:21.011091,1670532,1346,1867,-469,-1161,-747,-305,-69,169,-297
16896,7790,0,2023-03-01T18:51:21.016558,1670538,1346,1867,-469,-1161,-747,-305,-69,169,-297
16897,7791,0,2023-03-01T18:51:21.022567,1670544,1346,1867,-469,-1161,-747,-305,-69,169,-297
16898,7792,0,2023-03-01T18:51:21.028038,1670549,1346,1867,-469,-1161,-747,-305,-69,169,-297
16899,7793,0,2023-03-01T18:51:21.032770,1670554,1352,1863,-474,-1150,-763,-298,-69,169,-297
16900,7794,0,2023-03-01T18:51:21.038136,1670559,1352,1863,-474,-1150,-763,-298,-69,169,-297
16901,7795,0,2023-03-01T18:51:21.043513,1670564,1352,1863,-474,-1150,-763,-298,-69,169,-297
16902,7796,0,2023-03-01T18:51:21.048157,1670569,1352,1863,-474,-1150,-763,-298,-69,169,-297
16903,7797,0,2023-03-01T18:51:21.052965,1670574,1350,1863,-473,-1158,-767,-304,-69,169,-297
16904,7798,0,2023-03-01T18:51:21.058351,1670579,1350,1863,-473,-1158,-767,-304,-69,169,-297
16905,7799,0,2023-03-01T18:51:21.063470,1670585,1350,1863,-473,-1158,-767,-304,-69,169,-297
16906,7800,0,2023-03-01T18:51:21.068652,1670589,1350,1863,-473,-1158,-767,-304,-69,169,-297
16907,7801,0,2023-03-01T18:51:21.073595,1670594,1347,1865,-476,-1159,-767,-302,-69,169,-297
16908,7802,0,2023-03-01T18:51:21.079292,1670600,1347,1865,-476,-1159,-767,-302,-69,169,-297
16909,7803,0,2023-03-01T18:51:21.084735,1670605,1347,1865,-476,-1159,-767,-302,-69,169,-297
16910,7804,0,2023-03-01T18:51:21.090157,1670611,1349,1867,-475,-1156,-761,-307,-69,169,-297
16911,7805,0,2023-03-01T18:51:21.096317,1670617,1349,1867,-475,-1156,-761,-307,-69,169,-297
16912,7806,0,2023-03-01T18:51:21.103086,1670624,1349,1867,-475,-1156,-761,-307,-69,169,-297
16913,7807,0,2023-03-01T18:51:21.108656,1670630,1349,1867,-475,-1156,-761,-307,-69,169,-297
16914,7808,0,2023-03-01T18:51:21.113153,1670634,1347,1862,-480,-1162,-758,-307,-69,169,-297
16915,7809,0,2023-03-01T18:51:21.118654,1670640,1347,1862,-480,-1162,-758,-307,-69,169,-297
16916,7810,0,2023-03-01T18:51:21.124080,1670645,1347,1862,-480,-1162,-758,-307,-69,169,-297
16917,7811,0,2023-03-01T18:51:21.128886,1670649,1347,1862,-480,-1162,-758,-307,-69,169,-297
16918,7812,0,2023-03-01T18:51:21.133795,1670654,1348,1864,-473,-1166,-758,-306,-69,169,-297
16919,7813,0,2023-03-01T18:51:21.139473,1670661,1348,1864,-473,-1166,-758,-306,-69,169,-297
16920,7814,0,2023-03-01T18:51:21.144824,1670666,1348,1864,-473,-1166,-758,-306,-69,169,-297
16921,7815,0,2023-03-01T18:51:21.149764,1670671,1347,1865,-478,-1164,-767,-303,-57,169,-293
16922,7816,0,2023-03-01T18:51:21.155580,1670676,1347,1865,-478,-1164,-767,-303,-57,169,-293
16923,7817,0,2023-03-01T18:51:21.160456,1670681,1347,1865,-478,-1164,-767,-303,-57,169,-293
16924,7818,0,2023-03-01T18:51:21.166512,1670687,1347,1865,-478,-1164,-767,-303,-57,169,-293
16925,7819,0,2023-03-01T18:51:21.171475,1670692,1348,1861,-472,-1171,-760,-302,-57,169,-293
16926,7820,0,2023-03-01T18:51:21.177277,1670697,1348,1861,-472,-1171,-760,-302,-57,169,-293
16927,7821,0,2023-03-01T18:51:21.183164,1670704,1348,1861,-472,-1171,-760,-302,-57,169,-293
16928,7822,0,2023-03-01T18:51:21.188452,1670710,1348,1861,-472,-1171,-760,-302,-57,169,-293
16929,7823,0,2023-03-01T18:51:21.193360,1670714,1351,1866,-469,-1174,-770,-305,-57,169,-293
16930,7824,0,2023-03-01T18:51:21.198960,1670720,1351,1866,-469,-1174,-770,-305,-57,169,-293
16931,7825,0,2023-03-01T18:51:21.203991,1670725,1351,1866,-469,-1174,-770,-305,-57,169,-293
16932,7826,0,2023-03-01T18:51:21.210004,1670730,1351,1863,-478,-1173,-768,-305,-57,169,-293
16933,7827,0,2023-03-01T18:51:21.215812,1670736,1351,1863,-478,-1173,-768,-305,-57,169,-293
16934,7828,0,2023-03-01T18:51:21.221321,1670743,1351,1863,-478,-1173,-768,-305,-57,169,-293
16935,7829,0,2023-03-01T18:51:21.226412,1670747,1351,1863,-478,-1173,-768,-305,-57,169,-293
16936,7830,0,2023-03-01T18:51:21.231060,1670752,1349,1862,-475,-1167,-763,-306,-57,169,-293
16937,7831,0,2023-03-01T18:51:21.236749,1670757,1349,1862,-475,-1167,-763,-306,-57,169,-293
16938,7832,0,2023-03-01T18:51:21.242512,1670763,1349,1862,-475,-1167,-763,-306,-57,169,-293
16939,7833,0,2023-03-01T18:51:21.248215,1670768,1349,1862,-475,-1167,-763,-306,-57,169,-293
16940,7834,0,2023-03-01T18:51:21.253284,1670774,1349,1865,-477,-1166,-767,-304,-57,169,-293
16941,7835,0,2023-03-01T18:51:21.259410,1670779,1349,1865,-477,-1166,-767,-304,-57,169,-293
16942,7836,0,2023-03-01T18:51:21.264881,1670786,1349,1865,-477,-1166,-767,-304,-57,169,-293
16943,7837,0,2023-03-01T18:51:21.270074,1670791,1347,1864,-479,-1176,-768,-301,-61,173,-293
16944,7838,0,2023-03-01T18:51:21.275469,1670797,1347,1864,-479,-1176,-768,-301,-61,173,-295
16945,7839,0,2023-03-01T18:51:21.281447,1670801,1347,1864,-479,-1176,-768,-301,-61,173,-295
16946,7840,0,2023-03-01T18:51:21.288187,1670809,1347,1864,-479,-1176,-768,-301,-61,173,-295
16947,7841,0,2023-03-01T18:51:21.293407,1670814,1349,1865,-472,-1179,-773,-295,-61,173,-295
16948,7842,0,2023-03-01T18:51:21.299064,1670820,1349,1865,-472,-1179,-773,-295,-61,173,-295
16949,7843,0,2023-03-01T18:51:21.304571,1670825,1349,1865,-472,-1179,-773,-295,-61,173,-295
16950,7844,0,2023-03-01T18:51:21.311338,1670832,1348,1863,-478,-1178,-765,-298,-61,173,-295
16951,7845,0,2023-03-01T18:51:21.317000,1670838,1348,1863,-478,-1178,-765,-298,-61,173,-295
16952,7846,0,2023-03-01T18:51:21.323426,1670844,1348,1863,-478,-1178,-765,-298,-61,173,-295
16953,7847,0,2023-03-01T18:51:21.329153,1670850,1348,1863,-478,-1178,-765,-298,-61,173,-295
16954,7848,0,2023-03-01T18:51:21.334588,1670855,1348,1863,-478,-1177,-776,-300,-61,173,-295
16955,7849,0,2023-03-01T18:51:21.340079,1670861,1348,1863,-478,-1177,-776,-300,-61,173,-295
16956,7850,0,2023-03-01T18:51:21.345633,1670866,1348,1863,-478,-1177,-776,-300,-61,173,-295
16957,7851,0,2023-03-01T18:51:21.351523,1670873,1351,1867,-478,-1174,-775,-300,-61,173,-295
16958,7852,0,2023-03-01T18:51:21.357094,1670878,1351,1867,-478,-1174,-775,-300,-61,173,-295
16959,7853,0,2023-03-01T18:51:21.362167,1670883,1351,1867,-478,-1174,-775,-300,-61,173,-295
16960,7854,0,2023-03-01T18:51:21.367187,1670888,1351,1867,-478,-1174,-775,-300,-61,173,-295
16961,7855,0,2023-03-01T18:51:21.372123,1670893,1351,1860,-478,-1183,-778,-297,-61,173,-295
16962,7856,0,2023-03-01T18:51:21.377949,1670899,1351,1860,-478,-1183,-778,-297,-61,173,-295
16963,7857,0,2023-03-01T18:51:21.382874,1670904,1351,1860,-478,-1183,-778,-297,-61,173,-295
16964,7858,0,2023-03-01T18:51:21.388380,1670909,1351,1860,-478,-1183,-778,-297,-61,173,-295
16965,7859,0,2023-03-01T18:51:21.393389,1670915,1347,1861,-473,-1171,-768,-295,-61,173,-295
16966,7860,0,2023-03-01T18:51:21.400571,1670922,1347,1861,-473,-1171,-768,-295,-61,173,-295
16967,7861,0,2023-03-01T18:51:21.405867,1670927,1347,1861,-473,-1171,-768,-295,-61,173,-295
16968,7862,0,2023-03-01T18:51:21.410737,1670932,1352,1863,-469,-1169,-764,-303,-60,162,-294
16969,7863,0,2023-03-01T18:51:21.416023,1670937,1352,1863,-469,-1169,-764,-303,-60,162,-294
16970,7864,0,2023-03-01T18:51:21.421588,1670942,1352,1863,-469,-1169,-764,-303,-60,162,-294
16971,7865,0,2023-03-01T18:51:21.426818,1670948,1352,1863,-469,-1169,-764,-303,-60,162,-294
16972,7866,0,2023-03-01T18:51:21.431784,1670952,1347,1861,-476,-1170,-769,-302,-60,162,-294
16973,7867,0,2023-03-01T18:51:21.437339,1670959,1347,1861,-476,-1170,-769,-302,-60,162,-294
16974,7868,0,2023-03-01T18:51:21.442563,1670964,1347,1861,-476,-1170,-769,-302,-60,162,-294
16975,7869,0,2023-03-01T18:51:21.447634,1670968,1347,1861,-476,-1170,-769,-302,-60,162,-294
16976,7870,0,2023-03-01T18:51:21.452226,1670973,1349,1863,-475,-1173,-768,-300,-60,162,-294
16977,7871,0,2023-03-01T18:51:21.457590,1670979,1349,1863,-475,-1173,-768,-300,-60,162,-294
16978,7872,0,2023-03-01T18:51:21.462987,1670984,1349,1863,-475,-1173,-768,-300,-60,162,-294
16979,7873,0,2023-03-01T18:51:21.467871,1670989,1349,1863,-475,-1173,-768,-300,-60,162,-294
16980,7874,0,2023-03-01T18:51:21.472450,1670993,1349,1860,-473,-1183,-776,-303,-60,162,-294
16981,7875,0,2023-03-01T18:51:21.477985,1670999,1349,1860,-473,-1183,-776,-303,-60,162,-294
16982,7876,0,2023-03-01T18:51:21.483728,1671005,1349,1860,-473,-1183,-776,-303,-60,162,-294
16983,7877,0,2023-03-01T18:51:21.488434,1671010,1349,1860,-473,-1183,-776,-303,-60,162,-294
16984,7878,0,2023-03-01T18:51:21.492929,1671014,1351,1867,-476,-1173,-770,-298,-60,162,-294
16985,7879,0,2023-03-01T18:51:21.498432,1671019,1351,1867,-476,-1173,-770,-298,-60,162,-294
16986,7880,0,2023-03-01T18:51:21.504531,1671025,1351,1867,-476,-1173,-770,-298,-60,162,-294
16987,7881,0,2023-03-01T18:51:21.510766,1671031,1349,1865,-476,-1174,-771,-299,-60,162,-294
16988,7882,0,2023-03-01T18:51:21.516466,1671037,1349,1865,-476,-1174,-771,-299,-60,162,-294
16989,7883,0,2023-03-01T18:51:21.522039,1671043,1349,1865,-476,-1174,-771,-299,-60,162,-294
16990,7884,0,2023-03-01T18:51:21.526809,1671048,1349,1865,-476,-1174,-771,-299,-60,162,-294
16991,7885,0,2023-03-01T18:51:21.531364,1671053,1350,1861,-472,-1165,-766,-297,-70,168,-288
16992,7886,0,2023-03-01T18:51:21.536661,1671058,1350,1861,-472,-1165,-766,-297,-70,168,-288
16993,7887,0,2023-03-01T18:51:21.541844,1671063,1350,1861,-472,-1165,-766,-297,-70,168,-288
16994,7888,0,2023-03-01T18:51:21.547780,1671068,1350,1861,-472,-1165,-766,-297,-70,168,-288
16995,7889,0,2023-03-01T18:51:21.552712,1671073,1354,1865,-479,-1164,-773,-302,-70,168,-288
16996,7890,0,2023-03-01T18:51:21.558266,1671079,1354,1865,-479,-1164,-773,-302,-70,168,-288
16997,7891,0,2023-03-01T18:51:21.563436,1671085,1354,1865,-479,-1164,-773,-302,-70,168,-288
16998,7892,0,2023-03-01T18:51:21.568432,1671089,1354,1865,-479,-1164,-773,-302,-70,168,-288
16999,7893,0,2023-03-01T18:51:21.573321,1671094,1350,1864,-473,-1168,-775,-305,-70,168,-288
17000,7894,0,2023-03-01T18:51:21.578789,1671100,1350,1864,-473,-1168,-775,-305,-70,168,-288
17001,7895,0,2023-03-01T18:51:21.584504,1671105,1350,1864,-473,-1168,-775,-305,-70,168,-288
17002,7896,0,2023-03-01T18:51:21.589376,1671110,1350,1864,-473,-1168,-775,-305,-70,168,-288
17003,7897,0,2023-03-01T18:51:21.594297,1671115,1349,1863,-474,-1181,-773,-300,-70,168,-288
17004,7898,0,2023-03-01T18:51:21.600197,1671121,1349,1863,-474,-1181,-773,-300,-70,168,-288
17005,7899,0,2023-03-01T18:51:21.605937,1671127,1349,1863,-474,-1181,-773,-300,-70,168,-288
17006,7900,0,2023-03-01T18:51:21.611614,1671133,1351,1865,-476,-1181,-781,-307,-70,168,-288
17007,7901,0,2023-03-01T18:51:21.617222,1671138,1351,1865,-476,-1181,-781,-307,-70,168,-288
17008,7902,0,2023-03-01T18:51:21.622713,1671144,1351,1865,-476,-1181,-781,-307,-70,168,-288
17009,7903,0,2023-03-01T18:51:21.628109,1671149,1351,1865,-476,-1181,-781,-307,-70,168,-288
17010,7904,0,2023-03-01T18:51:21.632722,1671154,1350,1863,-478,-1181,-782,-305,-70,168,-288
17011,7905,0,2023-03-01T18:51:21.638119,1671159,1350,1863,-478,-1181,-782,-305,-70,168,-288
17012,7906,0,2023-03-01T18:51:21.643468,1671164,1350,1863,-478,-1181,-782,-305,-70,168,-288
17013,7907,0,2023-03-01T18:51:21.648127,1671170,1350,1863,-478,-1181,-782,-305,-70,168,-288
17014,7908,0,2023-03-01T18:51:21.653081,1671174,1349,1859,-476,-1180,-783,-308,-70,168,-288
17015,7909,0,2023-03-01T18:51:21.658855,1671180,1349,1859,-476,-1180,-783,-308,-70,168,-288
17016,7910,0,2023-03-01T18:51:21.664004,1671185,1349,1859,-476,-1180,-783,-308,-70,168,-288
17017,7911,0,2023-03-01T18:51:21.671293,1671192,1352,1870,-474,-1174,-784,-306,-59,167,-299
17018,7912,0,2023-03-01T18:51:21.676945,1671198,1352,1870,-474,-1174,-784,-306,-59,167,-299
17019,7913,0,2023-03-01T18:51:21.682730,1671203,1352,1870,-474,-1174,-784,-306,-59,167,-299
17020,7914,0,2023-03-01T18:51:21.688126,1671209,1352,1870,-474,-1174,-784,-306,-59,167,-299
17021,7915,0,2023-03-01T18:51:21.693270,1671214,1349,1859,-471,-1167,-797,-295,-59,167,-299
17022,7916,0,2023-03-01T18:51:21.698928,1671220,1349,1859,-471,-1167,-797,-295,-59,167,-299
17023,7917,0,2023-03-01T18:51:21.704791,1671226,1349,1859,-471,-1167,-797,-295,-59,167,-299
17024,7918,0,2023-03-01T18:51:21.710041,1671231,1348,1859,-477,-1177,-799,-298,-59,167,-299
17025,7919,0,2023-03-01T18:51:21.715514,1671236,1348,1859,-477,-1177,-799,-298,-59,167,-299
17026,7920,0,2023-03-01T18:51:21.720716,1671241,1348,1859,-477,-1177,-799,-298,-59,167,-299
17027,7921,0,2023-03-01T18:51:21.726298,1671247,1348,1859,-477,-1177,-799,-298,-59,167,-299
17028,7922,0,2023-03-01T18:51:21.731277,1671252,1348,1865,-479,-1175,-788,-292,-59,167,-299
17029,7923,0,2023-03-01T18:51:21.737485,1671258,1348,1865,-479,-1175,-788,-292,-59,167,-299
17030,7924,0,2023-03-01T18:51:21.743320,1671264,1348,1865,-479,-1175,-788,-292,-59,167,-299
17031,7925,0,2023-03-01T18:51:21.749176,1671270,1348,1865,-479,-1175,-788,-292,-59,167,-299
17032,7926,0,2023-03-01T18:51:21.754515,1671275,1350,1861,-476,-1178,-783,-296,-59,167,-299
17033,7927,0,2023-03-01T18:51:21.761375,1671282,1350,1861,-476,-1178,-783,-296,-59,167,-299
17034,7928,0,2023-03-01T18:51:21.767594,1671288,1350,1861,-476,-1178,-783,-296,-59,167,-299
17035,7929,0,2023-03-01T18:51:21.772312,1671293,1353,1861,-474,-1185,-792,-299,-59,167,-299
17036,7930,0,2023-03-01T18:51:21.777783,1671299,1353,1861,-474,-1185,-792,-299,-59,167,-299
17037,7931,0,2023-03-01T18:51:21.783515,1671305,1353,1861,-474,-1185,-792,-299,-59,167,-299
17038,7932,0,2023-03-01T18:51:21.788469,1671309,1353,1861,-474,-1185,-792,-299,-59,167,-299
17039,7933,0,2023-03-01T18:51:21.793296,1671314,1351,1864,-471,-1179,-788,-296,-64,172,-296
17040,7934,0,2023-03-01T18:51:21.798970,1671320,1351,1864,-471,-1179,-788,-296,-64,172,-296
17041,7935,0,2023-03-01T18:51:21.804619,1671325,1351,1864,-471,-1179,-788,-296,-64,172,-296
17042,7936,0,2023-03-01T18:51:21.809453,1671330,1351,1864,-471,-1179,-788,-296,-64,172,-296
17043,7937,0,2023-03-01T18:51:21.814226,1671335,1352,1865,-464,-1181,-796,-297,-64,172,-296
17044,7938,0,2023-03-01T18:51:21.819966,1671341,1352,1865,-464,-1181,-796,-297,-64,172,-296
17045,7939,0,2023-03-01T18:51:21.825291,1671347,1352,1865,-464,-1181,-796,-297,-64,172,-296
17046,7940,0,2023-03-01T18:51:21.830911,1671352,1348,1863,-480,-1183,-797,-293,-64,172,-296
17047,7941,0,2023-03-01T18:51:21.836211,1671357,1348,1863,-480,-1183,-797,-293,-64,172,-296
17048,7942,0,2023-03-01T18:51:21.841973,1671363,1348,1863,-480,-1183,-797,-293,-64,172,-296
17049,7943,0,2023-03-01T18:51:21.846993,1671367,1348,1863,-480,-1183,-797,-293,-64,172,-296
17050,7944,0,2023-03-01T18:51:21.851856,1671372,1352,1862,-471,-1191,-805,-294,-64,172,-296
17051,7945,0,2023-03-01T18:51:21.857080,1671378,1352,1862,-471,-1191,-805,-294,-64,172,-296
17052,7946,0,2023-03-01T18:51:21.862710,1671384,1352,1862,-471,-1191,-805,-294,-64,172,-296
17053,7947,0,2023-03-01T18:51:21.868152,1671390,1352,1862,-471,-1191,-805,-294,-64,172,-296
17054,7948,0,2023-03-01T18:51:21.873035,1671394,1350,1861,-478,-1190,-793,-302,-64,172,-296
17055,7949,0,2023-03-01T18:51:21.878448,1671400,1350,1861,-478,-1190,-793,-302,-64,172,-296
17056,7950,0,2023-03-01T18:51:21.883840,1671405,1350,1861,-478,-1190,-793,-302,-64,172,-296
17057,7951,0,2023-03-01T18:51:21.889338,1671410,1350,1861,-478,-1190,-793,-302,-64,172,-296
17058,7952,0,2023-03-01T18:51:21.893986,1671415,1349,1859,-478,-1199,-804,-297,-64,172,-296
17059,7953,0,2023-03-01T18:51:21.899667,1671420,1349,1859,-478,-1199,-804,-297,-64,172,-296
17060,7954,0,2023-03-01T18:51:21.905581,1671427,1349,1859,-478,-1199,-804,-297,-64,172,-296
17061,7955,0,2023-03-01T18:51:21.910585,1671432,1349,1861,-471,-1192,-802,-302,-57,177,-291
17062,7956,0,2023-03-01T18:51:21.915793,1671437,1349,1861,-471,-1192,-802,-302,-57,177,-291
17063,7957,0,2023-03-01T18:51:21.920662,1671442,1349,1861,-471,-1192,-802,-302,-57,177,-291
17064,7958,0,2023-03-01T18:51:21.926275,1671447,1349,1861,-471,-1192,-802,-302,-57,177,-291
17065,7959,0,2023-03-01T18:51:21.931765,1671453,1351,1867,-474,-1184,-798,-294,-57,177,-291
17066,7960,0,2023-03-01T18:51:21.937216,1671458,1351,1867,-474,-1184,-798,-294,-57,177,-291
17067,7961,0,2023-03-01T18:51:21.942399,1671463,1351,1867,-474,-1184,-798,-294,-57,177,-291
17068,7962,0,2023-03-01T18:51:21.949729,1671471,1351,1867,-474,-1184,-798,-294,-57,177,-291
17069,7963,0,2023-03-01T18:51:21.954861,1671476,1350,1862,-472,-1186,-796,-296,-57,177,-291
17070,7964,0,2023-03-01T18:51:21.960068,1671481,1350,1862,-472,-1186,-796,-296,-57,177,-291
17071,7965,0,2023-03-01T18:51:21.965396,1671486,1350,1862,-472,-1186,-796,-296,-57,177,-291
17072,7966,0,2023-03-01T18:51:21.970409,1671491,1350,1862,-472,-1186,-796,-296,-57,177,-291
17073,7967,0,2023-03-01T18:51:21.975310,1671496,1353,1862,-472,-1185,-788,-295,-57,177,-291
17074,7968,0,2023-03-01T18:51:21.980091,1671501,1353,1862,-472,-1185,-788,-295,-57,177,-291
17075,7969,0,2023-03-01T18:51:21.985734,1671506,1353,1862,-472,-1185,-788,-295,-57,177,-291
17076,7970,0,2023-03-01T18:51:21.990982,1671513,1353,1866,-477,-1185,-794,-297,-57,177,-291
17077,7971,0,2023-03-01T18:51:21.996685,1671518,1353,1866,-477,-1185,-794,-297,-57,177,-291
17078,7972,0,2023-03-01T18:51:22.001976,1671523,1353,1866,-477,-1185,-794,-297,-57,177,-291
17079,7973,0,2023-03-01T18:51:22.007532,1671528,1353,1866,-477,-1185,-794,-297,-57,177,-291
17080,7974,0,2023-03-01T18:51:22.012442,1671533,1352,1867,-471,-1187,-790,-299,-57,177,-291
17081,7975,0,2023-03-01T18:51:22.017951,1671539,1352,1867,-471,-1187,-790,-299,-57,177,-291
17082,7976,0,2023-03-01T18:51:22.023299,1671544,1352,1867,-471,-1187,-790,-299,-57,177,-291
17083,7977,0,2023-03-01T18:51:22.028015,1671549,1352,1867,-471,-1187,-790,-299,-57,177,-291
17084,7978,0,2023-03-01T18:51:22.032972,1671554,1349,1863,-477,-1193,-787,-297,-57,177,-291
17085,7979,0,2023-03-01T18:51:22.038301,1671560,1349,1863,-477,-1193,-787,-297,-57,177,-291
17086,7980,0,2023-03-01T18:51:22.043961,1671565,1349,1863,-477,-1193,-787,-297,-57,177,-291
17087,7981,0,2023-03-01T18:51:22.049187,1671570,1349,1863,-477,-1193,-787,-297,-57,177,-291
17088,7982,0,2023-03-01T18:51:22.054480,1671575,1352,1865,-472,-1197,-794,-303,-61,171,-289
17089,7983,0,2023-03-01T18:51:22.060035,1671581,1352,1865,-472,-1197,-794,-303,-61,171,-289
17090,7984,0,2023-03-01T18:51:22.065682,1671586,1352,1865,-472,-1197,-794,-303,-61,171,-289
17091,7985,0,2023-03-01T18:51:22.070637,1671591,1351,1859,-475,-1187,-799,-300,-61,171,-289
17092,7986,0,2023-03-01T18:51:22.076018,1671598,1351,1859,-475,-1187,-799,-300,-61,171,-289
17093,7987,0,2023-03-01T18:51:22.081720,1671603,1351,1859,-475,-1187,-799,-300,-61,171,-289
17094,7988,0,2023-03-01T18:51:22.087248,1671608,1351,1859,-475,-1187,-799,-300,-61,171,-289
17095,7989,0,2023-03-01T18:51:22.092283,1671613,1354,1863,-477,-1194,-790,-298,-61,171,-289
17096,7990,0,2023-03-01T18:51:22.097704,1671619,1354,1863,-477,-1194,-790,-298,-61,171,-289
17097,7991,0,2023-03-01T18:51:22.103204,1671624,1354,1863,-477,-1194,-790,-298,-61,171,-289
17098,7992,0,2023-03-01T18:51:22.108238,1671629,1354,1863,-477,-1194,-790,-298,-61,171,-289
17099,7993,0,2023-03-01T18:51:22.113227,1671634,1349,1857,-471,-1185,-782,-297,-61,171,-289
17100,7994,0,2023-03-01T18:51:22.119013,1671640,1349,1857,-471,-1185,-782,-297,-61,171,-289
17101,7995,0,2023-03-01T18:51:22.124730,1671646,1349,1857,-471,-1185,-782,-297,-61,171,-289
17102,7996,0,2023-03-01T18:51:22.129308,1671650,1349,1857,-471,-1185,-782,-297,-61,171,-289
17103,7997,0,2023-03-01T18:51:22.134069,1671655,1353,1864,-477,-1183,-779,-296,-61,171,-289
17104,7998,0,2023-03-01T18:51:22.139252,1671660,1353,1864,-477,-1183,-779,-296,-61,171,-289
17105,7999,0,2023-03-01T18:51:22.144425,1671665,1353,1864,-477,-1183,-779,-296,-61,171,-289
17106,8000,0,2023-03-01T18:51:22.149148,1671670,1353,1864,-477,-1183,-779,-296,-61,171,-289
17107,8001,0,2023-03-01T18:51:22.154222,1671675,1353,1864,-475,-1167,-772,-304,-61,171,-289
17108,8002,0,2023-03-01T18:51:22.160065,1671681,1353,1864,-475,-1167,-772,-304,-61,171,-289
17109,8003,0,2023-03-01T18:51:22.166237,1671687,1353,1864,-475,-1167,-772,-304,-61,171,-289
17110,8004,0,2023-03-01T18:51:22.171989,1671693,1350,1858,-473,-1164,-766,-300,-66,166,-292
17111,8005,0,2023-03-01T18:51:22.177791,1671699,1350,1858,-473,-1164,-766,-300,-66,166,-292
17112,8006,0,2023-03-01T18:51:22.182965,1671704,1350,1858,-473,-1164,-766,-300,-66,166,-292
17113,8007,0,2023-03-01T18:51:22.188315,1671709,1350,1858,-473,-1164,-766,-300,-66,166,-292
17114,8008,0,2023-03-01T18:51:22.193133,1671714,1354,1864,-472,-1162,-765,-299,-66,166,-292
17115,8009,0,2023-03-01T18:51:22.199213,1671720,1354,1864,-472,-1162,-765,-299,-66,166,-292
17116,8010,0,2023-03-01T18:51:22.204540,1671726,1354,1864,-472,-1162,-765,-299,-66,166,-292
17117,8011,0,2023-03-01T18:51:22.209977,1671731,1354,1864,-472,-1162,-765,-299,-66,166,-292
17118,8012,0,2023-03-01T18:51:22.214958,1671736,1350,1862,-472,-1166,-770,-299,-66,166,-292
17119,8013,0,2023-03-01T18:51:22.220422,1671741,1350,1862,-472,-1166,-770,-299,-66,166,-292
17120,8014,0,2023-03-01T18:51:22.225916,1671747,1350,1862,-472,-1166,-770,-299,-66,166,-292
17121,8015,0,2023-03-01T18:51:22.232407,1671753,1349,1860,-481,-1166,-758,-299,-66,166,-292
17122,8016,0,2023-03-01T18:51:22.238032,1671759,1349,1860,-481,-1166,-758,-299,-66,166,-292
17123,8017,0,2023-03-01T18:51:22.243387,1671764,1349,1860,-481,-1166,-758,-299,-66,166,-292
17124,8018,0,2023-03-01T18:51:22.248391,1671770,1349,1860,-481,-1166,-758,-299,-66,166,-292
17125,8019,0,2023-03-01T18:51:22.253873,1671775,1350,1863,-475,-1172,-766,-307,-66,166,-292
17126,8020,0,2023-03-01T18:51:22.260152,1671781,1350,1863,-475,-1172,-766,-307,-66,166,-292
17127,8021,0,2023-03-01T18:51:22.264551,1671786,1350,1863,-475,-1172,-766,-307,-66,166,-292
17128,8022,0,2023-03-01T18:51:22.269619,1671790,1350,1863,-475,-1172,-766,-307,-66,166,-292
17129,8023,0,2023-03-01T18:51:22.274472,1671795,1355,1858,-475,-1174,-767,-298,-66,166,-292
17130,8024,0,2023-03-01T18:51:22.281872,1671802,1355,1858,-475,-1174,-767,-298,-66,166,-292
17131,8025,0,2023-03-01T18:51:22.287666,1671809,1355,1858,-475,-1174,-767,-298,-66,166,-292
17132,8026,0,2023-03-01T18:51:22.292443,1671814,1351,1861,-476,-1179,-774,-299,-66,166,-292
17133,8027,0,2023-03-01T18:51:22.298192,1671819,1351,1861,-476,-1179,-774,-299,-66,166,-292
17134,8028,0,2023-03-01T18:51:22.303197,1671824,1351,1861,-476,-1179,-774,-299,-66,166,-292
17135,8029,0,2023-03-01T18:51:22.309172,1671830,1351,1861,-476,-1179,-774,-299,-66,166,-292
17136,8030,0,2023-03-01T18:51:22.314118,1671835,1352,1862,-475,-1176,-779,-297,-70,164,-290
17137,8031,0,2023-03-01T18:51:22.319791,1671841,1352,1862,-475,-1176,-779,-297,-70,164,-290
17138,8032,0,2023-03-01T18:51:22.324528,1671845,1352,1862,-475,-1176,-779,-297,-70,164,-290
17139,8033,0,2023-03-01T18:51:22.330066,1671852,1352,1862,-475,-1176,-779,-297,-70,164,-290
17140,8034,0,2023-03-01T18:51:22.335455,1671857,1351,1860,-471,-1179,-783,-296,-70,164,-290
17141,8035,0,2023-03-01T18:51:22.341126,1671862,1351,1860,-471,-1179,-783,-296,-70,164,-290
17142,8036,0,2023-03-01T18:51:22.347467,1671868,1351,1860,-471,-1179,-783,-296,-70,164,-290
17143,8037,0,2023-03-01T18:51:22.352475,1671873,1351,1857,-479,-1174,-787,-303,-70,164,-290
17144,8038,0,2023-03-01T18:51:22.358286,1671879,1351,1857,-479,-1174,-787,-303,-70,164,-290
17145,8039,0,2023-03-01T18:51:22.364085,1671885,1351,1857,-479,-1174,-787,-303,-70,164,-290
17146,8040,0,2023-03-01T18:51:22.368884,1671889,1351,1857,-479,-1174,-787,-303,-70,164,-290
17147,8041,0,2023-03-01T18:51:22.373509,1671895,1351,1861,-476,-1188,-799,-302,-70,164,-290
17148,8042,0,2023-03-01T18:51:22.379276,1671900,1351,1861,-476,-1188,-799,-302,-70,164,-290
17149,8043,0,2023-03-01T18:51:22.384472,1671906,1351,1861,-476,-1188,-799,-302,-70,164,-290
17150,8044,0,2023-03-01T18:51:22.390062,1671911,1351,1861,-476,-1188,-799,-302,-70,164,-290
17151,8045,0,2023-03-01T18:51:22.395155,1671916,1352,1859,-474,-1189,-791,-295,-70,164,-290
17152,8046,0,2023-03-01T18:51:22.400782,1671922,1352,1859,-474,-1189,-791,-295,-70,164,-290
17153,8047,0,2023-03-01T18:51:22.405947,1671927,1352,1859,-474,-1189,-791,-295,-70,164,-290
17154,8048,0,2023-03-01T18:51:22.411063,1671932,1352,1861,-479,-1189,-786,-302,-70,164,-290
17155,8049,0,2023-03-01T18:51:22.416391,1671938,1352,1861,-479,-1189,-786,-302,-70,164,-290
17156,8050,0,2023-03-01T18:51:22.421786,1671943,1352,1861,-479,-1189,-786,-302,-70,164,-290
17157,8051,0,2023-03-01T18:51:22.427543,1671949,1352,1861,-479,-1189,-786,-302,-70,164,-290
17158,8052,0,2023-03-01T18:51:22.432502,1671953,1352,1862,-469,-1184,-779,-299,-60,168,-296
17159,8053,0,2023-03-01T18:51:22.438068,1671959,1352,1862,-469,-1184,-779,-299,-60,168,-296
17160,8054,0,2023-03-01T18:51:22.443652,1671964,1352,1862,-469,-1184,-779,-299,-60,168,-296
17161,8055,0,2023-03-01T18:51:22.448384,1671969,1352,1862,-469,-1184,-779,-299,-60,168,-296
17162,8056,0,2023-03-01T18:51:22.453909,1671974,1355,1860,-471,-1184,-791,-297,-60,168,-296
17163,8057,0,2023-03-01T18:51:22.459320,1671981,1355,1860,-471,-1184,-791,-297,-60,168,-296
17164,8058,0,2023-03-01T18:51:22.465009,1671986,1355,1860,-471,-1184,-791,-297,-60,168,-296
17165,8059,0,2023-03-01T18:51:22.470589,1671992,1355,1860,-471,-1184,-791,-297,-60,168,-296
17166,8060,0,2023-03-01T18:51:22.475371,1671997,1353,1862,-475,-1179,-781,-294,-60,168,-296
17167,8061,0,2023-03-01T18:51:22.480738,1672002,1353,1862,-475,-1179,-781,-294,-60,168,-296
17168,8062,0,2023-03-01T18:51:22.485397,1672006,1353,1862,-475,-1179,-781,-294,-60,168,-296
17169,8063,0,2023-03-01T18:51:22.490407,1672011,1353,1862,-475,-1179,-781,-294,-60,168,-296
17170,8064,0,2023-03-01T18:51:22.495437,1672016,1354,1858,-472,-1169,-771,-294,-60,168,-296
17171,8065,0,2023-03-01T18:51:22.501421,1672023,1354,1858,-472,-1169,-771,-294,-60,168,-296
17172,8066,0,2023-03-01T18:51:22.507410,1672029,1354,1858,-472,-1169,-771,-294,-60,168,-296
17173,8067,0,2023-03-01T18:51:22.512299,1672033,1355,1865,-482,-1183,-786,-302,-60,168,-296
17174,8068,0,2023-03-01T18:51:22.518433,1672039,1355,1865,-482,-1183,-786,-302,-60,168,-296
17175,8069,0,2023-03-01T18:51:22.523925,1672045,1355,1865,-482,-1183,-786,-302,-60,168,-296
17176,8070,0,2023-03-01T18:51:22.528936,1672050,1355,1865,-482,-1183,-786,-302,-60,168,-296
17177,8071,0,2023-03-01T18:51:22.534134,1672055,1353,1858,-474,-1181,-780,-294,-60,168,-296
17178,8072,0,2023-03-01T18:51:22.538950,1672060,1353,1858,-474,-1181,-780,-294,-60,168,-296
17179,8073,0,2023-03-01T18:51:22.544358,1672066,1353,1858,-474,-1181,-780,-294,-60,168,-296
17180,8074,0,2023-03-01T18:51:22.550139,1672072,1353,1858,-474,-1181,-780,-294,-60,168,-296
17181,8075,0,2023-03-01T18:51:22.555718,1672076,1355,1857,-472,-1186,-789,-292,-60,168,-296
17182,8076,0,2023-03-01T18:51:22.561478,1672083,1355,1857,-472,-1186,-789,-292,-60,168,-296
17183,8077,0,2023-03-01T18:51:22.567339,1672088,1355,1857,-472,-1186,-789,-292,-60,168,-296
17184,8078,0,2023-03-01T18:51:22.572023,1672093,1355,1868,-472,-1188,-792,-301,-60,162,-290
17185,8079,0,2023-03-01T18:51:22.577646,1672098,1355,1868,-472,-1188,-792,-301,-60,162,-290
17186,8080,0,2023-03-01T18:51:22.583117,1672104,1355,1868,-472,-1188,-792,-301,-60,162,-290
17187,8081,0,2023-03-01T18:51:22.588647,1672110,1355,1868,-472,-1188,-792,-301,-60,162,-290
17188,8082,0,2023-03-01T18:51:22.593329,1672115,1349,1858,-471,-1180,-798,-296,-60,162,-290
17189,8083,0,2023-03-01T18:51:22.598659,1672120,1349,1858,-471,-1180,-798,-296,-60,162,-290
17190,8084,0,2023-03-01T18:51:22.603247,1672124,1349,1858,-471,-1180,-798,-296,-60,162,-290
17191,8085,0,2023-03-01T18:51:22.608240,1672129,1349,1858,-471,-1180,-798,-296,-60,162,-290
17192,8086,0,2023-03-01T18:51:22.613813,1672135,1353,1862,-478,-1181,-803,-301,-60,162,-290
17193,8087,0,2023-03-01T18:51:22.619968,1672141,1353,1862,-478,-1181,-803,-301,-60,162,-290
17194,8088,0,2023-03-01T18:51:22.625402,1672146,1353,1862,-478,-1181,-803,-301,-60,162,-290
17195,8089,0,2023-03-01T18:51:22.630061,1672151,1353,1862,-478,-1181,-803,-301,-60,162,-290
17196,8090,0,2023-03-01T18:51:22.635213,1672156,1355,1862,-480,-1179,-789,-292,-60,162,-290
17197,8091,0,2023-03-01T18:51:22.640689,1672162,1355,1862,-480,-1179,-789,-292,-60,162,-290
17198,8092,0,2023-03-01T18:51:22.646071,1672167,1355,1862,-480,-1179,-789,-292,-60,162,-290
17199,8093,0,2023-03-01T18:51:22.650954,1672172,1355,1862,-480,-1179,-789,-292,-60,162,-290
17200,8094,0,2023-03-01T18:51:22.655738,1672177,1354,1860,-473,-1173,-773,-294,-60,162,-290
17201,8095,0,2023-03-01T18:51:22.661384,1672182,1354,1860,-473,-1173,-773,-294,-60,162,-290
17202,8096,0,2023-03-01T18:51:22.666072,1672187,1354,1860,-473,-1173,-773,-294,-60,162,-290
17203,8097,0,2023-03-01T18:51:22.671222,1672193,1354,1860,-473,-1173,-773,-294,-60,162,-290
17204,8098,0,2023-03-01T18:51:22.675942,1672197,1356,1862,-476,-1181,-776,-301,-60,162,-290
17205,8099,0,2023-03-01T18:51:22.682539,1672204,1356,1862,-476,-1181,-776,-301,-60,162,-290
17206,8100,0,2023-03-01T18:51:22.688715,1672209,1356,1862,-476,-1181,-776,-301,-60,162,-290
17207,8101,0,2023-03-01T18:51:22.693904,1672215,1354,1862,-478,-1184,-786,-296,-62,162,-290
17208,8102,0,2023-03-01T18:51:22.699728,1672221,1354,1862,-478,-1184,-786,-296,-62,162,-290
17209,8103,0,2023-03-01T18:51:22.704934,1672226,1354,1862,-478,-1184,-786,-296,-62,162,-290
17210,8104,0,2023-03-01T18:51:22.710514,1672231,1354,1862,-478,-1184,-786,-296,-62,162,-290
17211,8105,0,2023-03-01T18:51:22.715443,1672237,1353,1860,-469,-1189,-797,-296,-62,162,-290
17212,8106,0,2023-03-01T18:51:22.721210,1672242,1353,1860,-469,-1189,-797,-296,-62,162,-290
17213,8107,0,2023-03-01T18:51:22.726928,1672248,1353,1860,-469,-1189,-797,-296,-62,162,-290
17214,8108,0,2023-03-01T18:51:22.732095,1672253,1356,1862,-478,-1197,-797,-299,-62,162,-290
17215,8109,0,2023-03-01T18:51:22.737557,1672258,1356,1862,-478,-1197,-797,-299,-62,162,-290
17216,8110,0,2023-03-01T18:51:22.743032,1672264,1356,1862,-478,-1197,-797,-299,-62,162,-290
17217,8111,0,2023-03-01T18:51:22.749437,1672270,1356,1862,-478,-1197,-797,-299,-62,162,-290
17218,8112,0,2023-03-01T18:51:22.755568,1672275,1354,1858,-473,-1193,-795,-294,-62,162,-290
17219,8113,0,2023-03-01T18:51:22.761387,1672283,1354,1858,-473,-1193,-795,-294,-62,162,-290
17220,8114,0,2023-03-01T18:51:22.766848,1672288,1354,1858,-473,-1193,-795,-294,-62,162,-290
17221,8115,0,2023-03-01T18:51:22.772442,1672294,1356,1861,-481,-1190,-794,-300,-62,162,-290
17222,8116,0,2023-03-01T18:51:22.778874,1672299,1356,1861,-481,-1190,-794,-300,-62,162,-290
17223,8117,0,2023-03-01T18:51:22.784654,1672305,1356,1861,-481,-1190,-794,-300,-62,162,-290
17224,8118,0,2023-03-01T18:51:22.790271,1672311,1356,1861,-481,-1190,-794,-300,-62,162,-290
17225,8119,0,2023-03-01T18:51:22.795652,1672316,1354,1861,-483,-1185,-795,-293,-62,162,-290
17226,8120,0,2023-03-01T18:51:22.801344,1672323,1354,1861,-483,-1185,-795,-293,-62,162,-290
17227,8121,0,2023-03-01T18:51:22.806914,1672328,1354,1861,-483,-1185,-795,-293,-62,162,-290
17228,8122,0,2023-03-01T18:51:22.812077,1672333,1354,1860,-474,-1175,-784,-299,-57,165,-281
17229,8123,0,2023-03-01T18:51:22.817440,1672338,1354,1860,-474,-1175,-784,-299,-57,165,-281
17230,8124,0,2023-03-01T18:51:22.822725,1672344,1354,1860,-474,-1175,-784,-299,-57,165,-281
17231,8125,0,2023-03-01T18:51:22.828890,1672349,1354,1860,-474,-1175,-784,-299,-57,165,-281
17232,8126,0,2023-03-01T18:51:22.834383,1672355,1355,1861,-474,-1177,-788,-292,-57,165,-281
17233,8127,0,2023-03-01T18:51:22.839583,1672360,1355,1861,-474,-1177,-788,-292,-57,165,-281
17234,8128,0,2023-03-01T18:51:22.844370,1672366,1355,1861,-474,-1177,-788,-292,-57,165,-281
17235,8129,0,2023-03-01T18:51:22.849342,1672371,1355,1861,-474,-1177,-788,-292,-57,165,-281
17236,8130,0,2023-03-01T18:51:22.854224,1672375,1356,1860,-475,-1175,-779,-298,-57,165,-281
17237,8131,0,2023-03-01T18:51:22.860263,1672381,1356,1860,-475,-1175,-779,-298,-57,165,-281
17238,8132,0,2023-03-01T18:51:22.866150,1672387,1356,1860,-475,-1175,-779,-298,-57,165,-281
17239,8133,0,2023-03-01T18:51:22.871969,1672393,1354,1863,-479,-1187,-784,-307,-57,165,-281
17240,8134,0,2023-03-01T18:51:22.877846,1672398,1354,1863,-479,-1187,-784,-307,-57,165,-281
17241,8135,0,2023-03-01T18:51:22.883262,1672404,1354,1863,-479,-1187,-784,-307,-57,165,-281
17242,8136,0,2023-03-01T18:51:22.888935,1672410,1354,1863,-479,-1187,-784,-307,-57,165,-281
17243,8137,0,2023-03-01T18:51:22.893857,1672415,1353,1861,-480,-1184,-783,-302,-57,165,-281
17244,8138,0,2023-03-01T18:51:22.899378,1672421,1353,1861,-480,-1184,-783,-302,-57,165,-281
17245,8139,0,2023-03-01T18:51:22.905155,1672426,1353,1861,-480,-1184,-783,-302,-57,165,-281
17246,8140,0,2023-03-01T18:51:22.910132,1672431,1353,1861,-480,-1184,-783,-302,-57,165,-281
17247,8141,0,2023-03-01T18:51:22.915244,1672436,1352,1858,-481,-1194,-784,-299,-57,165,-281
17248,8142,0,2023-03-01T18:51:22.921047,1672442,1352,1858,-481,-1194,-784,-299,-57,165,-281
17249,8143,0,2023-03-01T18:51:22.926500,1672448,1352,1858,-481,-1194,-784,-299,-57,165,-281
17250,8144,0,2023-03-01T18:51:22.931510,1672453,1352,1858,-481,-1194,-784,-299,-57,165,-281
17251,8145,0,2023-03-01T18:51:22.936321,1672458,1352,1862,-474,-1201,-793,-300,-57,165,-281
17252,8146,0,2023-03-01T18:51:22.944716,1672465,1352,1862,-474,-1201,-793,-300,-57,165,-281
17253,8147,0,2023-03-01T18:51:22.949507,1672471,1352,1862,-474,-1201,-793,-300,-57,165,-281
17254,8148,0,2023-03-01T18:51:22.954072,1672475,1353,1862,-470,-1193,-793,-296,-63,167,-283
17255,8149,0,2023-03-01T18:51:22.959636,1672480,1353,1862,-470,-1193,-793,-296,-63,167,-283
17256,8150,0,2023-03-01T18:51:22.964976,1672486,1353,1862,-470,-1193,-793,-296,-63,167,-283
17257,8151,0,2023-03-01T18:51:22.969700,1672491,1353,1862,-470,-1193,-793,-296,-63,167,-283
17258,8152,0,2023-03-01T18:51:22.974542,1672496,1353,1860,-470,-1187,-792,-291,-63,167,-283
17259,8153,0,2023-03-01T18:51:22.979696,1672501,1353,1860,-470,-1187,-792,-291,-63,167,-283
17260,8154,0,2023-03-01T18:51:22.984979,1672506,1353,1860,-470,-1187,-792,-291,-63,167,-283
17261,8155,0,2023-03-01T18:51:22.989965,1672511,1353,1860,-470,-1187,-792,-291,-63,167,-283
17262,8156,0,2023-03-01T18:51:22.994816,1672516,1358,1861,-485,-1189,-796,-300,-63,167,-283
17263,8157,0,2023-03-01T18:51:23.000585,1672521,1358,1861,-485,-1189,-796,-300,-63,167,-283
17264,8158,0,2023-03-01T18:51:23.005971,1672527,1358,1861,-485,-1189,-796,-300,-63,167,-283
17265,8159,0,2023-03-01T18:51:23.010580,1672531,1358,1861,-485,-1189,-796,-300,-63,167,-283
17266,8160,0,2023-03-01T18:51:23.015225,1672537,1357,1860,-475,-1188,-789,-300,-63,167,-283
17267,8161,0,2023-03-01T18:51:23.020753,1672542,1357,1860,-475,-1188,-789,-300,-63,167,-283
17268,8162,0,2023-03-01T18:51:23.025943,1672547,1357,1860,-475,-1188,-789,-300,-63,167,-283
17269,8163,0,2023-03-01T18:51:23.031541,1672553,1357,1860,-475,-1188,-789,-300,-63,167,-283
17270,8164,0,2023-03-01T18:51:23.036404,1672557,1355,1860,-481,-1190,-794,-306,-63,167,-283
17271,8165,0,2023-03-01T18:51:23.042491,1672563,1355,1860,-481,-1190,-794,-306,-63,167,-283
17272,8166,0,2023-03-01T18:51:23.047660,1672568,1355,1860,-481,-1190,-794,-306,-63,167,-283
17273,8167,0,2023-03-01T18:51:23.053259,1672574,1358,1861,-483,-1182,-781,-302,-63,167,-283
17274,8168,0,2023-03-01T18:51:23.059095,1672580,1358,1861,-483,-1182,-781,-302,-63,167,-283
17275,8169,0,2023-03-01T18:51:23.064555,1672586,1358,1861,-483,-1182,-781,-302,-63,167,-283
17276,8170,0,2023-03-01T18:51:23.069293,1672590,1358,1861,-483,-1182,-781,-302,-63,167,-283
17277,8171,0,2023-03-01T18:51:23.074131,1672595,1353,1859,-470,-1171,-782,-304,-60,172,-290
17278,8172,0,2023-03-01T18:51:23.080017,1672601,1353,1859,-470,-1171,-782,-304,-60,172,-290
17279,8173,0,2023-03-01T18:51:23.085773,1672607,1353,1859,-470,-1171,-782,-304,-60,172,-290
17280,8174,0,2023-03-01T18:51:23.090876,1672611,1353,1859,-470,-1171,-782,-304,-60,172,-290
17281,8175,0,2023-03-01T18:51:23.096271,1672617,1356,1863,-480,-1176,-767,-308,-60,172,-290
17282,8176,0,2023-03-01T18:51:23.100715,1672622,1356,1863,-480,-1176,-767,-308,-60,172,-290
17283,8177,0,2023-03-01T18:51:23.107140,1672628,1356,1863,-480,-1176,-767,-308,-60,172,-290
17284,8178,0,2023-03-01T18:51:23.111875,1672633,1352,1860,-473,-1167,-766,-310,-60,172,-290
17285,8179,0,2023-03-01T18:51:23.117262,1672638,1352,1860,-473,-1167,-766,-310,-60,172,-290
17286,8180,0,2023-03-01T18:51:23.122697,1672644,1352,1860,-473,-1167,-766,-310,-60,172,-290
17287,8181,0,2023-03-01T18:51:23.127591,1672648,1352,1860,-473,-1167,-766,-310,-60,172,-290
17288,8182,0,2023-03-01T18:51:23.132367,1672653,1355,1861,-476,-1170,-765,-305,-60,172,-290
17289,8183,0,2023-03-01T18:51:23.137896,1672658,1355,1861,-476,-1170,-765,-305,-60,172,-290
17290,8184,0,2023-03-01T18:51:23.143394,1672665,1355,1861,-476,-1170,-765,-305,-60,172,-290
17291,8185,0,2023-03-01T18:51:23.148996,1672670,1355,1861,-476,-1170,-765,-305,-60,172,-290
17292,8186,0,2023-03-01T18:51:23.153598,1672675,1358,1862,-473,-1170,-766,-295,-60,172,-290
17293,8187,0,2023-03-01T18:51:23.159288,1672680,1358,1862,-473,-1170,-766,-295,-60,172,-290
17294,8188,0,2023-03-01T18:51:23.165424,1672686,1358,1862,-473,-1170,-766,-295,-60,172,-290
17295,8189,0,2023-03-01T18:51:23.171080,1672692,1358,1862,-473,-1170,-766,-295,-60,172,-290
17296,8190,0,2023-03-01T18:51:23.175910,1672697,1354,1858,-477,-1164,-764,-311,-60,172,-290
17297,8191,0,2023-03-01T18:51:23.181572,1672702,1354,1858,-477,-1164,-764,-311,-60,172,-290
17298,8192,0,2023-03-01T18:51:23.186557,1672708,1354,1858,-477,-1164,-764,-311,-60,172,-290
17299,8193,0,2023-03-01T18:51:23.191870,1672713,1354,1858,-477,-1164,-764,-311,-60,172,-290
17300,8194,0,2023-03-01T18:51:23.196771,1672718,1355,1857,-483,-1179,-762,-305,-60,172,-290
17301,8195,0,2023-03-01T18:51:23.202411,1672724,1355,1857,-483,-1179,-762,-305,-60,172,-290
17302,8196,0,2023-03-01T18:51:23.208171,1672729,1355,1857,-483,-1179,-762,-305,-60,172,-290
17303,8197,0,2023-03-01T18:51:23.214604,1672734,1356,1859,-471,-1175,-764,-305,-62,168,-286
17304,8198,0,2023-03-01T18:51:23.221097,1672741,1356,1859,-471,-1175,-764,-305,-62,168,-286
17305,8199,0,2023-03-01T18:51:23.227475,1672749,1356,1859,-471,-1175,-764,-305,-62,168,-286
17306,8200,0,2023-03-01T18:51:23.232378,1672754,1353,1863,-479,-1175,-776,-311,-62,168,-286
17307,8201,0,2023-03-01T18:51:23.238517,1672759,1353,1863,-479,-1175,-776,-311,-62,168,-286
17308,8202,0,2023-03-01T18:51:23.244660,1672766,1353,1863,-479,-1175,-776,-311,-62,168,-286
17309,8203,0,2023-03-01T18:51:23.250315,1672771,1353,1863,-479,-1175,-776,-311,-62,168,-286
17310,8204,0,2023-03-01T18:51:23.255019,1672776,1357,1863,-477,-1172,-772,-305,-62,168,-286
17311,8205,0,2023-03-01T18:51:23.260376,1672781,1357,1863,-477,-1172,-772,-305,-62,168,-286
17312,8206,0,2023-03-01T18:51:23.266467,1672787,1357,1863,-477,-1172,-772,-305,-62,168,-286
17313,8207,0,2023-03-01T18:51:23.272539,1672793,1357,1863,-477,-1172,-772,-305,-62,168,-286
17314,8208,0,2023-03-01T18:51:23.278055,1672799,1354,1857,-480,-1168,-768,-293,-62,168,-286
17315,8209,0,2023-03-01T18:51:23.284414,1672805,1354,1857,-480,-1168,-768,-293,-62,168,-286
17316,8210,0,2023-03-01T18:51:23.290689,1672812,1354,1857,-480,-1168,-768,-293,-62,168,-286
17317,8211,0,2023-03-01T18:51:23.296484,1672817,1355,1861,-476,-1164,-766,-304,-62,168,-286
17318,8212,0,2023-03-01T18:51:23.302124,1672823,1355,1861,-476,-1164,-766,-304,-62,168,-286
17319,8213,0,2023-03-01T18:51:23.307221,1672828,1355,1861,-476,-1164,-766,-304,-62,168,-286
17320,8214,0,2023-03-01T18:51:23.312001,1672834,1357,1860,-480,-1155,-769,-302,-62,168,-286
17321,8215,0,2023-03-01T18:51:23.317804,1672839,1357,1860,-480,-1155,-769,-302,-62,168,-286
17322,8216,0,2023-03-01T18:51:23.323718,1672845,1357,1860,-480,-1155,-769,-302,-62,168,-286
17323,8217,0,2023-03-01T18:51:23.328894,1672850,1357,1860,-480,-1155,-769,-302,-62,168,-286
17324,8218,0,2023-03-01T18:51:23.334598,1672855,1354,1856,-474,-1172,-765,-302,-62,170,-294
17325,8219,0,2023-03-01T18:51:23.340911,1672862,1354,1856,-474,-1172,-765,-302,-62,170,-294
17326,8220,0,2023-03-01T18:51:23.346508,1672867,1354,1856,-474,-1172,-765,-302,-62,170,-294
17327,8221,0,2023-03-01T18:51:23.352271,1672872,1354,1856,-474,-1172,-765,-302,-62,170,-294
17328,8222,0,2023-03-01T18:51:23.357508,1672879,1357,1863,-474,-1173,-756,-301,-62,170,-294
17329,8223,0,2023-03-01T18:51:23.363552,1672885,1357,1863,-474,-1173,-756,-301,-62,170,-294
17330,8224,0,2023-03-01T18:51:23.369815,1672891,1357,1863,-474,-1173,-756,-301,-62,170,-294
17331,8225,0,2023-03-01T18:51:23.374702,1672896,1356,1860,-472,-1169,-761,-298,-62,170,-294
17332,8226,0,2023-03-01T18:51:23.380835,1672901,1356,1860,-472,-1169,-761,-298,-62,170,-294
17333,8227,0,2023-03-01T18:51:23.387800,1672908,1356,1860,-472,-1169,-761,-298,-62,170,-294
17334,8228,0,2023-03-01T18:51:23.395330,1672916,1355,1860,-472,-1168,-766,-309,-62,170,-294
17335,8229,0,2023-03-01T18:51:23.401123,1672922,1355,1860,-472,-1168,-766,-309,-62,170,-294
17336,8230,0,2023-03-01T18:51:23.406592,1672928,1355,1860,-472,-1168,-766,-309,-62,170,-294
17337,8231,0,2023-03-01T18:51:23.411698,1672932,1355,1860,-472,-1168,-766,-309,-62,170,-294
17338,8232,0,2023-03-01T18:51:23.416537,1672937,1356,1862,-480,-1173,-776,-303,-62,170,-294
17339,8233,0,2023-03-01T18:51:23.422921,1672944,1356,1862,-480,-1173,-776,-303,-62,170,-294
17340,8234,0,2023-03-01T18:51:23.428456,1672949,1356,1862,-480,-1173,-776,-303,-62,170,-294
17341,8235,0,2023-03-01T18:51:23.433226,1672954,1356,1858,-480,-1183,-793,-302,-62,170,-294
17342,8236,0,2023-03-01T18:51:23.438945,1672960,1356,1858,-480,-1183,-793,-302,-62,170,-294
17343,8237,0,2023-03-01T18:51:23.444211,1672965,1356,1858,-480,-1183,-793,-302,-62,170,-294
17344,8238,0,2023-03-01T18:51:23.449224,1672970,1356,1858,-480,-1183,-793,-302,-62,170,-294
17345,8239,0,2023-03-01T18:51:23.454172,1672975,1359,1860,-476,-1193,-790,-310,-62,170,-294
17346,8240,0,2023-03-01T18:51:23.459350,1672980,1359,1860,-476,-1193,-790,-310,-62,170,-294
17347,8241,0,2023-03-01T18:51:23.464486,1672985,1359,1860,-476,-1193,-790,-310,-62,170,-294
17348,8242,0,2023-03-01T18:51:23.470834,1672991,1359,1860,-476,-1193,-790,-310,-62,170,-294
17349,8243,0,2023-03-01T18:51:23.476098,1672996,1356,1859,-475,-1188,-780,-300,-62,162,-296
17350,8244,0,2023-03-01T18:51:23.482850,1673004,1356,1859,-475,-1188,-780,-300,-62,162,-296
17351,8245,0,2023-03-01T18:51:23.488540,1673010,1356,1859,-475,-1188,-780,-300,-62,162,-296
17352,8246,0,2023-03-01T18:51:23.493328,1673014,1354,1861,-475,-1183,-785,-301,-62,162,-296
17353,8247,0,2023-03-01T18:51:23.499240,1673020,1354,1861,-475,-1183,-785,-301,-62,162,-296
17354,8248,0,2023-03-01T18:51:23.505063,1673026,1354,1861,-475,-1183,-785,-301,-62,162,-296
17355,8249,0,2023-03-01T18:51:23.510480,1673031,1354,1861,-475,-1183,-785,-301,-62,162,-296
17356,8250,0,2023-03-01T18:51:23.515519,1673036,1359,1859,-479,-1179,-778,-309,-62,162,-296
17357,8251,0,2023-03-01T18:51:23.521396,1673042,1359,1859,-479,-1179,-778,-309,-62,162,-296
17358,8252,0,2023-03-01T18:51:23.527205,1673048,1359,1859,-479,-1179,-778,-309,-62,162,-296
17359,8253,0,2023-03-01T18:51:23.532466,1673053,1359,1859,-479,-1179,-778,-309,-62,162,-296
17360,8254,0,2023-03-01T18:51:23.537559,1673059,1356,1858,-472,-1178,-779,-298,-62,162,-296
17361,8255,0,2023-03-01T18:51:23.543583,1673065,1356,1858,-472,-1178,-779,-298,-62,162,-296
17362,8256,0,2023-03-01T18:51:23.547911,1673069,1356,1858,-472,-1178,-779,-298,-62,162,-296
17363,8257,0,2023-03-01T18:51:23.553227,1673074,1354,1857,-477,-1168,-788,-303,-62,162,-296
17364,8258,0,2023-03-01T18:51:23.559107,1673080,1354,1857,-477,-1168,-788,-303,-62,162,-296
17365,8259,0,2023-03-01T18:51:23.564553,1673085,1354,1857,-477,-1168,-788,-303,-62,162,-296
17366,8260,0,2023-03-01T18:51:23.569527,1673091,1354,1857,-477,-1168,-788,-303,-62,162,-296
17367,8261,0,2023-03-01T18:51:23.574573,1673096,1358,1861,-475,-1165,-797,-299,-62,162,-296
17368,8262,0,2023-03-01T18:51:23.580080,1673101,1358,1861,-475,-1165,-797,-299,-62,162,-296
17369,8263,0,2023-03-01T18:51:23.585963,1673107,1358,1861,-475,-1165,-797,-299,-62,162,-296
17370,8264,0,2023-03-01T18:51:23.591057,1673112,1358,1861,-475,-1165,-797,-299,-62,162,-296
17371,8265,0,2023-03-01T18:51:23.596030,1673117,1359,1861,-473,-1175,-785,-301,-64,162,-284
17372,8266,0,2023-03-01T18:51:23.601493,1673122,1359,1861,-473,-1175,-785,-301,-64,162,-284
17373,8267,0,2023-03-01T18:51:23.606977,1673127,1359,1861,-473,-1175,-785,-301,-64,162,-284
17374,8268,0,2023-03-01T18:51:23.611823,1673133,1359,1861,-473,-1175,-785,-301,-64,162,-284
17375,8269,0,2023-03-01T18:51:23.616836,1673138,1355,1859,-477,-1186,-779,-294,-64,162,-284
17376,8270,0,2023-03-01T18:51:23.622909,1673144,1355,1859,-477,-1186,-779,-294,-64,162,-284
17377,8271,0,2023-03-01T18:51:23.627562,1673149,1355,1859,-477,-1186,-779,-294,-64,162,-284
17378,8272,0,2023-03-01T18:51:23.631965,1673153,1355,1859,-477,-1186,-779,-294,-64,162,-284
17379,8273,0,2023-03-01T18:51:23.637021,1673158,1353,1861,-481,-1187,-782,-293,-64,162,-284
17380,8274,0,2023-03-01T18:51:23.642788,1673164,1353,1861,-481,-1187,-782,-293,-64,162,-284
17381,8275,0,2023-03-01T18:51:23.648400,1673169,1353,1861,-481,-1187,-782,-293,-64,162,-284
17382,8276,0,2023-03-01T18:51:23.653475,1673175,1356,1857,-477,-1179,-776,-299,-64,162,-284
17383,8277,0,2023-03-01T18:51:23.658680,1673180,1356,1857,-477,-1179,-776,-299,-64,162,-284
17384,8278,0,2023-03-01T18:51:23.664038,1673185,1356,1857,-477,-1179,-776,-299,-64,162,-284
17385,8279,0,2023-03-01T18:51:23.668794,1673190,1356,1857,-477,-1179,-776,-299,-64,162,-284
17386,8280,0,2023-03-01T18:51:23.673577,1673195,1357,1857,-473,-1177,-784,-303,-64,162,-284
17387,8281,0,2023-03-01T18:51:23.679099,1673200,1357,1857,-473,-1177,-784,-303,-64,162,-284
17388,8282,0,2023-03-01T18:51:23.684704,1673206,1357,1857,-473,-1177,-784,-303,-64,162,-284
17389,8283,0,2023-03-01T18:51:23.689414,1673210,1357,1857,-473,-1177,-784,-303,-64,162,-284
17390,8284,0,2023-03-01T18:51:23.694405,1673216,1358,1857,-474,-1169,-774,-298,-64,162,-284
17391,8285,0,2023-03-01T18:51:23.700297,1673222,1358,1857,-474,-1169,-774,-298,-64,162,-284
17392,8286,0,2023-03-01T18:51:23.705249,1673226,1358,1857,-474,-1169,-774,-298,-64,162,-284
17393,8287,0,2023-03-01T18:51:23.709881,1673231,1358,1857,-474,-1169,-774,-298,-64,162,-284
17394,8288,0,2023-03-01T18:51:23.714833,1673236,1356,1859,-481,-1169,-768,-297,-63,167,-281
17395,8289,0,2023-03-01T18:51:23.720337,1673241,1356,1859,-481,-1169,-768,-297,-63,167,-281
17396,8290,0,2023-03-01T18:51:23.725349,1673246,1356,1859,-481,-1169,-768,-297,-63,167,-281
17397,8291,0,2023-03-01T18:51:23.730003,1673251,1356,1859,-481,-1169,-768,-297,-63,167,-281
17398,8292,0,2023-03-01T18:51:23.734971,1673256,1356,1858,-478,-1179,-774,-294,-63,167,-281
17399,8293,0,2023-03-01T18:51:23.739596,1673261,1356,1858,-478,-1179,-774,-294,-63,167,-281
17400,8294,0,2023-03-01T18:51:23.744649,1673266,1356,1858,-478,-1179,-774,-294,-63,167,-281
17401,8295,0,2023-03-01T18:51:23.750168,1673271,1356,1858,-478,-1179,-774,-294,-63,167,-281
17402,8296,0,2023-03-01T18:51:23.755158,1673276,1355,1855,-480,-1173,-773,-298,-63,167,-281
17403,8297,0,2023-03-01T18:51:23.761148,1673282,1355,1855,-480,-1173,-773,-298,-63,167,-281
17404,8298,0,2023-03-01T18:51:23.766633,1673287,1355,1855,-480,-1173,-773,-298,-63,167,-281
17405,8299,0,2023-03-01T18:51:23.771279,1673292,1355,1855,-480,-1173,-773,-298,-63,167,-281
17406,8300,0,2023-03-01T18:51:23.776010,1673297,1357,1857,-482,-1180,-781,-304,-63,167,-281
17407,8301,0,2023-03-01T18:51:23.781110,1673303,1357,1857,-482,-1180,-781,-304,-63,167,-281
17408,8302,0,2023-03-01T18:51:23.786535,1673308,1357,1857,-482,-1180,-781,-304,-63,167,-281
17409,8303,0,2023-03-01T18:51:23.791800,1673313,1357,1857,-482,-1180,-781,-304,-63,167,-281
17410,8304,0,2023-03-01T18:51:23.796572,1673318,1354,1856,-477,-1181,-785,-298,-63,167,-281
17411,8305,0,2023-03-01T18:51:23.802892,1673324,1354,1856,-477,-1181,-785,-298,-63,167,-281
17412,8306,0,2023-03-01T18:51:23.808419,1673329,1354,1856,-477,-1181,-785,-298,-63,167,-281
17413,8307,0,2023-03-01T18:51:23.812961,1673334,1358,1856,-479,-1184,-787,-302,-63,167,-281
17414,8308,0,2023-03-01T18:51:23.819021,1673339,1358,1856,-479,-1184,-787,-302,-63,167,-281
17415,8309,0,2023-03-01T18:51:23.825058,1673346,1358,1856,-479,-1184,-787,-302,-63,167,-281
17416,8310,0,2023-03-01T18:51:23.830793,1673352,1358,1856,-479,-1184,-787,-302,-63,167,-281
17417,8311,0,2023-03-01T18:51:23.836077,1673357,1356,1860,-476,-1179,-790,-300,-63,167,-281
17418,8312,0,2023-03-01T18:51:23.841745,1673363,1356,1860,-476,-1179,-790,-300,-63,167,-281
17419,8313,0,2023-03-01T18:51:23.847383,1673368,1356,1860,-476,-1179,-790,-300,-63,167,-281
17420,8314,0,2023-03-01T18:51:23.852852,1673374,1359,1858,-477,-1187,-796,-291,-63,167,-281
17421,8315,0,2023-03-01T18:51:23.858106,1673379,1359,1858,-477,-1187,-796,-291,-64,162,-294
17422,8316,0,2023-03-01T18:51:23.863667,1673384,1359,1858,-477,-1187,-796,-291,-64,162,-294
17423,8317,0,2023-03-01T18:51:23.869664,1673391,1359,1858,-477,-1187,-796,-291,-64,162,-294
17424,8318,0,2023-03-01T18:51:23.874560,1673396,1359,1862,-481,-1191,-789,-295,-64,162,-294
17425,8319,0,2023-03-01T18:51:23.879559,1673401,1359,1862,-481,-1191,-789,-295,-64,162,-294
17426,8320,0,2023-03-01T18:51:23.885163,1673406,1359,1862,-481,-1191,-789,-295,-64,162,-294
17427,8321,0,2023-03-01T18:51:23.890093,1673411,1359,1862,-481,-1191,-789,-295,-64,162,-294
17428,8322,0,2023-03-01T18:51:23.895173,1673416,1359,1859,-477,-1178,-793,-296,-64,162,-294
17429,8323,0,2023-03-01T18:51:23.900784,1673421,1359,1859,-477,-1178,-793,-296,-64,162,-294
17430,8324,0,2023-03-01T18:51:23.906561,1673427,1359,1859,-477,-1178,-793,-296,-64,162,-294
17431,8325,0,2023-03-01T18:51:23.911370,1673433,1359,1859,-477,-1178,-793,-296,-64,162,-294
17432,8326,0,2023-03-01T18:51:23.916082,1673437,1354,1856,-479,-1177,-783,-294,-64,162,-294
17433,8327,0,2023-03-01T18:51:23.921370,1673443,1354,1856,-479,-1177,-783,-294,-64,162,-294
17434,8328,0,2023-03-01T18:51:23.926960,1673448,1354,1856,-479,-1177,-783,-294,-64,162,-294
17435,8329,0,2023-03-01T18:51:23.931668,1673453,1354,1856,-479,-1177,-783,-294,-64,162,-294
17436,8330,0,2023-03-01T18:51:23.936591,1673458,1357,1860,-484,-1176,-787,-301,-64,162,-294
17437,8331,0,2023-03-01T18:51:23.942412,1673463,1357,1860,-484,-1176,-787,-301,-64,162,-294
17438,8332,0,2023-03-01T18:51:23.947252,1673468,1357,1860,-484,-1176,-787,-301,-64,162,-294
17439,8333,0,2023-03-01T18:51:23.952003,1673474,1357,1860,-484,-1176,-787,-301,-64,162,-294
17440,8334,0,2023-03-01T18:51:23.956964,1673478,1357,1857,-472,-1183,-795,-293,-64,162,-294
17441,8335,0,2023-03-01T18:51:23.963105,1673485,1357,1857,-472,-1183,-795,-293,-64,162,-294
17442,8336,0,2023-03-01T18:51:23.967721,1673489,1357,1857,-472,-1183,-795,-293,-64,162,-294
17443,8337,0,2023-03-01T18:51:23.972398,1673493,1357,1857,-472,-1183,-795,-293,-64,162,-294
17444,8338,0,2023-03-01T18:51:23.977634,1673498,1357,1857,-473,-1183,-797,-295,-71,173,-291
17445,8339,0,2023-03-01T18:51:23.983895,1673505,1357,1857,-473,-1183,-797,-295,-71,173,-291
17446,8340,0,2023-03-01T18:51:23.989240,1673510,1357,1857,-473,-1183,-797,-295,-71,173,-291
17447,8341,0,2023-03-01T18:51:23.994098,1673516,1360,1860,-481,-1194,-798,-297,-71,173,-291
17448,8342,0,2023-03-01T18:51:23.999721,1673521,1360,1860,-481,-1194,-798,-297,-71,173,-291
17449,8343,0,2023-03-01T18:51:24.004563,1673526,1360,1860,-481,-1194,-798,-297,-71,173,-291
17450,8344,0,2023-03-01T18:51:24.009164,1673531,1360,1860,-481,-1194,-798,-297,-71,173,-291
17451,8345,0,2023-03-01T18:51:24.013991,1673535,1353,1855,-476,-1191,-790,-299,-71,173,-291
17452,8346,0,2023-03-01T18:51:24.019370,1673540,1353,1855,-476,-1191,-790,-299,-71,173,-291
17453,8347,0,2023-03-01T18:51:24.024611,1673546,1353,1855,-476,-1191,-790,-299,-71,173,-291
17454,8348,0,2023-03-01T18:51:24.030111,1673551,1353,1855,-476,-1191,-790,-299,-71,173,-291
17455,8349,0,2023-03-01T18:51:24.035102,1673556,1358,1859,-480,-1191,-792,-302,-71,173,-291
17456,8350,0,2023-03-01T18:51:24.040737,1673562,1358,1859,-480,-1191,-792,-302,-71,173,-291
17457,8351,0,2023-03-01T18:51:24.046265,1673568,1358,1859,-480,-1191,-792,-302,-71,173,-291
17458,8352,0,2023-03-01T18:51:24.051098,1673572,1358,1859,-480,-1191,-792,-302,-71,173,-291
17459,8353,0,2023-03-01T18:51:24.055871,1673577,1357,1856,-478,-1186,-794,-301,-71,173,-291
17460,8354,0,2023-03-01T18:51:24.061772,1673583,1357,1856,-478,-1186,-794,-301,-71,173,-291
17461,8355,0,2023-03-01T18:51:24.067224,1673588,1357,1856,-478,-1186,-794,-301,-71,173,-291
17462,8356,0,2023-03-01T18:51:24.071856,1673593,1357,1856,-478,-1186,-794,-301,-71,173,-291
17463,8357,0,2023-03-01T18:51:24.076860,1673597,1357,1859,-477,-1187,-797,-300,-71,173,-291
17464,8358,0,2023-03-01T18:51:24.083171,1673605,1357,1859,-477,-1187,-797,-300,-71,173,-291
17465,8359,0,2023-03-01T18:51:24.088604,1673610,1357,1859,-477,-1187,-797,-300,-71,173,-291
17466,8360,0,2023-03-01T18:51:24.093535,1673615,1356,1858,-486,-1189,-799,-294,-71,173,-291
17467,8361,0,2023-03-01T18:51:24.098941,1673620,1356,1858,-486,-1189,-799,-294,-71,173,-291
17468,8362,0,2023-03-01T18:51:24.104798,1673626,1356,1858,-486,-1189,-799,-294,-71,173,-291
17469,8363,0,2023-03-01T18:51:24.109978,1673631,1356,1858,-486,-1189,-799,-294,-71,173,-291
17470,8364,0,2023-03-01T18:51:24.115083,1673636,1357,1855,-475,-1184,-802,-296,-72,174,-296
17471,8365,0,2023-03-01T18:51:24.120648,1673641,1357,1855,-475,-1184,-802,-296,-72,174,-296
17472,8366,0,2023-03-01T18:51:24.125186,1673647,1357,1855,-475,-1184,-802,-296,-72,174,-296
17473,8367,0,2023-03-01T18:51:24.130305,1673652,1357,1855,-475,-1184,-802,-296,-72,174,-296
17474,8368,0,2023-03-01T18:51:24.135445,1673656,1360,1855,-474,-1179,-794,-300,-72,174,-296
17475,8369,0,2023-03-01T18:51:24.141700,1673662,1360,1855,-474,-1179,-794,-300,-72,174,-296
17476,8370,0,2023-03-01T18:51:24.147342,1673668,1360,1855,-474,-1179,-794,-300,-72,174,-296
17477,8371,0,2023-03-01T18:51:24.154159,1673675,1359,1856,-475,-1194,-804,-293,-72,174,-296
17478,8372,0,2023-03-01T18:51:24.159296,1673680,1359,1856,-475,-1194,-804,-293,-72,174,-296
17479,8373,0,2023-03-01T18:51:24.165061,1673686,1359,1856,-475,-1194,-804,-293,-72,174,-296
17480,8374,0,2023-03-01T18:51:24.171097,1673692,1359,1856,-475,-1194,-804,-293,-72,174,-296
17481,8375,0,2023-03-01T18:51:24.175890,1673697,1355,1860,-477,-1196,-799,-302,-72,174,-296
17482,8376,0,2023-03-01T18:51:24.181458,1673702,1355,1860,-477,-1196,-799,-302,-72,174,-296
17483,8377,0,2023-03-01T18:51:24.186529,1673708,1355,1860,-477,-1196,-799,-302,-72,174,-296
17484,8378,0,2023-03-01T18:51:24.191396,1673712,1355,1860,-477,-1196,-799,-302,-72,174,-296
17485,8379,0,2023-03-01T18:51:24.196424,1673717,1357,1855,-478,-1188,-805,-299,-72,174,-296
17486,8380,0,2023-03-01T18:51:24.202067,1673723,1357,1855,-478,-1188,-805,-299,-72,174,-296
17487,8381,0,2023-03-01T18:51:24.207748,1673729,1357,1855,-478,-1188,-805,-299,-72,174,-296
17488,8382,0,2023-03-01T18:51:24.212688,1673734,1357,1855,-478,-1188,-805,-299,-72,174,-296
17489,8383,0,2023-03-01T18:51:24.217653,1673739,1361,1858,-479,-1193,-804,-301,-72,174,-296
17490,8384,0,2023-03-01T18:51:24.223775,1673745,1361,1858,-479,-1193,-804,-301,-72,174,-296
17491,8385,0,2023-03-01T18:51:24.228582,1673750,1361,1858,-479,-1193,-804,-301,-72,174,-296
17492,8386,0,2023-03-01T18:51:24.233444,1673754,1358,1856,-476,-1188,-801,-300,-65,165,-289
17493,8387,0,2023-03-01T18:51:24.238726,1673760,1358,1856,-476,-1188,-801,-300,-65,165,-289
17494,8388,0,2023-03-01T18:51:24.243126,1673764,1358,1856,-476,-1188,-801,-300,-65,165,-289
17495,8389,0,2023-03-01T18:51:24.248062,1673769,1358,1856,-476,-1188,-801,-300,-65,165,-289
17496,8390,0,2023-03-01T18:51:24.252738,1673774,1358,1856,-476,-1188,-801,-300,-65,165,-289
17497,8391,0,2023-03-01T18:51:24.257440,1673779,1358,1857,-477,-1201,-804,-304,-65,165,-289
17498,8392,0,2023-03-01T18:51:24.263563,1673785,1358,1857,-477,-1201,-804,-304,-65,165,-289
17499,8393,0,2023-03-01T18:51:24.268785,1673790,1358,1857,-477,-1201,-804,-304,-65,165,-289
