,Unnamed: 0,imu,server_time,arduino_time,ax,ay,az,gx,gy,gz,mx,my,mz
17500,8394,0,2023-03-01T18:51:24.273695,1673795,1360,1854,-477,-1190,-801,-299,-65,165,-289
17501,8395,0,2023-03-01T18:51:24.279055,1673800,1360,1854,-477,-1190,-801,-299,-65,165,-289
17502,8396,0,2023-03-01T18:51:24.284536,1673805,1360,1854,-477,-1190,-801,-299,-65,165,-289
17503,8397,0,2023-03-01T18:51:24.289281,1673810,1360,1854,-477,-1190,-801,-299,-65,165,-289
17504,8398,0,2023-03-01T18:51:24.294068,1673816,1359,1858,-483,-1187,-808,-300,-65,165,-289
17505,8399,0,2023-03-01T18:51:24.299708,1673821,1359,1858,-483,-1187,-808,-300,-65,165,-289
17506,8400,0,2023-03-01T18:51:24.305428,1673827,1359,1858,-483,-1187,-808,-300,-65,165,-289
17507,8401,0,2023-03-01T18:51:24.311140,1673832,1359,1858,-483,-1187,-808,-300,-65,165,-289
17508,8402,0,2023-03-01T18:51:24.316493,1673837,1362,1859,-483,-1190,-806,-301,-65,165,-289
17509,8403,0,2023-03-01T18:51:24.322498,1673843,1362,1859,-483,-1190,-806,-301,-65,165,-289
17510,8404,0,2023-03-01T18:51:24.328565,1673849,1362,1859,-483,-1190,-806,-301,-65,165,-289
17511,8405,0,2023-03-01T18:51:24.334400,1673856,1359,1856,-480,-1198,-810,-298,-65,165,-289
17512,8406,0,2023-03-01T18:51:24.340020,1673861,1359,1856,-480,-1198,-810,-298,-65,165,-289
17513,8407,0,2023-03-01T18:51:24.346087,1673867,1359,1856,-480,-1198,-810,-298,-65,165,-289
17514,8408,0,2023-03-01T18:51:24.351696,1673873,1359,1856,-480,-1198,-810,-298,-65,165,-289
17515,8409,0,2023-03-01T18:51:24.356752,1673878,1362,1857,-480,-1206,-808,-298,-63,165,-287
17516,8410,0,2023-03-01T18:51:24.362466,1673883,1362,1857,-480,-1206,-808,-298,-63,165,-287
17517,8411,0,2023-03-01T18:51:24.367860,1673888,1362,1857,-480,-1206,-808,-298,-63,165,-287
17518,8412,0,2023-03-01T18:51:24.374019,1673894,1357,1854,-474,-1198,-805,-299,-63,165,-287
17519,8413,0,2023-03-01T18:51:24.380117,1673902,1357,1854,-474,-1198,-805,-299,-63,165,-287
17520,8414,0,2023-03-01T18:51:24.385692,1673907,1357,1854,-474,-1198,-805,-299,-63,165,-287
17521,8415,0,2023-03-01T18:51:24.390817,1673912,1357,1854,-474,-1198,-805,-299,-63,165,-287
17522,8416,0,2023-03-01T18:51:24.395976,1673917,1356,1851,-473,-1194,-805,-298,-63,165,-287
17523,8417,0,2023-03-01T18:51:24.402255,1673923,1356,1851,-473,-1194,-805,-298,-63,165,-287
17524,8418,0,2023-03-01T18:51:24.407325,1673928,1356,1851,-473,-1194,-805,-298,-63,165,-287
17525,8419,0,2023-03-01T18:51:24.413467,1673934,1356,1851,-473,-1194,-805,-298,-63,165,-287
17526,8420,0,2023-03-01T18:51:24.418606,1673939,1358,1859,-480,-1190,-805,-302,-63,165,-287
17527,8421,0,2023-03-01T18:51:24.426643,1673948,1358,1859,-480,-1190,-805,-302,-63,165,-287
17528,8422,0,2023-03-01T18:51:24.432054,1673953,1358,1859,-480,-1190,-805,-302,-63,165,-287
17529,8423,0,2023-03-01T18:51:24.437169,1673958,1356,1857,-480,-1200,-807,-305,-63,165,-287
17530,8424,0,2023-03-01T18:51:24.443013,1673964,1356,1857,-480,-1200,-807,-305,-63,165,-287
17531,8425,0,2023-03-01T18:51:24.448030,1673969,1356,1857,-480,-1200,-807,-305,-63,165,-287
17532,8426,0,2023-03-01T18:51:24.453774,1673974,1356,1857,-480,-1200,-807,-305,-63,165,-287
17533,8427,0,2023-03-01T18:51:24.458873,1673980,1356,1857,-484,-1203,-802,-303,-63,165,-287
17534,8428,0,2023-03-01T18:51:24.465182,1673987,1356,1857,-484,-1203,-802,-303,-63,165,-287
17535,8429,0,2023-03-01T18:51:24.470635,1673992,1356,1857,-484,-1203,-802,-303,-63,165,-287
17536,8430,0,2023-03-01T18:51:24.475366,1673997,1359,1860,-478,-1187,-802,-306,-63,165,-287
17537,8431,0,2023-03-01T18:51:24.481576,1674002,1359,1860,-478,-1187,-802,-306,-63,165,-287
17538,8432,0,2023-03-01T18:51:24.488677,1674010,1359,1860,-478,-1187,-802,-306,-63,165,-287
17539,8433,0,2023-03-01T18:51:24.493462,1674014,1356,1855,-466,-1184,-792,-307,-63,165,-287
17540,8434,0,2023-03-01T18:51:24.499124,1674020,1356,1855,-466,-1184,-792,-307,-55,171,-285
17541,8435,0,2023-03-01T18:51:24.504785,1674025,1356,1855,-466,-1184,-792,-307,-55,171,-285
17542,8436,0,2023-03-01T18:51:24.509739,1674031,1356,1855,-466,-1184,-792,-307,-55,171,-285
17543,8437,0,2023-03-01T18:51:24.514778,1674036,1362,1857,-479,-1192,-790,-307,-55,171,-285
17544,8438,0,2023-03-01T18:51:24.521086,1674042,1362,1857,-479,-1192,-790,-307,-55,171,-285
17545,8439,0,2023-03-01T18:51:24.526537,1674048,1362,1857,-479,-1192,-790,-307,-55,171,-285
17546,8440,0,2023-03-01T18:51:24.531048,1674052,1362,1857,-479,-1192,-790,-307,-55,171,-285
17547,8441,0,2023-03-01T18:51:24.535920,1674057,1355,1856,-477,-1188,-791,-303,-55,171,-285
17548,8442,0,2023-03-01T18:51:24.541348,1674062,1355,1856,-477,-1188,-791,-303,-55,171,-285
17549,8443,0,2023-03-01T18:51:24.547196,1674067,1355,1856,-477,-1188,-791,-303,-55,171,-285
17550,8444,0,2023-03-01T18:51:24.553195,1674074,1355,1856,-477,-1188,-791,-303,-55,171,-285
17551,8445,0,2023-03-01T18:51:24.558019,1674079,1357,1851,-475,-1186,-807,-301,-55,171,-285
17552,8446,0,2023-03-01T18:51:24.564098,1674085,1357,1851,-475,-1186,-807,-301,-55,171,-285
17553,8447,0,2023-03-01T18:51:24.569974,1674091,1357,1851,-475,-1186,-807,-301,-55,171,-285
17554,8448,0,2023-03-01T18:51:24.575382,1674096,1362,1859,-483,-1191,-817,-301,-55,171,-285
17555,8449,0,2023-03-01T18:51:24.580905,1674102,1362,1859,-483,-1191,-817,-301,-55,171,-285
17556,8450,0,2023-03-01T18:51:24.586597,1674107,1362,1859,-483,-1191,-817,-301,-55,171,-285
17557,8451,0,2023-03-01T18:51:24.592161,1674114,1362,1859,-483,-1191,-817,-301,-55,171,-285
17558,8452,0,2023-03-01T18:51:24.597002,1674119,1358,1855,-485,-1194,-811,-299,-55,171,-285
17559,8453,0,2023-03-01T18:51:24.603416,1674124,1358,1855,-485,-1194,-811,-299,-55,171,-285
17560,8454,0,2023-03-01T18:51:24.608334,1674129,1358,1855,-485,-1194,-811,-299,-55,171,-285
17561,8455,0,2023-03-01T18:51:24.613166,1674134,1358,1855,-485,-1194,-811,-299,-55,171,-285
17562,8456,0,2023-03-01T18:51:24.617960,1674139,1360,1858,-478,-1199,-797,-304,-69,159,-293
17563,8457,0,2023-03-01T18:51:24.624202,1674145,1360,1858,-478,-1199,-797,-304,-69,159,-293
17564,8458,0,2023-03-01T18:51:24.629834,1674151,1360,1858,-478,-1199,-797,-304,-69,159,-293
17565,8459,0,2023-03-01T18:51:24.635269,1674157,1359,1858,-472,-1204,-797,-301,-69,159,-293
17566,8460,0,2023-03-01T18:51:24.641214,1674163,1359,1858,-472,-1204,-797,-301,-69,159,-293
17567,8461,0,2023-03-01T18:51:24.646450,1674168,1359,1858,-472,-1204,-797,-301,-69,159,-293
17568,8462,0,2023-03-01T18:51:24.651067,1674172,1359,1858,-472,-1204,-797,-301,-69,159,-293
17569,8463,0,2023-03-01T18:51:24.656337,1674177,1358,1858,-472,-1200,-803,-293,-69,159,-293
17570,8464,0,2023-03-01T18:51:24.662478,1674183,1358,1858,-472,-1200,-803,-293,-69,159,-293
17571,8465,0,2023-03-01T18:51:24.668289,1674189,1358,1858,-472,-1200,-803,-293,-69,159,-293
17572,8466,0,2023-03-01T18:51:24.673117,1674194,1358,1858,-472,-1200,-803,-293,-69,159,-293
17573,8467,0,2023-03-01T18:51:24.678277,1674200,1359,1856,-482,-1189,-803,-300,-69,159,-293
17574,8468,0,2023-03-01T18:51:24.684373,1674206,1359,1856,-482,-1189,-803,-300,-69,159,-293
17575,8469,0,2023-03-01T18:51:24.689817,1674211,1359,1856,-482,-1189,-803,-300,-69,159,-293
17576,8470,0,2023-03-01T18:51:24.694426,1674216,1356,1853,-480,-1187,-794,-300,-69,159,-293
17577,8471,0,2023-03-01T18:51:24.700066,1674221,1356,1853,-480,-1187,-794,-300,-69,159,-293
17578,8472,0,2023-03-01T18:51:24.706124,1674227,1356,1853,-480,-1187,-794,-300,-69,159,-293
17579,8473,0,2023-03-01T18:51:24.711333,1674232,1356,1853,-480,-1187,-794,-300,-69,159,-293
17580,8474,0,2023-03-01T18:51:24.716139,1674237,1359,1852,-478,-1194,-793,-295,-69,159,-293
17581,8475,0,2023-03-01T18:51:24.721413,1674243,1359,1852,-478,-1194,-793,-295,-69,159,-293
17582,8476,0,2023-03-01T18:51:24.726783,1674248,1359,1852,-478,-1194,-793,-295,-69,159,-293
17583,8477,0,2023-03-01T18:51:24.731369,1674253,1359,1852,-478,-1194,-793,-295,-69,159,-293
17584,8478,0,2023-03-01T18:51:24.736266,1674257,1362,1857,-482,-1204,-793,-303,-69,159,-293
17585,8479,0,2023-03-01T18:51:24.741651,1674263,1362,1857,-482,-1204,-793,-303,-69,159,-293
17586,8480,0,2023-03-01T18:51:24.747191,1674268,1362,1857,-482,-1204,-793,-303,-69,159,-293
17587,8481,0,2023-03-01T18:51:24.752123,1674273,1362,1857,-482,-1204,-793,-303,-69,159,-293
17588,8482,0,2023-03-01T18:51:24.757033,1674278,1360,1854,-473,-1189,-792,-307,-61,165,-287
17589,8483,0,2023-03-01T18:51:24.763055,1674285,1360,1854,-473,-1189,-792,-307,-61,165,-287
17590,8484,0,2023-03-01T18:51:24.767828,1674289,1360,1854,-473,-1189,-792,-307,-61,165,-287
17591,8485,0,2023-03-01T18:51:24.773132,1674294,1360,1854,-473,-1189,-792,-307,-61,165,-287
17592,8486,0,2023-03-01T18:51:24.778002,1674299,1361,1858,-479,-1194,-790,-306,-61,165,-287
17593,8487,0,2023-03-01T18:51:24.783653,1674305,1361,1858,-479,-1194,-790,-306,-61,165,-287
17594,8488,0,2023-03-01T18:51:24.788020,1674309,1361,1858,-479,-1194,-790,-306,-61,165,-287
17595,8489,0,2023-03-01T18:51:24.793006,1674314,1361,1858,-479,-1194,-790,-306,-61,165,-287
17596,8490,0,2023-03-01T18:51:24.797746,1674319,1358,1855,-484,-1188,-796,-299,-61,165,-287
17597,8491,0,2023-03-01T18:51:24.803876,1674324,1358,1855,-484,-1188,-796,-299,-61,165,-287
17598,8492,0,2023-03-01T18:51:24.809570,1674331,1358,1855,-484,-1188,-796,-299,-61,165,-287
17599,8493,0,2023-03-01T18:51:24.814833,1674336,1359,1859,-478,-1194,-794,-302,-61,165,-287
17600,8494,0,2023-03-01T18:51:24.820407,1674342,1359,1859,-478,-1194,-794,-302,-61,165,-287
17601,8495,0,2023-03-01T18:51:24.826480,1674348,1359,1859,-478,-1194,-794,-302,-61,165,-287
17602,8496,0,2023-03-01T18:51:24.831383,1674352,1359,1859,-478,-1194,-794,-302,-61,165,-287
17603,8497,0,2023-03-01T18:51:24.836084,1674357,1364,1857,-482,-1192,-801,-299,-61,165,-287
17604,8498,0,2023-03-01T18:51:24.841457,1674362,1364,1857,-482,-1192,-801,-299,-61,165,-287
17605,8499,0,2023-03-01T18:51:24.847120,1674369,1364,1857,-482,-1192,-801,-299,-61,165,-287
17606,8500,0,2023-03-01T18:51:24.852183,1674373,1364,1857,-482,-1192,-801,-299,-61,165,-287
17607,8501,0,2023-03-01T18:51:24.857029,1674378,1360,1850,-470,-1186,-794,-301,-61,165,-287
17608,8502,0,2023-03-01T18:51:24.862865,1674384,1360,1850,-470,-1186,-794,-301,-61,165,-287
17609,8503,0,2023-03-01T18:51:24.867930,1674389,1360,1850,-470,-1186,-794,-301,-61,165,-287
17610,8504,0,2023-03-01T18:51:24.873805,1674395,1360,1850,-470,-1186,-794,-301,-61,165,-287
17611,8505,0,2023-03-01T18:51:24.878787,1674399,1359,1855,-481,-1189,-794,-304,-65,161,-283
17612,8506,0,2023-03-01T18:51:24.884672,1674406,1359,1855,-481,-1189,-794,-304,-65,161,-283
17613,8507,0,2023-03-01T18:51:24.889540,1674411,1359,1855,-481,-1189,-794,-304,-65,161,-283
17614,8508,0,2023-03-01T18:51:24.894336,1674416,1363,1857,-479,-1189,-792,-295,-65,161,-283
17615,8509,0,2023-03-01T18:51:24.899727,1674421,1363,1857,-479,-1189,-792,-295,-65,161,-283
17616,8510,0,2023-03-01T18:51:24.905639,1674426,1363,1857,-479,-1189,-792,-295,-65,161,-283
17617,8511,0,2023-03-01T18:51:24.911718,1674432,1363,1857,-479,-1189,-792,-295,-65,161,-283
17618,8512,0,2023-03-01T18:51:24.916230,1674437,1358,1854,-481,-1186,-791,-294,-65,161,-283
17619,8513,0,2023-03-01T18:51:24.922700,1674443,1358,1854,-481,-1186,-791,-294,-65,161,-283
17620,8514,0,2023-03-01T18:51:24.928534,1674449,1358,1854,-481,-1186,-791,-294,-65,161,-283
17621,8515,0,2023-03-01T18:51:24.933144,1674455,1358,1854,-481,-1186,-791,-294,-65,161,-283
17622,8516,0,2023-03-01T18:51:24.938060,1674460,1360,1858,-479,-1181,-790,-302,-65,161,-283
17623,8517,0,2023-03-01T18:51:24.944000,1674466,1360,1858,-479,-1181,-790,-302,-65,161,-283
17624,8518,0,2023-03-01T18:51:24.949706,1674471,1360,1858,-479,-1181,-790,-302,-65,161,-283
17625,8519,0,2023-03-01T18:51:24.954474,1674476,1361,1857,-482,-1181,-777,-294,-65,161,-283
17626,8520,0,2023-03-01T18:51:24.959727,1674481,1361,1857,-482,-1181,-777,-294,-65,161,-283
17627,8521,0,2023-03-01T18:51:24.965957,1674487,1361,1857,-482,-1181,-777,-294,-65,161,-283
17628,8522,0,2023-03-01T18:51:24.971382,1674492,1361,1857,-482,-1181,-777,-294,-65,161,-283
17629,8523,0,2023-03-01T18:51:24.976367,1674498,1361,1857,-482,-1181,-777,-294,-65,161,-283
17630,8524,0,2023-03-01T18:51:24.981101,1674503,1361,1857,-482,-1181,-777,-294,-65,161,-283
17631,8525,0,2023-03-01T18:51:24.986662,1674508,1361,1857,-482,-1181,-777,-294,-65,161,-283
17632,8526,0,2023-03-01T18:51:24.991608,1674513,1361,1857,-482,-1181,-777,-294,-65,161,-283
17633,8527,0,2023-03-01T18:51:24.996534,1674518,1362,1858,-485,-1182,-785,-299,-65,161,-283
17634,8528,0,2023-03-01T18:51:25.001988,1674523,1362,1858,-485,-1182,-785,-299,-65,161,-283
17635,8529,0,2023-03-01T18:51:25.007641,1674528,1362,1858,-485,-1182,-785,-299,-65,161,-283
17636,8530,0,2023-03-01T18:51:25.013305,1674534,1362,1858,-485,-1182,-785,-299,-65,161,-283
17637,8531,0,2023-03-01T18:51:25.018293,1674540,1361,1856,-476,-1172,-779,-305,-59,165,-289
17638,8532,0,2023-03-01T18:51:25.023778,1674545,1361,1856,-476,-1172,-779,-305,-59,165,-289
17639,8533,0,2023-03-01T18:51:25.029720,1674551,1361,1856,-476,-1172,-779,-305,-59,165,-289
17640,8534,0,2023-03-01T18:51:25.034634,1674556,1362,1857,-477,-1172,-774,-307,-59,165,-289
17641,8535,0,2023-03-01T18:51:25.040175,1674561,1362,1857,-477,-1172,-774,-307,-59,165,-289
17642,8536,0,2023-03-01T18:51:25.045952,1674567,1362,1857,-477,-1172,-774,-307,-59,165,-289
17643,8537,0,2023-03-01T18:51:25.050757,1674572,1362,1857,-477,-1172,-774,-307,-59,165,-289
17644,8538,0,2023-03-01T18:51:25.055529,1674576,1362,1857,-478,-1173,-782,-301,-59,165,-289
17645,8539,0,2023-03-01T18:51:25.061389,1674583,1362,1857,-478,-1173,-782,-301,-59,165,-289
17646,8540,0,2023-03-01T18:51:25.066963,1674588,1362,1857,-478,-1173,-782,-301,-59,165,-289
17647,8541,0,2023-03-01T18:51:25.072226,1674594,1362,1857,-478,-1173,-782,-301,-59,165,-289
17648,8542,0,2023-03-01T18:51:25.077155,1674598,1357,1853,-477,-1175,-776,-302,-59,165,-289
17649,8543,0,2023-03-01T18:51:25.083239,1674604,1357,1853,-477,-1175,-776,-302,-59,165,-289
17650,8544,0,2023-03-01T18:51:25.088048,1674609,1357,1853,-477,-1175,-776,-302,-59,165,-289
17651,8545,0,2023-03-01T18:51:25.092767,1674614,1357,1853,-477,-1175,-776,-302,-59,165,-289
17652,8546,0,2023-03-01T18:51:25.097913,1674619,1360,1859,-485,-1179,-769,-300,-59,165,-289
17653,8547,0,2023-03-01T18:51:25.103961,1674626,1360,1859,-485,-1179,-769,-300,-59,165,-289
17654,8548,0,2023-03-01T18:51:25.109424,1674631,1360,1859,-485,-1179,-769,-300,-59,165,-289
17655,8549,0,2023-03-01T18:51:25.113970,1674635,1360,1859,-485,-1179,-769,-300,-59,165,-289
17656,8550,0,2023-03-01T18:51:25.118801,1674640,1358,1854,-479,-1174,-770,-304,-59,165,-289
17657,8551,0,2023-03-01T18:51:25.124844,1674646,1358,1854,-479,-1174,-770,-304,-59,165,-289
17658,8552,0,2023-03-01T18:51:25.129758,1674651,1358,1854,-479,-1174,-770,-304,-59,165,-289
17659,8553,0,2023-03-01T18:51:25.134698,1674656,1359,1858,-474,-1179,-768,-305,-63,175,-291
17660,8554,0,2023-03-01T18:51:25.140028,1674661,1359,1858,-474,-1179,-768,-305,-63,175,-291
17661,8555,0,2023-03-01T18:51:25.145678,1674667,1359,1858,-474,-1179,-768,-305,-63,175,-291
17662,8556,0,2023-03-01T18:51:25.150496,1674672,1359,1858,-474,-1179,-768,-305,-63,175,-291
17663,8557,0,2023-03-01T18:51:25.155624,1674677,1361,1857,-478,-1173,-759,-309,-63,175,-291
17664,8558,0,2023-03-01T18:51:25.161042,1674682,1361,1857,-478,-1173,-759,-309,-63,175,-291
17665,8559,0,2023-03-01T18:51:25.166452,1674687,1361,1857,-478,-1173,-759,-309,-63,175,-291
17666,8560,0,2023-03-01T18:51:25.172192,1674693,1361,1857,-478,-1173,-759,-309,-63,175,-291
17667,8561,0,2023-03-01T18:51:25.176955,1674698,1365,1851,-477,-1167,-760,-304,-63,175,-291
17668,8562,0,2023-03-01T18:51:25.182849,1674704,1365,1851,-477,-1167,-760,-304,-63,175,-291
17669,8563,0,2023-03-01T18:51:25.187731,1674708,1365,1851,-477,-1167,-760,-304,-63,175,-291
17670,8564,0,2023-03-01T18:51:25.193203,1674714,1365,1851,-477,-1167,-760,-304,-63,175,-291
17671,8565,0,2023-03-01T18:51:25.197788,1674719,1362,1853,-474,-1158,-757,-299,-63,175,-291
17672,8566,0,2023-03-01T18:51:25.203611,1674725,1362,1853,-474,-1158,-757,-299,-63,175,-291
17673,8567,0,2023-03-01T18:51:25.209329,1674730,1362,1853,-474,-1158,-757,-299,-63,175,-291
17674,8568,0,2023-03-01T18:51:25.214073,1674735,1362,1853,-474,-1158,-757,-299,-63,175,-291
17675,8569,0,2023-03-01T18:51:25.218785,1674740,1362,1859,-481,-1154,-761,-303,-63,175,-291
17676,8570,0,2023-03-01T18:51:25.224715,1674745,1362,1859,-481,-1154,-761,-303,-63,175,-291
17677,8571,0,2023-03-01T18:51:25.230405,1674752,1362,1859,-481,-1154,-761,-303,-63,175,-291
17678,8572,0,2023-03-01T18:51:25.235032,1674757,1364,1855,-474,-1151,-752,-302,-63,175,-291
17679,8573,0,2023-03-01T18:51:25.240561,1674762,1364,1855,-474,-1151,-752,-302,-63,175,-291
17680,8574,0,2023-03-01T18:51:25.245047,1674766,1364,1855,-474,-1151,-752,-302,-63,175,-291
17681,8575,0,2023-03-01T18:51:25.250950,1674772,1364,1855,-474,-1151,-752,-302,-63,175,-291
17682,8576,0,2023-03-01T18:51:25.255728,1674777,1358,1854,-477,-1164,-754,-305,-64,164,-290
17683,8577,0,2023-03-01T18:51:25.262064,1674783,1358,1854,-477,-1164,-754,-305,-64,164,-290
17684,8578,0,2023-03-01T18:51:25.267681,1674788,1358,1854,-477,-1164,-754,-305,-64,164,-290
17685,8579,0,2023-03-01T18:51:25.273754,1674795,1358,1854,-477,-1164,-754,-305,-64,164,-290
17686,8580,0,2023-03-01T18:51:25.278927,1674800,1358,1854,-477,-1164,-754,-305,-64,164,-290
17687,8581,0,2023-03-01T18:51:25.284023,1674806,1358,1854,-477,-1164,-754,-305,-64,164,-290
17688,8582,0,2023-03-01T18:51:25.289514,1674811,1358,1854,-477,-1164,-754,-305,-64,164,-290
17689,8583,0,2023-03-01T18:51:25.294631,1674816,1360,1856,-478,-1169,-764,-302,-64,164,-290
17690,8584,0,2023-03-01T18:51:25.300082,1674821,1360,1856,-478,-1169,-764,-302,-64,164,-290
17691,8585,0,2023-03-01T18:51:25.305275,1674826,1360,1856,-478,-1169,-764,-302,-64,164,-290
17692,8586,0,2023-03-01T18:51:25.310265,1674831,1360,1856,-478,-1169,-764,-302,-64,164,-290
17693,8587,0,2023-03-01T18:51:25.315174,1674836,1360,1856,-478,-1169,-764,-302,-64,164,-290
17694,8588,0,2023-03-01T18:51:25.319974,1674841,1360,1856,-478,-1169,-764,-302,-64,164,-290
17695,8589,0,2023-03-01T18:51:25.325876,1674848,1360,1856,-478,-1169,-764,-302,-64,164,-290
17696,8590,0,2023-03-01T18:51:25.330812,1674852,1360,1856,-478,-1169,-764,-302,-64,164,-290
17697,8591,0,2023-03-01T18:51:25.335593,1674857,1359,1853,-476,-1166,-757,-304,-64,164,-290
17698,8592,0,2023-03-01T18:51:25.341245,1674862,1359,1853,-476,-1166,-757,-304,-64,164,-290
17699,8593,0,2023-03-01T18:51:25.347041,1674868,1359,1853,-476,-1166,-757,-304,-64,164,-290
17700,8594,0,2023-03-01T18:51:25.351991,1674873,1359,1853,-476,-1166,-757,-304,-64,164,-290
17701,8595,0,2023-03-01T18:51:25.357046,1674878,1363,1857,-481,-1175,-768,-294,-64,164,-290
17702,8596,0,2023-03-01T18:51:25.364058,1674885,1363,1857,-481,-1175,-768,-294,-64,164,-290
17703,8597,0,2023-03-01T18:51:25.369482,1674891,1363,1857,-481,-1175,-768,-294,-64,164,-290
17704,8598,0,2023-03-01T18:51:25.374504,1674896,1363,1857,-481,-1175,-768,-294,-64,164,-290
17705,8599,0,2023-03-01T18:51:25.379919,1674900,1364,1857,-484,-1174,-774,-299,-64,164,-290
17706,8600,0,2023-03-01T18:51:25.386085,1674907,1364,1857,-484,-1174,-774,-299,-64,164,-290
17707,8601,0,2023-03-01T18:51:25.391346,1674912,1364,1857,-484,-1174,-774,-299,-64,164,-290
17708,8602,0,2023-03-01T18:51:25.396256,1674917,1364,1857,-484,-1174,-774,-299,-66,160,-288
17709,8603,0,2023-03-01T18:51:25.401506,1674923,1364,1857,-484,-1174,-774,-299,-66,160,-288
17710,8604,0,2023-03-01T18:51:25.407009,1674929,1364,1857,-484,-1174,-774,-299,-66,160,-288
17711,8605,0,2023-03-01T18:51:25.412730,1674934,1364,1857,-484,-1174,-774,-299,-66,160,-288
17712,8606,0,2023-03-01T18:51:25.417319,1674939,1361,1857,-480,-1173,-777,-301,-66,160,-288
17713,8607,0,2023-03-01T18:51:25.423379,1674944,1361,1857,-480,-1173,-777,-301,-66,160,-288
17714,8608,0,2023-03-01T18:51:25.428460,1674949,1361,1857,-480,-1173,-777,-301,-66,160,-288
17715,8609,0,2023-03-01T18:51:25.433782,1674954,1361,1857,-480,-1173,-777,-301,-66,160,-288
17716,8610,0,2023-03-01T18:51:25.438727,1674959,1358,1853,-476,-1174,-781,-302,-66,160,-288
17717,8611,0,2023-03-01T18:51:25.444838,1674966,1358,1853,-476,-1174,-781,-302,-66,160,-288
17718,8612,0,2023-03-01T18:51:25.449917,1674971,1358,1853,-476,-1174,-781,-302,-66,160,-288
17719,8613,0,2023-03-01T18:51:25.455192,1674976,1363,1851,-477,-1171,-778,-307,-66,160,-288
17720,8614,0,2023-03-01T18:51:25.460971,1674982,1363,1851,-477,-1171,-778,-307,-66,160,-288
17721,8615,0,2023-03-01T18:51:25.466338,1674988,1363,1851,-477,-1171,-778,-307,-66,160,-288
17722,8616,0,2023-03-01T18:51:25.471490,1674992,1363,1851,-477,-1171,-778,-307,-66,160,-288
17723,8617,0,2023-03-01T18:51:25.476298,1674997,1363,1854,-484,-1177,-774,-301,-66,160,-288
17724,8618,0,2023-03-01T18:51:25.481921,1675003,1363,1854,-484,-1177,-774,-301,-66,160,-288
17725,8619,0,2023-03-01T18:51:25.487855,1675009,1363,1854,-484,-1177,-774,-301,-66,160,-288
17726,8620,0,2023-03-01T18:51:25.492552,1675014,1363,1854,-484,-1177,-774,-301,-66,160,-288
17727,8621,0,2023-03-01T18:51:25.497444,1675019,1360,1852,-479,-1175,-770,-303,-66,160,-288
17728,8622,0,2023-03-01T18:51:25.503327,1675025,1360,1852,-479,-1175,-770,-303,-66,160,-288
17729,8623,0,2023-03-01T18:51:25.508143,1675029,1360,1852,-479,-1175,-770,-303,-66,160,-288
17730,8624,0,2023-03-01T18:51:25.513318,1675034,1360,1852,-479,-1175,-770,-303,-66,160,-288
17731,8625,0,2023-03-01T18:51:25.517938,1675039,1363,1857,-479,-1177,-777,-303,-60,168,-290
17732,8626,0,2023-03-01T18:51:25.524055,1675045,1363,1857,-479,-1177,-777,-303,-60,168,-290
17733,8627,0,2023-03-01T18:51:25.529271,1675051,1363,1857,-479,-1177,-777,-303,-60,168,-290
17734,8628,0,2023-03-01T18:51:25.534168,1675056,1363,1857,-479,-1177,-777,-303,-60,168,-290
17735,8629,0,2023-03-01T18:51:25.539343,1675061,1361,1860,-475,-1182,-775,-299,-60,168,-290
17736,8630,0,2023-03-01T18:51:25.545489,1675067,1361,1860,-475,-1182,-775,-299,-60,168,-290
17737,8631,0,2023-03-01T18:51:25.551243,1675072,1361,1860,-475,-1182,-775,-299,-60,168,-290
17738,8632,0,2023-03-01T18:51:25.555916,1675077,1361,1853,-481,-1176,-785,-298,-60,168,-290
17739,8633,0,2023-03-01T18:51:25.561465,1675082,1361,1853,-481,-1176,-785,-298,-60,168,-290
17740,8634,0,2023-03-01T18:51:25.567445,1675088,1361,1853,-481,-1176,-785,-298,-60,168,-290
17741,8635,0,2023-03-01T18:51:25.572134,1675094,1361,1853,-481,-1176,-785,-298,-60,168,-290
17742,8636,0,2023-03-01T18:51:25.577405,1675099,1364,1855,-475,-1175,-782,-301,-60,168,-290
17743,8637,0,2023-03-01T18:51:25.584082,1675105,1364,1855,-475,-1175,-782,-301,-60,168,-290
17744,8638,0,2023-03-01T18:51:25.589483,1675111,1364,1855,-475,-1175,-782,-301,-60,168,-290
17745,8639,0,2023-03-01T18:51:25.594455,1675115,1364,1855,-475,-1175,-782,-301,-60,168,-290
17746,8640,0,2023-03-01T18:51:25.599383,1675120,1363,1855,-485,-1169,-776,-295,-60,168,-290
17747,8641,0,2023-03-01T18:51:25.605104,1675126,1363,1855,-485,-1169,-776,-295,-60,168,-290
17748,8642,0,2023-03-01T18:51:25.610275,1675131,1363,1855,-485,-1169,-776,-295,-60,168,-290
17749,8643,0,2023-03-01T18:51:25.616211,1675138,1362,1855,-482,-1177,-776,-306,-60,168,-290
17750,8644,0,2023-03-01T18:51:25.622153,1675144,1362,1855,-482,-1177,-776,-306,-60,168,-290
17751,8645,0,2023-03-01T18:51:25.627763,1675149,1362,1855,-482,-1177,-776,-306,-60,168,-290
17752,8646,0,2023-03-01T18:51:25.632759,1675154,1362,1855,-482,-1177,-776,-306,-60,168,-290
17753,8647,0,2023-03-01T18:51:25.637501,1675159,1362,1854,-482,-1178,-789,-291,-60,168,-290
17754,8648,0,2023-03-01T18:51:25.643488,1675164,1362,1854,-482,-1178,-789,-291,-60,168,-290
17755,8649,0,2023-03-01T18:51:25.648561,1675169,1362,1854,-482,-1178,-789,-291,-60,168,-290
17756,8650,0,2023-03-01T18:51:25.653999,1675175,1362,1854,-482,-1178,-789,-291,-60,168,-290
17757,8651,0,2023-03-01T18:51:25.659037,1675181,1360,1856,-476,-1179,-788,-304,-58,172,-284
17758,8652,0,2023-03-01T18:51:25.664911,1675186,1360,1856,-476,-1179,-788,-304,-58,172,-284
17759,8653,0,2023-03-01T18:51:25.670357,1675192,1360,1856,-476,-1179,-788,-304,-58,172,-284
17760,8654,0,2023-03-01T18:51:25.675392,1675197,1363,1854,-479,-1187,-797,-308,-58,172,-284
17761,8655,0,2023-03-01T18:51:25.680872,1675202,1363,1854,-479,-1187,-797,-308,-58,172,-284
17762,8656,0,2023-03-01T18:51:25.686541,1675207,1363,1854,-479,-1187,-797,-308,-58,172,-284
17763,8657,0,2023-03-01T18:51:25.691321,1675212,1363,1854,-479,-1187,-797,-308,-58,172,-284
17764,8658,0,2023-03-01T18:51:25.696190,1675217,1360,1853,-483,-1188,-786,-307,-58,172,-284
17765,8659,0,2023-03-01T18:51:25.701615,1675223,1360,1853,-483,-1188,-786,-307,-58,172,-284
17766,8660,0,2023-03-01T18:51:25.707254,1675229,1360,1853,-483,-1188,-786,-307,-58,172,-284
17767,8661,0,2023-03-01T18:51:25.713082,1675234,1360,1853,-483,-1188,-786,-307,-58,172,-284
17768,8662,0,2023-03-01T18:51:25.718120,1675239,1358,1857,-477,-1182,-783,-305,-58,172,-284
17769,8663,0,2023-03-01T18:51:25.724436,1675245,1358,1857,-477,-1182,-783,-305,-58,172,-284
17770,8664,0,2023-03-01T18:51:25.729364,1675250,1358,1857,-477,-1182,-783,-305,-58,172,-284
17771,8665,0,2023-03-01T18:51:25.734379,1675255,1358,1857,-477,-1182,-783,-305,-58,172,-284
17772,8666,0,2023-03-01T18:51:25.738956,1675260,1364,1856,-485,-1176,-784,-304,-58,172,-284
17773,8667,0,2023-03-01T18:51:25.745075,1675267,1364,1856,-485,-1176,-784,-304,-58,172,-284
17774,8668,0,2023-03-01T18:51:25.750566,1675272,1364,1856,-485,-1176,-784,-304,-58,172,-284
17775,8669,0,2023-03-01T18:51:25.755411,1675277,1361,1850,-483,-1179,-791,-295,-58,172,-284
17776,8670,0,2023-03-01T18:51:25.760925,1675282,1361,1850,-483,-1179,-791,-295,-58,172,-284
17777,8671,0,2023-03-01T18:51:25.766500,1675288,1361,1850,-483,-1179,-791,-295,-58,172,-284
17778,8672,0,2023-03-01T18:51:25.771914,1675292,1361,1850,-483,-1179,-791,-295,-58,172,-284
17779,8673,0,2023-03-01T18:51:25.777090,1675298,1364,1855,-483,-1179,-789,-306,-60,164,-288
17780,8674,0,2023-03-01T18:51:25.783107,1675304,1364,1855,-483,-1179,-789,-306,-60,164,-288
17781,8675,0,2023-03-01T18:51:25.788020,1675310,1364,1855,-483,-1179,-789,-306,-60,164,-288
17782,8676,0,2023-03-01T18:51:25.793700,1675315,1364,1855,-483,-1179,-789,-306,-60,164,-288
17783,8677,0,2023-03-01T18:51:25.798445,1675320,1364,1855,-480,-1186,-777,-297,-60,164,-288
17784,8678,0,2023-03-01T18:51:25.804601,1675326,1364,1855,-480,-1186,-777,-297,-60,164,-288
17785,8679,0,2023-03-01T18:51:25.810329,1675331,1364,1855,-480,-1186,-777,-297,-60,164,-288
17786,8680,0,2023-03-01T18:51:25.815342,1675336,1359,1853,-475,-1183,-777,-301,-60,164,-288
17787,8681,0,2023-03-01T18:51:25.820663,1675341,1359,1853,-475,-1183,-777,-301,-60,164,-288
17788,8682,0,2023-03-01T18:51:25.826148,1675347,1359,1853,-475,-1183,-777,-301,-60,164,-288
17789,8683,0,2023-03-01T18:51:25.830888,1675353,1359,1853,-475,-1183,-777,-301,-60,164,-288
17790,8684,0,2023-03-01T18:51:25.836032,1675357,1366,1856,-480,-1187,-787,-302,-60,164,-288
17791,8685,0,2023-03-01T18:51:25.841219,1675363,1366,1856,-480,-1187,-787,-302,-60,164,-288
17792,8686,0,2023-03-01T18:51:25.846854,1675368,1366,1856,-480,-1187,-787,-302,-60,164,-288
17793,8687,0,2023-03-01T18:51:25.852764,1675374,1366,1856,-480,-1187,-787,-302,-60,164,-288
17794,8688,0,2023-03-01T18:51:25.857519,1675378,1365,1855,-481,-1190,-782,-300,-60,164,-288
17795,8689,0,2023-03-01T18:51:25.863665,1675384,1365,1855,-481,-1190,-782,-300,-60,164,-288
17796,8690,0,2023-03-01T18:51:25.868538,1675389,1365,1855,-481,-1190,-782,-300,-60,164,-288
17797,8691,0,2023-03-01T18:51:25.873448,1675395,1365,1855,-481,-1190,-782,-300,-60,164,-288
17798,8692,0,2023-03-01T18:51:25.878055,1675400,1365,1854,-481,-1181,-777,-304,-60,164,-288
17799,8693,0,2023-03-01T18:51:25.884285,1675406,1365,1854,-481,-1181,-777,-304,-60,164,-288
17800,8694,0,2023-03-01T18:51:25.889032,1675410,1365,1854,-481,-1181,-777,-304,-60,164,-288
17801,8695,0,2023-03-01T18:51:25.894106,1675415,1365,1854,-481,-1181,-777,-304,-60,164,-288
17802,8696,0,2023-03-01T18:51:25.899546,1675420,1364,1857,-485,-1189,-795,-303,-60,164,-288
17803,8697,0,2023-03-01T18:51:25.905990,1675427,1364,1857,-485,-1189,-795,-303,-60,164,-288
17804,8698,0,2023-03-01T18:51:25.911439,1675431,1364,1857,-485,-1189,-795,-303,-60,164,-288
17805,8699,0,2023-03-01T18:51:25.916618,1675438,1359,1850,-478,-1188,-787,-303,-55,167,-287
17806,8700,0,2023-03-01T18:51:25.922441,1675444,1359,1850,-478,-1188,-787,-303,-55,167,-287
17807,8701,0,2023-03-01T18:51:25.928392,1675449,1359,1850,-478,-1188,-787,-303,-55,167,-287
17808,8702,0,2023-03-01T18:51:25.934059,1675455,1359,1850,-478,-1188,-787,-303,-55,167,-287
17809,8703,0,2023-03-01T18:51:25.939103,1675460,1362,1856,-478,-1189,-789,-303,-55,167,-287
17810,8704,0,2023-03-01T18:51:25.945041,1675466,1362,1856,-478,-1189,-789,-303,-55,167,-287
17811,8705,0,2023-03-01T18:51:25.950373,1675471,1362,1856,-478,-1189,-789,-303,-55,167,-287
17812,8706,0,2023-03-01T18:51:25.955972,1675476,1365,1856,-485,-1185,-793,-307,-55,167,-287
17813,8707,0,2023-03-01T18:51:25.961933,1675483,1365,1856,-485,-1185,-793,-307,-55,167,-287
17814,8708,0,2023-03-01T18:51:25.967543,1675489,1365,1856,-485,-1185,-793,-307,-55,167,-287
17815,8709,0,2023-03-01T18:51:25.972547,1675493,1365,1856,-485,-1185,-793,-307,-55,167,-287
17816,8710,0,2023-03-01T18:51:25.977562,1675499,1363,1853,-481,-1198,-801,-300,-55,167,-287
17817,8711,0,2023-03-01T18:51:25.983588,1675505,1363,1853,-481,-1198,-801,-300,-55,167,-287
17818,8712,0,2023-03-01T18:51:25.988180,1675509,1363,1853,-481,-1198,-801,-300,-55,167,-287
17819,8713,0,2023-03-01T18:51:25.993177,1675514,1363,1853,-481,-1198,-801,-300,-55,167,-287
17820,8714,0,2023-03-01T18:51:25.997909,1675520,1361,1856,-486,-1191,-799,-299,-55,167,-287
17821,8715,0,2023-03-01T18:51:26.004273,1675526,1361,1856,-486,-1191,-799,-299,-55,167,-287
17822,8716,0,2023-03-01T18:51:26.009070,1675531,1361,1856,-486,-1191,-799,-299,-55,167,-287
17823,8717,0,2023-03-01T18:51:26.014537,1675536,1361,1856,-486,-1191,-799,-299,-55,167,-287
17824,8718,0,2023-03-01T18:51:26.018900,1675540,1363,1852,-480,-1184,-795,-299,-55,167,-287
17825,8719,0,2023-03-01T18:51:26.024422,1675546,1363,1852,-480,-1184,-795,-299,-55,167,-287
17826,8720,0,2023-03-01T18:51:26.029198,1675550,1363,1852,-480,-1184,-795,-299,-55,167,-287
17827,8721,0,2023-03-01T18:51:26.034093,1675555,1363,1852,-480,-1184,-795,-299,-55,167,-287
17828,8722,0,2023-03-01T18:51:26.038941,1675560,1362,1854,-479,-1193,-800,-300,-54,170,-286
17829,8723,0,2023-03-01T18:51:26.044746,1675566,1362,1854,-479,-1193,-800,-300,-54,170,-286
17830,8724,0,2023-03-01T18:51:26.049700,1675571,1362,1854,-479,-1193,-800,-300,-54,170,-286
17831,8725,0,2023-03-01T18:51:26.054813,1675576,1362,1854,-479,-1193,-800,-300,-54,170,-286
17832,8726,0,2023-03-01T18:51:26.059866,1675581,1365,1853,-474,-1190,-795,-298,-54,170,-286
17833,8727,0,2023-03-01T18:51:26.066106,1675587,1365,1853,-474,-1190,-795,-298,-54,170,-286
17834,8728,0,2023-03-01T18:51:26.071746,1675593,1365,1853,-474,-1190,-795,-298,-54,170,-286
17835,8729,0,2023-03-01T18:51:26.076934,1675598,1365,1853,-473,-1180,-793,-291,-54,170,-286
17836,8730,0,2023-03-01T18:51:26.082551,1675603,1365,1853,-473,-1180,-793,-291,-54,170,-286
17837,8731,0,2023-03-01T18:51:26.087765,1675610,1365,1853,-473,-1180,-793,-291,-54,170,-286
17838,8732,0,2023-03-01T18:51:26.093199,1675615,1365,1853,-473,-1180,-793,-291,-54,170,-286
17839,8733,0,2023-03-01T18:51:26.097711,1675619,1362,1851,-484,-1191,-787,-302,-54,170,-286
17840,8734,0,2023-03-01T18:51:26.103730,1675625,1362,1851,-484,-1191,-787,-302,-54,170,-286
17841,8735,0,2023-03-01T18:51:26.108785,1675630,1362,1851,-484,-1191,-787,-302,-54,170,-286
17842,8736,0,2023-03-01T18:51:26.114381,1675635,1362,1851,-484,-1191,-787,-302,-54,170,-286
17843,8737,0,2023-03-01T18:51:26.119393,1675640,1362,1852,-487,-1191,-802,-299,-54,170,-286
17844,8738,0,2023-03-01T18:51:26.125343,1675646,1362,1852,-487,-1191,-802,-299,-54,170,-286
17845,8739,0,2023-03-01T18:51:26.130102,1675652,1362,1852,-487,-1191,-802,-299,-54,170,-286
17846,8740,0,2023-03-01T18:51:26.134896,1675656,1362,1852,-487,-1191,-802,-299,-54,170,-286
17847,8741,0,2023-03-01T18:51:26.141049,1675662,1364,1854,-481,-1187,-798,-300,-54,170,-286
17848,8742,0,2023-03-01T18:51:26.147305,1675668,1364,1854,-481,-1187,-798,-300,-54,170,-286
17849,8743,0,2023-03-01T18:51:26.151991,1675673,1364,1854,-481,-1187,-798,-300,-54,170,-286
17850,8744,0,2023-03-01T18:51:26.157004,1675678,1367,1858,-481,-1189,-797,-296,-69,167,-287
17851,8745,0,2023-03-01T18:51:26.162546,1675683,1367,1858,-481,-1189,-797,-296,-69,167,-287
17852,8746,0,2023-03-01T18:51:26.167874,1675689,1367,1858,-481,-1189,-797,-296,-69,167,-287
17853,8747,0,2023-03-01T18:51:26.173715,1675695,1367,1858,-481,-1189,-797,-296,-69,167,-287
17854,8748,0,2023-03-01T18:51:26.178843,1675700,1357,1855,-483,-1194,-794,-301,-69,167,-287
17855,8749,0,2023-03-01T18:51:26.184437,1675706,1357,1855,-483,-1194,-794,-301,-69,167,-287
17856,8750,0,2023-03-01T18:51:26.189213,1675710,1357,1855,-483,-1194,-794,-301,-69,167,-287
17857,8751,0,2023-03-01T18:51:26.193908,1675715,1357,1855,-483,-1194,-794,-301,-69,167,-287
17858,8752,0,2023-03-01T18:51:26.199154,1675720,1364,1856,-481,-1184,-784,-298,-69,167,-287
17859,8753,0,2023-03-01T18:51:26.205540,1675726,1364,1856,-481,-1184,-784,-298,-69,167,-287
17860,8754,0,2023-03-01T18:51:26.211499,1675732,1364,1856,-481,-1184,-784,-298,-69,167,-287
17861,8755,0,2023-03-01T18:51:26.216045,1675738,1365,1857,-479,-1185,-796,-301,-69,167,-287
17862,8756,0,2023-03-01T18:51:26.221583,1675743,1365,1857,-479,-1185,-796,-301,-69,167,-287
17863,8757,0,2023-03-01T18:51:26.227425,1675749,1365,1857,-479,-1185,-796,-301,-69,167,-287
17864,8758,0,2023-03-01T18:51:26.232022,1675753,1365,1857,-479,-1185,-796,-301,-69,167,-287
17865,8759,0,2023-03-01T18:51:26.237046,1675758,1362,1849,-482,-1180,-796,-298,-69,167,-287
17866,8760,0,2023-03-01T18:51:26.242454,1675763,1362,1849,-482,-1180,-796,-298,-69,167,-287
17867,8761,0,2023-03-01T18:51:26.247861,1675769,1362,1849,-482,-1180,-796,-298,-69,167,-287
17868,8762,0,2023-03-01T18:51:26.253423,1675774,1362,1849,-482,-1180,-796,-298,-69,167,-287
17869,8763,0,2023-03-01T18:51:26.258476,1675780,1364,1855,-482,-1186,-788,-296,-69,167,-287
17870,8764,0,2023-03-01T18:51:26.264430,1675786,1364,1855,-482,-1186,-788,-296,-69,167,-287
17871,8765,0,2023-03-01T18:51:26.269303,1675791,1364,1855,-482,-1186,-788,-296,-69,167,-287
17872,8766,0,2023-03-01T18:51:26.274043,1675795,1364,1855,-482,-1186,-788,-296,-69,167,-287
17873,8767,0,2023-03-01T18:51:26.279683,1675801,1363,1856,-483,-1171,-779,-298,-69,167,-287
17874,8768,0,2023-03-01T18:51:26.285592,1675806,1363,1856,-483,-1171,-779,-298,-69,167,-287
17875,8769,0,2023-03-01T18:51:26.290706,1675811,1363,1856,-483,-1171,-779,-298,-69,167,-287
17876,8770,0,2023-03-01T18:51:26.295503,1675816,1363,1856,-483,-1171,-779,-298,-69,167,-287
17877,8771,0,2023-03-01T18:51:26.300554,1675822,1360,1852,-478,-1176,-773,-302,-69,165,-283
17878,8772,0,2023-03-01T18:51:26.306781,1675828,1360,1852,-478,-1176,-773,-302,-69,165,-283
17879,8773,0,2023-03-01T18:51:26.312837,1675834,1360,1852,-478,-1176,-773,-302,-69,165,-283
17880,8774,0,2023-03-01T18:51:26.317873,1675839,1367,1856,-478,-1178,-762,-307,-69,165,-283
17881,8775,0,2023-03-01T18:51:26.324104,1675845,1367,1856,-478,-1178,-762,-307,-69,165,-283
17882,8776,0,2023-03-01T18:51:26.328964,1675850,1367,1856,-478,-1178,-762,-307,-69,165,-283
17883,8777,0,2023-03-01T18:51:26.334870,1675856,1367,1856,-478,-1178,-762,-307,-69,165,-283
17884,8778,0,2023-03-01T18:51:26.339482,1675860,1363,1854,-481,-1167,-755,-308,-69,165,-283
17885,8779,0,2023-03-01T18:51:26.345424,1675867,1363,1854,-481,-1167,-755,-308,-69,165,-283
17886,8780,0,2023-03-01T18:51:26.351975,1675873,1363,1854,-481,-1167,-755,-308,-69,165,-283
17887,8781,0,2023-03-01T18:51:26.356784,1675878,1363,1851,-481,-1169,-764,-297,-69,165,-283
17888,8782,0,2023-03-01T18:51:26.362301,1675883,1363,1851,-481,-1169,-764,-297,-69,165,-283
17889,8783,0,2023-03-01T18:51:26.367963,1675889,1363,1851,-481,-1169,-764,-297,-69,165,-283
17890,8784,0,2023-03-01T18:51:26.372940,1675894,1363,1851,-481,-1169,-764,-297,-69,165,-283
17891,8785,0,2023-03-01T18:51:26.378064,1675899,1369,1855,-484,-1163,-764,-298,-69,165,-283
17892,8786,0,2023-03-01T18:51:26.384036,1675906,1369,1855,-484,-1163,-764,-298,-69,165,-283
17893,8787,0,2023-03-01T18:51:26.388855,1675910,1369,1855,-484,-1163,-764,-298,-69,165,-283
17894,8788,0,2023-03-01T18:51:26.394019,1675915,1369,1855,-484,-1163,-764,-298,-69,165,-283
17895,8789,0,2023-03-01T18:51:26.399201,1675920,1363,1852,-484,-1173,-770,-299,-69,165,-283
17896,8790,0,2023-03-01T18:51:26.405527,1675927,1363,1852,-484,-1173,-770,-299,-69,165,-283
17897,8791,0,2023-03-01T18:51:26.410498,1675932,1363,1852,-484,-1173,-770,-299,-69,165,-283
17898,8792,0,2023-03-01T18:51:26.415132,1675936,1363,1852,-484,-1173,-770,-299,-69,165,-283
17899,8793,0,2023-03-01T18:51:26.420158,1675941,1362,1854,-487,-1174,-765,-302,-64,166,-284
17900,8794,0,2023-03-01T18:51:26.426532,1675948,1362,1854,-487,-1174,-765,-302,-64,166,-284
17901,8795,0,2023-03-01T18:51:26.431599,1675953,1362,1854,-487,-1174,-765,-302,-64,166,-284
17902,8796,0,2023-03-01T18:51:26.436484,1675958,1366,1855,-479,-1180,-773,-306,-64,166,-284
17903,8797,0,2023-03-01T18:51:26.442156,1675963,1366,1855,-479,-1180,-773,-306,-64,166,-284
17904,8798,0,2023-03-01T18:51:26.447575,1675969,1366,1855,-479,-1180,-773,-306,-64,166,-284
17905,8799,0,2023-03-01T18:51:26.453270,1675974,1366,1855,-479,-1180,-773,-306,-64,166,-284
17906,8800,0,2023-03-01T18:51:26.458259,1675979,1363,1854,-483,-1180,-773,-308,-64,166,-284
17907,8801,0,2023-03-01T18:51:26.464978,1675986,1363,1854,-483,-1180,-773,-308,-64,166,-284
17908,8802,0,2023-03-01T18:51:26.470186,1675991,1363,1854,-483,-1180,-773,-308,-64,166,-284
17909,8803,0,2023-03-01T18:51:26.475457,1675997,1363,1854,-483,-1180,-773,-308,-64,166,-284
17910,8804,0,2023-03-01T18:51:26.480651,1676002,1364,1855,-481,-1173,-761,-311,-64,166,-284
17911,8805,0,2023-03-01T18:51:26.487448,1676008,1364,1855,-481,-1173,-761,-311,-64,166,-284
17912,8806,0,2023-03-01T18:51:26.492494,1676013,1364,1855,-481,-1173,-761,-311,-64,166,-284
17913,8807,0,2023-03-01T18:51:26.497370,1676018,1363,1852,-482,-1167,-768,-306,-64,166,-284
17914,8808,0,2023-03-01T18:51:26.503207,1676024,1363,1852,-482,-1167,-768,-306,-64,166,-284
17915,8809,0,2023-03-01T18:51:26.508184,1676029,1363,1852,-482,-1167,-768,-306,-64,166,-284
17916,8810,0,2023-03-01T18:51:26.513170,1676035,1363,1852,-482,-1167,-768,-306,-64,166,-284
17917,8811,0,2023-03-01T18:51:26.518148,1676039,1367,1854,-483,-1158,-773,-302,-64,166,-284
17918,8812,0,2023-03-01T18:51:26.524435,1676046,1367,1854,-483,-1158,-773,-302,-64,166,-284
17919,8813,0,2023-03-01T18:51:26.529265,1676050,1367,1854,-483,-1158,-773,-302,-64,166,-284
17920,8814,0,2023-03-01T18:51:26.534258,1676055,1367,1854,-483,-1158,-773,-302,-64,166,-284
17921,8815,0,2023-03-01T18:51:26.539504,1676060,1367,1858,-482,-1165,-774,-310,-64,166,-284
17922,8816,0,2023-03-01T18:51:26.545781,1676067,1367,1858,-482,-1165,-774,-310,-64,166,-284
17923,8817,0,2023-03-01T18:51:26.551511,1676072,1367,1858,-482,-1165,-774,-310,-64,166,-284
17924,8818,0,2023-03-01T18:51:26.556332,1676078,1363,1855,-481,-1170,-782,-304,-60,168,-290
17925,8819,0,2023-03-01T18:51:26.561691,1676083,1363,1855,-481,-1170,-782,-304,-60,168,-290
17926,8820,0,2023-03-01T18:51:26.567052,1676088,1363,1855,-481,-1170,-782,-304,-60,168,-290
17927,8821,0,2023-03-01T18:51:26.571723,1676093,1363,1855,-481,-1170,-782,-304,-60,168,-290
17928,8822,0,2023-03-01T18:51:26.576752,1676098,1365,1853,-481,-1171,-768,-311,-60,168,-290
17929,8823,0,2023-03-01T18:51:26.582286,1676103,1365,1853,-481,-1171,-768,-311,-60,168,-290
17930,8824,0,2023-03-01T18:51:26.586834,1676108,1365,1853,-481,-1171,-768,-311,-60,168,-290
17931,8825,0,2023-03-01T18:51:26.592287,1676113,1365,1853,-481,-1171,-768,-311,-60,168,-290
17932,8826,0,2023-03-01T18:51:26.597024,1676119,1364,1853,-480,-1178,-775,-304,-60,168,-290
17933,8827,0,2023-03-01T18:51:26.603562,1676125,1364,1853,-480,-1178,-775,-304,-60,168,-290
17934,8828,0,2023-03-01T18:51:26.609840,1676131,1364,1853,-480,-1178,-775,-304,-60,168,-290
17935,8829,0,2023-03-01T18:51:26.614414,1676136,1364,1853,-480,-1178,-775,-304,-60,168,-290
17936,8830,0,2023-03-01T18:51:26.619596,1676140,1364,1853,-482,-1175,-774,-308,-60,168,-290
17937,8831,0,2023-03-01T18:51:26.625504,1676146,1364,1853,-482,-1175,-774,-308,-60,168,-290
17938,8832,0,2023-03-01T18:51:26.630993,1676152,1364,1853,-482,-1175,-774,-308,-60,168,-290
17939,8833,0,2023-03-01T18:51:26.635933,1676157,1364,1853,-482,-1175,-774,-308,-60,168,-290
17940,8834,0,2023-03-01T18:51:26.640738,1676162,1366,1853,-487,-1168,-766,-297,-60,168,-290
17941,8835,0,2023-03-01T18:51:26.646836,1676168,1366,1853,-487,-1168,-766,-297,-60,168,-290
17942,8836,0,2023-03-01T18:51:26.651686,1676173,1366,1853,-487,-1168,-766,-297,-60,168,-290
17943,8837,0,2023-03-01T18:51:26.656510,1676178,1367,1854,-477,-1162,-761,-298,-60,168,-290
17944,8838,0,2023-03-01T18:51:26.662044,1676183,1367,1854,-477,-1162,-761,-298,-60,168,-290
17945,8839,0,2023-03-01T18:51:26.667654,1676189,1367,1854,-477,-1162,-761,-298,-60,168,-290
17946,8840,0,2023-03-01T18:51:26.672571,1676194,1367,1854,-477,-1162,-761,-298,-60,168,-290
17947,8841,0,2023-03-01T18:51:26.677249,1676198,1366,1855,-474,-1177,-775,-291,-62,162,-280
17948,8842,0,2023-03-01T18:51:26.682966,1676204,1366,1855,-474,-1177,-775,-291,-62,162,-280
17949,8843,0,2023-03-01T18:51:26.688663,1676210,1366,1855,-474,-1177,-775,-291,-62,162,-280
17950,8844,0,2023-03-01T18:51:26.693916,1676215,1366,1855,-474,-1177,-775,-291,-62,162,-280
17951,8845,0,2023-03-01T18:51:26.699274,1676220,1366,1852,-477,-1181,-782,-294,-62,162,-280
17952,8846,0,2023-03-01T18:51:26.704986,1676226,1366,1852,-477,-1181,-782,-294,-62,162,-280
17953,8847,0,2023-03-01T18:51:26.711351,1676232,1366,1852,-477,-1181,-782,-294,-62,162,-280
17954,8848,0,2023-03-01T18:51:26.716166,1676237,1365,1850,-481,-1193,-793,-298,-62,162,-280
17955,8849,0,2023-03-01T18:51:26.721768,1676242,1365,1850,-481,-1193,-793,-298,-62,162,-280
17956,8850,0,2023-03-01T18:51:26.727178,1676249,1365,1850,-481,-1193,-793,-298,-62,162,-280
17957,8851,0,2023-03-01T18:51:26.732726,1676254,1365,1850,-481,-1193,-793,-298,-62,162,-280
17958,8852,0,2023-03-01T18:51:26.737643,1676259,1365,1856,-483,-1188,-788,-303,-62,162,-280
17959,8853,0,2023-03-01T18:51:26.744110,1676265,1365,1856,-483,-1188,-788,-303,-62,162,-280
17960,8854,0,2023-03-01T18:51:26.748939,1676270,1365,1856,-483,-1188,-788,-303,-62,162,-280
17961,8855,0,2023-03-01T18:51:26.753793,1676275,1365,1856,-483,-1188,-788,-303,-62,162,-280
17962,8856,0,2023-03-01T18:51:26.758707,1676280,1363,1851,-481,-1183,-786,-306,-62,162,-280
17963,8857,0,2023-03-01T18:51:26.764503,1676285,1363,1851,-481,-1183,-786,-306,-62,162,-280
17964,8858,0,2023-03-01T18:51:26.769531,1676291,1363,1851,-481,-1183,-786,-306,-62,162,-280
17965,8859,0,2023-03-01T18:51:26.774638,1676296,1363,1851,-481,-1183,-786,-306,-62,162,-280
17966,8860,0,2023-03-01T18:51:26.779907,1676301,1367,1855,-477,-1178,-783,-304,-62,162,-280
17967,8861,0,2023-03-01T18:51:26.785656,1676307,1367,1855,-477,-1178,-783,-304,-62,162,-280
17968,8862,0,2023-03-01T18:51:26.790331,1676311,1367,1855,-477,-1178,-783,-304,-62,162,-280
17969,8863,0,2023-03-01T18:51:26.795094,1676316,1367,1855,-477,-1178,-783,-304,-62,162,-280
17970,8864,0,2023-03-01T18:51:26.800235,1676321,1363,1853,-485,-1179,-785,-298,-62,162,-280
17971,8865,0,2023-03-01T18:51:26.806139,1676327,1363,1853,-485,-1179,-785,-298,-62,162,-280
17972,8866,0,2023-03-01T18:51:26.810816,1676333,1363,1853,-485,-1179,-785,-298,-62,162,-280
17973,8867,0,2023-03-01T18:51:26.815980,1676338,1363,1853,-485,-1179,-785,-298,-62,162,-280
17974,8868,0,2023-03-01T18:51:26.820962,1676342,1364,1853,-481,-1179,-787,-298,-56,162,-288
17975,8869,0,2023-03-01T18:51:26.827057,1676348,1364,1853,-481,-1179,-787,-298,-56,162,-288
17976,8870,0,2023-03-01T18:51:26.832447,1676354,1364,1853,-481,-1179,-787,-298,-56,162,-288
17977,8871,0,2023-03-01T18:51:26.837210,1676358,1368,1852,-484,-1184,-795,-299,-56,162,-288
17978,8872,0,2023-03-01T18:51:26.842656,1676364,1368,1852,-484,-1184,-795,-299,-56,162,-288
17979,8873,0,2023-03-01T18:51:26.847904,1676369,1368,1852,-484,-1184,-795,-299,-56,162,-288
17980,8874,0,2023-03-01T18:51:26.852458,1676374,1368,1852,-484,-1184,-795,-299,-56,162,-288
17981,8875,0,2023-03-01T18:51:26.857099,1676379,1365,1850,-486,-1192,-784,-302,-56,162,-288
17982,8876,0,2023-03-01T18:51:26.863081,1676384,1365,1850,-486,-1192,-784,-302,-56,162,-288
17983,8877,0,2023-03-01T18:51:26.868488,1676390,1365,1850,-486,-1192,-784,-302,-56,162,-288
17984,8878,0,2023-03-01T18:51:26.873359,1676395,1365,1850,-486,-1192,-784,-302,-56,162,-288
17985,8879,0,2023-03-01T18:51:26.877964,1676399,1366,1851,-476,-1188,-782,-301,-56,162,-288
17986,8880,0,2023-03-01T18:51:26.884123,1676405,1366,1851,-476,-1188,-782,-301,-56,162,-288
17987,8881,0,2023-03-01T18:51:26.889007,1676410,1366,1851,-476,-1188,-782,-301,-56,162,-288
17988,8882,0,2023-03-01T18:51:26.893954,1676416,1366,1851,-476,-1188,-782,-301,-56,162,-288
17989,8883,0,2023-03-01T18:51:26.898597,1676420,1369,1853,-484,-1194,-790,-307,-56,162,-288
17990,8884,0,2023-03-01T18:51:26.905247,1676426,1369,1853,-484,-1194,-790,-307,-56,162,-288
17991,8885,0,2023-03-01T18:51:26.910740,1676432,1369,1853,-484,-1194,-790,-307,-56,162,-288
17992,8886,0,2023-03-01T18:51:26.915586,1676437,1369,1853,-484,-1194,-790,-307,-56,162,-288
17993,8887,0,2023-03-01T18:51:26.920446,1676441,1363,1850,-478,-1189,-793,-301,-56,162,-288
17994,8888,0,2023-03-01T18:51:26.926790,1676447,1363,1850,-478,-1189,-793,-301,-56,162,-288
17995,8889,0,2023-03-01T18:51:26.931562,1676452,1363,1850,-478,-1189,-793,-301,-56,162,-288
17996,8890,0,2023-03-01T18:51:26.936344,1676457,1363,1850,-478,-1189,-793,-301,-56,162,-288
17997,8891,0,2023-03-01T18:51:26.941344,1676463,1366,1852,-481,-1176,-789,-296,-67,163,-287
17998,8892,0,2023-03-01T18:51:26.947529,1676469,1366,1852,-481,-1176,-789,-296,-67,163,-287
17999,8893,0,2023-03-01T18:51:26.953184,1676474,1366,1852,-481,-1176,-789,-296,-67,163,-287
18000,8894,0,2023-03-01T18:51:26.958354,1676479,1364,1853,-475,-1176,-792,-296,-67,163,-287
18001,8895,0,2023-03-01T18:51:26.965279,1676486,1364,1853,-475,-1176,-792,-296,-67,163,-287
18002,8896,0,2023-03-01T18:51:26.971229,1676492,1364,1853,-475,-1176,-792,-296,-67,163,-287
18003,8897,0,2023-03-01T18:51:26.976066,1676497,1364,1853,-475,-1176,-792,-296,-67,163,-287
18004,8898,0,2023-03-01T18:51:26.981082,1676502,1365,1849,-486,-1175,-794,-294,-67,163,-287
18005,8899,0,2023-03-01T18:51:26.987171,1676509,1365,1849,-486,-1175,-794,-294,-67,163,-287
18006,8900,0,2023-03-01T18:51:26.992260,1676513,1365,1849,-486,-1175,-794,-294,-67,163,-287
18007,8901,0,2023-03-01T18:51:26.997439,1676518,1366,1849,-492,-1182,-791,-302,-67,163,-287
18008,8902,0,2023-03-01T18:51:27.003150,1676524,1366,1849,-492,-1182,-791,-302,-67,163,-287
18009,8903,0,2023-03-01T18:51:27.008290,1676529,1366,1849,-492,-1182,-791,-302,-67,163,-287
18010,8904,0,2023-03-01T18:51:27.013991,1676535,1366,1849,-492,-1182,-791,-302,-67,163,-287
18011,8905,0,2023-03-01T18:51:27.019383,1676540,1365,1851,-481,-1186,-785,-308,-67,163,-287
18012,8906,0,2023-03-01T18:51:27.025419,1676547,1365,1851,-481,-1186,-785,-308,-67,163,-287
18013,8907,0,2023-03-01T18:51:27.030269,1676552,1365,1851,-481,-1186,-785,-308,-67,163,-287
18014,8908,0,2023-03-01T18:51:27.035014,1676557,1365,1851,-481,-1186,-785,-308,-67,163,-287
18015,8909,0,2023-03-01T18:51:27.040234,1676561,1365,1853,-483,-1188,-797,-303,-67,163,-287
18016,8910,0,2023-03-01T18:51:27.046225,1676567,1365,1853,-483,-1188,-797,-303,-67,163,-287
18017,8911,0,2023-03-01T18:51:27.051886,1676573,1365,1853,-483,-1188,-797,-303,-67,163,-287
18018,8912,0,2023-03-01T18:51:27.057045,1676578,1366,1853,-480,-1199,-793,-303,-67,163,-287
18019,8913,0,2023-03-01T18:51:27.062655,1676583,1366,1853,-480,-1199,-793,-303,-63,165,-279
18020,8914,0,2023-03-01T18:51:27.069012,1676590,1366,1853,-480,-1199,-793,-303,-63,165,-279
18021,8915,0,2023-03-01T18:51:27.074605,1676596,1366,1853,-480,-1199,-793,-303,-63,165,-279
18022,8916,0,2023-03-01T18:51:27.079884,1676601,1364,1849,-482,-1195,-795,-301,-63,165,-279
18023,8917,0,2023-03-01T18:51:27.086028,1676607,1364,1849,-482,-1195,-795,-301,-63,165,-279
18024,8918,0,2023-03-01T18:51:27.091007,1676612,1364,1849,-482,-1195,-795,-301,-63,165,-279
18025,8919,0,2023-03-01T18:51:27.095683,1676617,1364,1849,-482,-1195,-795,-301,-63,165,-279
18026,8920,0,2023-03-01T18:51:27.100528,1676621,1366,1849,-483,-1191,-805,-305,-63,165,-279
18027,8921,0,2023-03-01T18:51:27.106890,1676627,1366,1849,-483,-1191,-805,-305,-63,165,-279
18028,8922,0,2023-03-01T18:51:27.112095,1676634,1366,1849,-483,-1191,-805,-305,-63,165,-279
18029,8923,0,2023-03-01T18:51:27.116624,1676638,1365,1853,-481,-1192,-793,-296,-63,165,-279
18030,8924,0,2023-03-01T18:51:27.122095,1676643,1365,1853,-481,-1192,-793,-296,-63,165,-279
18031,8925,0,2023-03-01T18:51:27.129910,1676651,1365,1853,-481,-1192,-793,-296,-63,165,-279
18032,8926,0,2023-03-01T18:51:27.134643,1676656,1365,1853,-481,-1192,-793,-296,-63,165,-279
18033,8927,0,2023-03-01T18:51:27.139440,1676660,1366,1852,-478,-1184,-787,-301,-63,165,-279
18034,8928,0,2023-03-01T18:51:27.145253,1676666,1366,1852,-478,-1184,-787,-301,-63,165,-279
18035,8929,0,2023-03-01T18:51:27.150580,1676672,1366,1852,-478,-1184,-787,-301,-63,165,-279
18036,8930,0,2023-03-01T18:51:27.155382,1676677,1366,1852,-478,-1184,-787,-301,-63,165,-279
18037,8931,0,2023-03-01T18:51:27.160058,1676682,1367,1854,-492,-1193,-801,-300,-63,165,-279
18038,8932,0,2023-03-01T18:51:27.166578,1676688,1367,1854,-492,-1193,-801,-300,-63,165,-279
18039,8933,0,2023-03-01T18:51:27.171218,1676693,1367,1854,-492,-1193,-801,-300,-63,165,-279
18040,8934,0,2023-03-01T18:51:27.176234,1676697,1367,1854,-492,-1193,-801,-300,-63,165,-279
18041,8935,0,2023-03-01T18:51:27.181054,1676702,1363,1846,-481,-1193,-801,-294,-63,165,-279
18042,8936,0,2023-03-01T18:51:27.187191,1676708,1363,1846,-481,-1193,-801,-294,-63,165,-279
18043,8937,0,2023-03-01T18:51:27.192291,1676713,1363,1846,-481,-1193,-801,-294,-63,165,-279
18044,8938,0,2023-03-01T18:51:27.196978,1676719,1368,1855,-484,-1197,-802,-301,-63,165,-279
18045,8939,0,2023-03-01T18:51:27.202376,1676724,1368,1855,-484,-1197,-802,-301,-61,177,-297
18046,8940,0,2023-03-01T18:51:27.207515,1676729,1368,1855,-484,-1197,-802,-301,-61,177,-297
18047,8941,0,2023-03-01T18:51:27.212400,1676734,1368,1855,-484,-1197,-802,-301,-61,177,-297
18048,8942,0,2023-03-01T18:51:27.216949,1676738,1368,1850,-480,-1194,-802,-306,-61,177,-297
18049,8943,0,2023-03-01T18:51:27.222645,1676744,1368,1850,-480,-1194,-802,-306,-61,177,-297
18050,8944,0,2023-03-01T18:51:27.227830,1676749,1368,1850,-480,-1194,-802,-306,-61,177,-297
18051,8945,0,2023-03-01T18:51:27.233477,1676754,1368,1850,-480,-1194,-802,-306,-61,177,-297
18052,8946,0,2023-03-01T18:51:27.239329,1676761,1365,1848,-478,-1185,-807,-300,-61,177,-297
18053,8947,0,2023-03-01T18:51:27.243902,1676766,1365,1848,-478,-1185,-807,-300,-61,177,-297
18054,8948,0,2023-03-01T18:51:27.248586,1676770,1365,1848,-478,-1185,-807,-300,-61,177,-297
18055,8949,0,2023-03-01T18:51:27.254196,1676775,1365,1848,-478,-1185,-807,-300,-61,177,-297
18056,8950,0,2023-03-01T18:51:27.259302,1676781,1370,1858,-487,-1193,-804,-300,-61,177,-297
18057,8951,0,2023-03-01T18:51:27.265078,1676786,1370,1858,-487,-1193,-804,-300,-61,177,-297
18058,8952,0,2023-03-01T18:51:27.269931,1676791,1370,1858,-487,-1193,-804,-300,-61,177,-297
18059,8953,0,2023-03-01T18:51:27.274992,1676796,1370,1858,-487,-1193,-804,-300,-61,177,-297
18060,8954,0,2023-03-01T18:51:27.279854,1676802,1365,1850,-485,-1189,-794,-297,-61,177,-297
18061,8955,0,2023-03-01T18:51:27.285953,1676808,1365,1850,-485,-1189,-794,-297,-61,177,-297
18062,8956,0,2023-03-01T18:51:27.291492,1676813,1365,1850,-485,-1189,-794,-297,-61,177,-297
18063,8957,0,2023-03-01T18:51:27.296350,1676818,1365,1850,-485,-1189,-794,-297,-61,177,-297
18064,8958,0,2023-03-01T18:51:27.301322,1676822,1369,1849,-480,-1194,-795,-301,-61,177,-297
18065,8959,0,2023-03-01T18:51:27.307533,1676829,1369,1849,-480,-1194,-795,-301,-61,177,-297
18066,8960,0,2023-03-01T18:51:27.312653,1676834,1369,1849,-480,-1194,-795,-301,-61,177,-297
18067,8961,0,2023-03-01T18:51:27.317651,1676838,1370,1854,-485,-1194,-802,-301,-69,159,-283
18068,8962,0,2023-03-01T18:51:27.323398,1676845,1370,1854,-485,-1194,-802,-301,-69,159,-283
18069,8963,0,2023-03-01T18:51:27.328175,1676850,1370,1854,-485,-1194,-802,-301,-69,159,-283
18070,8964,0,2023-03-01T18:51:27.333761,1676855,1370,1854,-485,-1194,-802,-301,-69,159,-283
18071,8965,0,2023-03-01T18:51:27.338579,1676860,1366,1851,-479,-1193,-801,-292,-69,159,-283
18072,8966,0,2023-03-01T18:51:27.344818,1676866,1366,1851,-479,-1193,-801,-292,-69,159,-283
18073,8967,0,2023-03-01T18:51:27.351395,1676872,1366,1851,-479,-1193,-801,-292,-69,159,-283
18074,8968,0,2023-03-01T18:51:27.356207,1676877,1366,1851,-479,-1193,-801,-292,-69,159,-283
18075,8969,0,2023-03-01T18:51:27.361047,1676882,1366,1851,-476,-1195,-799,-302,-69,159,-283
18076,8970,0,2023-03-01T18:51:27.366792,1676889,1366,1851,-476,-1195,-799,-302,-69,159,-283
18077,8971,0,2023-03-01T18:51:27.371693,1676893,1366,1851,-476,-1195,-799,-302,-69,159,-283
18078,8972,0,2023-03-01T18:51:27.376878,1676898,1366,1851,-476,-1195,-799,-302,-69,159,-283
18079,8973,0,2023-03-01T18:51:27.381880,1676903,1369,1851,-485,-1189,-789,-304,-69,159,-283
18080,8974,0,2023-03-01T18:51:27.388050,1676909,1369,1851,-485,-1189,-789,-304,-69,159,-283
18081,8975,0,2023-03-01T18:51:27.393514,1676915,1369,1851,-485,-1189,-789,-304,-69,159,-283
18082,8976,0,2023-03-01T18:51:27.398043,1676919,1366,1850,-484,-1192,-782,-292,-69,159,-283
18083,8977,0,2023-03-01T18:51:27.403803,1676925,1366,1850,-484,-1192,-782,-292,-69,159,-283
18084,8978,0,2023-03-01T18:51:27.408488,1676930,1366,1850,-484,-1192,-782,-292,-69,159,-283
18085,8979,0,2023-03-01T18:51:27.414333,1676936,1366,1850,-484,-1192,-782,-292,-69,159,-283
18086,8980,0,2023-03-01T18:51:27.419243,1676941,1368,1853,-482,-1189,-780,-296,-69,159,-283
18087,8981,0,2023-03-01T18:51:27.425296,1676947,1368,1853,-482,-1189,-780,-296,-69,159,-283
18088,8982,0,2023-03-01T18:51:27.429999,1676951,1368,1853,-482,-1189,-780,-296,-69,159,-283
18089,8983,0,2023-03-01T18:51:27.435914,1676957,1368,1853,-482,-1189,-780,-296,-69,159,-283
18090,8984,0,2023-03-01T18:51:27.440799,1676962,1367,1852,-483,-1185,-788,-298,-69,159,-283
18091,8985,0,2023-03-01T18:51:27.447282,1676968,1367,1852,-483,-1185,-788,-298,-69,159,-283
18092,8986,0,2023-03-01T18:51:27.452527,1676974,1367,1852,-483,-1185,-788,-298,-69,159,-283
18093,8987,0,2023-03-01T18:51:27.457680,1676979,1363,1850,-478,-1182,-792,-302,-64,172,-278
18094,8988,0,2023-03-01T18:51:27.464021,1676985,1363,1850,-478,-1182,-792,-302,-64,172,-278
18095,8989,0,2023-03-01T18:51:27.469312,1676990,1363,1850,-478,-1182,-792,-302,-64,172,-278
18096,8990,0,2023-03-01T18:51:27.474081,1676995,1363,1850,-478,-1182,-792,-302,-64,172,-278
18097,8991,0,2023-03-01T18:51:27.479106,1677000,1369,1851,-484,-1183,-786,-302,-64,172,-278
18098,8992,0,2023-03-01T18:51:27.484946,1677006,1369,1851,-484,-1183,-786,-302,-64,172,-278
18099,8993,0,2023-03-01T18:51:27.489447,1677010,1369,1851,-484,-1183,-786,-302,-64,172,-278
18100,8994,0,2023-03-01T18:51:27.494544,1677016,1369,1851,-484,-1183,-786,-302,-64,172,-278
18101,8995,0,2023-03-01T18:51:27.499699,1677021,1366,1852,-481,-1178,-786,-307,-64,172,-278
18102,8996,0,2023-03-01T18:51:27.506635,1677028,1366,1852,-481,-1178,-786,-307,-64,172,-278
18103,8997,0,2023-03-01T18:51:27.512150,1677033,1366,1852,-481,-1178,-786,-307,-64,172,-278
18104,8998,0,2023-03-01T18:51:27.517603,1677038,1366,1852,-481,-1178,-786,-307,-64,172,-278
18105,8999,0,2023-03-01T18:51:27.522627,1677044,1368,1856,-485,-1180,-774,-299,-64,172,-278
18106,9000,0,2023-03-01T18:51:27.528682,1677050,1368,1856,-485,-1180,-774,-299,-64,172,-278
18107,9001,0,2023-03-01T18:51:27.533802,1677056,1368,1856,-485,-1180,-774,-299,-64,172,-278
18108,9002,0,2023-03-01T18:51:27.539262,1677061,1369,1853,-486,-1166,-782,-297,-64,172,-278
18109,9003,0,2023-03-01T18:51:27.544960,1677066,1369,1853,-486,-1166,-782,-297,-64,172,-278
18110,9004,0,2023-03-01T18:51:27.549620,1677071,1369,1853,-486,-1166,-782,-297,-64,172,-278
18111,9005,0,2023-03-01T18:51:27.555272,1677076,1369,1853,-486,-1166,-782,-297,-64,172,-278
18112,9006,0,2023-03-01T18:51:27.560072,1677081,1365,1848,-482,-1167,-775,-296,-64,172,-278
18113,9007,0,2023-03-01T18:51:27.566432,1677087,1365,1848,-482,-1167,-775,-296,-64,172,-278
18114,9008,0,2023-03-01T18:51:27.572238,1677093,1365,1848,-482,-1167,-775,-296,-64,172,-278
18115,9009,0,2023-03-01T18:51:27.577326,1677099,1365,1848,-482,-1167,-775,-296,-64,172,-278
18116,9010,0,2023-03-01T18:51:27.582262,1677104,1370,1854,-485,-1166,-776,-294,-66,170,-290
18117,9011,0,2023-03-01T18:51:27.588317,1677110,1370,1854,-485,-1166,-776,-294,-66,170,-290
18118,9012,0,2023-03-01T18:51:27.593723,1677115,1370,1854,-485,-1166,-776,-294,-66,170,-290
18119,9013,0,2023-03-01T18:51:27.598540,1677120,1367,1850,-482,-1170,-778,-297,-66,170,-290
18120,9014,0,2023-03-01T18:51:27.604638,1677126,1367,1850,-482,-1170,-778,-297,-66,170,-290
18121,9015,0,2023-03-01T18:51:27.609356,1677130,1367,1850,-482,-1170,-778,-297,-66,170,-290
18122,9016,0,2023-03-01T18:51:27.614340,1677135,1367,1850,-482,-1170,-778,-297,-66,170,-290
18123,9017,0,2023-03-01T18:51:27.619306,1677140,1367,1845,-479,-1169,-787,-298,-66,170,-290
18124,9018,0,2023-03-01T18:51:27.625213,1677147,1367,1845,-479,-1169,-787,-298,-66,170,-290
18125,9019,0,2023-03-01T18:51:27.630121,1677152,1367,1845,-479,-1169,-787,-298,-66,170,-290
18126,9020,0,2023-03-01T18:51:27.634861,1677156,1367,1845,-479,-1169,-787,-298,-66,170,-290
18127,9021,0,2023-03-01T18:51:27.640055,1677161,1369,1854,-492,-1186,-795,-305,-66,170,-290
18128,9022,0,2023-03-01T18:51:27.646105,1677167,1369,1854,-492,-1186,-795,-305,-66,170,-290
18129,9023,0,2023-03-01T18:51:27.651868,1677173,1369,1854,-492,-1186,-795,-305,-66,170,-290
18130,9024,0,2023-03-01T18:51:27.657261,1677178,1369,1854,-492,-1186,-795,-305,-66,170,-290
18131,9025,0,2023-03-01T18:51:27.662065,1677184,1369,1848,-481,-1196,-797,-300,-66,170,-290
18132,9026,0,2023-03-01T18:51:27.667766,1677190,1369,1848,-481,-1196,-797,-300,-66,170,-290
18133,9027,0,2023-03-01T18:51:27.672797,1677194,1369,1848,-481,-1196,-797,-300,-66,170,-290
18134,9028,0,2023-03-01T18:51:27.678672,1677200,1369,1854,-482,-1197,-796,-301,-66,170,-290
18135,9029,0,2023-03-01T18:51:27.684550,1677206,1369,1854,-482,-1197,-796,-301,-66,170,-290
18136,9030,0,2023-03-01T18:51:27.689647,1677211,1369,1854,-482,-1197,-796,-301,-66,170,-290
18137,9031,0,2023-03-01T18:51:27.695548,1677216,1369,1854,-482,-1197,-796,-301,-66,170,-290
18138,9032,0,2023-03-01T18:51:27.700157,1677221,1369,1854,-482,-1198,-798,-298,-66,170,-290
18139,9033,0,2023-03-01T18:51:27.706206,1677228,1369,1854,-482,-1198,-798,-298,-66,170,-290
18140,9034,0,2023-03-01T18:51:27.710864,1677233,1369,1854,-482,-1198,-798,-298,-66,170,-290
18141,9035,0,2023-03-01T18:51:27.716033,1677238,1369,1854,-482,-1198,-798,-298,-66,170,-290
18142,9036,0,2023-03-01T18:51:27.721133,1677242,1367,1847,-483,-1191,-797,-298,-58,168,-288
18143,9037,0,2023-03-01T18:51:27.727437,1677248,1367,1847,-483,-1191,-797,-298,-58,168,-288
18144,9038,0,2023-03-01T18:51:27.733036,1677254,1367,1847,-483,-1191,-797,-298,-58,168,-288
18145,9039,0,2023-03-01T18:51:27.738087,1677259,1368,1853,-480,-1186,-794,-296,-58,168,-288
18146,9040,0,2023-03-01T18:51:27.743867,1677265,1368,1853,-480,-1186,-794,-296,-58,168,-288
18147,9041,0,2023-03-01T18:51:27.748358,1677270,1368,1853,-480,-1186,-794,-296,-58,168,-288
18148,9042,0,2023-03-01T18:51:27.754096,1677276,1368,1853,-480,-1186,-794,-296,-58,168,-288
18149,9043,0,2023-03-01T18:51:27.759039,1677281,1370,1850,-484,-1179,-797,-293,-58,168,-288
18150,9044,0,2023-03-01T18:51:27.764894,1677286,1370,1850,-484,-1179,-797,-293,-58,168,-288
18151,9045,0,2023-03-01T18:51:27.769710,1677291,1370,1850,-484,-1179,-797,-293,-58,168,-288
18152,9046,0,2023-03-01T18:51:27.774550,1677296,1370,1850,-484,-1179,-797,-293,-58,168,-288
18153,9047,0,2023-03-01T18:51:27.779668,1677301,1367,1850,-484,-1181,-781,-303,-58,168,-288
18154,9048,0,2023-03-01T18:51:27.785655,1677307,1367,1850,-484,-1181,-781,-303,-58,168,-288
18155,9049,0,2023-03-01T18:51:27.792130,1677314,1367,1850,-484,-1181,-781,-303,-58,168,-288
18156,9050,0,2023-03-01T18:51:27.797875,1677319,1371,1850,-485,-1190,-781,-310,-58,168,-288
18157,9051,0,2023-03-01T18:51:27.804535,1677326,1371,1850,-485,-1190,-781,-310,-58,168,-288
18158,9052,0,2023-03-01T18:51:27.809283,1677331,1371,1850,-485,-1190,-781,-310,-58,168,-288
18159,9053,0,2023-03-01T18:51:27.814033,1677335,1371,1850,-485,-1190,-781,-310,-58,168,-288
18160,9054,0,2023-03-01T18:51:27.819777,1677341,1367,1848,-489,-1182,-788,-308,-58,168,-288
18161,9055,0,2023-03-01T18:51:27.825501,1677347,1367,1848,-489,-1182,-788,-308,-58,168,-288
18162,9056,0,2023-03-01T18:51:27.830572,1677351,1367,1848,-489,-1182,-788,-308,-58,168,-288
18163,9057,0,2023-03-01T18:51:27.836390,1677358,1367,1848,-489,-1182,-788,-308,-58,168,-288
18164,9058,0,2023-03-01T18:51:27.841207,1677363,1371,1851,-479,-1195,-796,-303,-61,171,-293
18165,9059,0,2023-03-01T18:51:27.847016,1677368,1371,1851,-479,-1195,-796,-303,-61,171,-293
18166,9060,0,2023-03-01T18:51:27.852515,1677374,1371,1851,-479,-1195,-796,-303,-61,171,-293
18167,9061,0,2023-03-01T18:51:27.857314,1677378,1371,1851,-479,-1195,-796,-303,-61,171,-293
18168,9062,0,2023-03-01T18:51:27.861980,1677383,1367,1849,-486,-1192,-799,-293,-61,171,-293
18169,9063,0,2023-03-01T18:51:27.867955,1677389,1367,1849,-486,-1192,-799,-293,-61,171,-293
18170,9064,0,2023-03-01T18:51:27.872880,1677394,1367,1849,-486,-1192,-799,-293,-61,171,-293
18171,9065,0,2023-03-01T18:51:27.877802,1677399,1364,1850,-480,-1188,-795,-297,-61,171,-293
18172,9066,0,2023-03-01T18:51:27.883696,1677405,1364,1850,-480,-1188,-795,-297,-61,171,-293
18173,9067,0,2023-03-01T18:51:27.888751,1677410,1364,1850,-480,-1188,-795,-297,-61,171,-293
18174,9068,0,2023-03-01T18:51:27.894335,1677415,1364,1850,-480,-1188,-795,-297,-61,171,-293
18175,9069,0,2023-03-01T18:51:27.899542,1677421,1372,1853,-488,-1188,-786,-303,-61,171,-293
18176,9070,0,2023-03-01T18:51:27.905687,1677426,1372,1853,-488,-1188,-786,-303,-61,171,-293
18177,9071,0,2023-03-01T18:51:27.910321,1677431,1372,1853,-488,-1188,-786,-303,-61,171,-293
18178,9072,0,2023-03-01T18:51:27.915757,1677437,1372,1853,-488,-1188,-786,-303,-61,171,-293
18179,9073,0,2023-03-01T18:51:27.920472,1677442,1367,1851,-486,-1192,-794,-308,-61,171,-293
18180,9074,0,2023-03-01T18:51:27.927356,1677449,1367,1851,-486,-1192,-794,-308,-61,171,-293
18181,9075,0,2023-03-01T18:51:27.931825,1677453,1367,1851,-486,-1192,-794,-308,-61,171,-293
18182,9076,0,2023-03-01T18:51:27.936653,1677458,1367,1851,-486,-1192,-794,-308,-61,171,-293
18183,9077,0,2023-03-01T18:51:27.941581,1677463,1368,1848,-488,-1182,-783,-295,-61,171,-293
18184,9078,0,2023-03-01T18:51:27.948086,1677469,1368,1848,-488,-1182,-783,-295,-61,171,-293
18185,9079,0,2023-03-01T18:51:27.953835,1677475,1368,1848,-488,-1182,-783,-295,-61,171,-293
18186,9080,0,2023-03-01T18:51:27.958828,1677480,1371,1854,-478,-1186,-794,-306,-62,172,-274
18187,9081,0,2023-03-01T18:51:27.965583,1677487,1371,1854,-478,-1186,-794,-306,-62,172,-274
18188,9082,0,2023-03-01T18:51:27.970444,1677492,1371,1854,-478,-1186,-794,-306,-62,172,-274
18189,9083,0,2023-03-01T18:51:27.975625,1677497,1371,1854,-478,-1186,-794,-306,-62,172,-274
18190,9084,0,2023-03-01T18:51:27.980697,1677502,1369,1847,-480,-1187,-794,-297,-62,172,-274
18191,9085,0,2023-03-01T18:51:27.987199,1677508,1369,1847,-480,-1187,-794,-297,-62,172,-274
18192,9086,0,2023-03-01T18:51:27.992384,1677513,1369,1847,-480,-1187,-794,-297,-62,172,-274
18193,9087,0,2023-03-01T18:51:27.997622,1677518,1369,1847,-480,-1187,-794,-297,-62,172,-274
18194,9088,0,2023-03-01T18:51:28.002773,1677523,1372,1849,-480,-1184,-790,-299,-62,172,-274
18195,9089,0,2023-03-01T18:51:28.008351,1677530,1372,1849,-480,-1184,-790,-299,-62,172,-274
18196,9090,0,2023-03-01T18:51:28.014075,1677536,1372,1849,-480,-1184,-790,-299,-62,172,-274
18197,9091,0,2023-03-01T18:51:28.019103,1677540,1371,1853,-484,-1188,-791,-299,-62,172,-274
18198,9092,0,2023-03-01T18:51:28.025794,1677547,1371,1853,-484,-1188,-791,-299,-62,172,-274
18199,9093,0,2023-03-01T18:51:28.031250,1677552,1371,1853,-484,-1188,-791,-299,-62,172,-274
