,Unnamed: 0,imu,server_time,arduino_time,ax,ay,az,gx,gy,gz,mx,my,mz
18200,9094,0,2023-03-01T18:51:28.036381,1677557,1371,1853,-484,-1188,-791,-299,-62,172,-274
18201,9095,0,2023-03-01T18:51:28.041464,1677562,1369,1847,-483,-1189,-790,-293,-62,172,-274
18202,9096,0,2023-03-01T18:51:28.047126,1677569,1369,1847,-483,-1189,-790,-293,-62,172,-274
18203,9097,0,2023-03-01T18:51:28.051983,1677574,1369,1847,-483,-1189,-790,-293,-62,172,-274
18204,9098,0,2023-03-01T18:51:28.056976,1677578,1369,1847,-483,-1189,-790,-293,-62,172,-274
18205,9099,0,2023-03-01T18:51:28.062250,1677584,1370,1851,-481,-1190,-785,-303,-62,172,-274
18206,9100,0,2023-03-01T18:51:28.068035,1677589,1370,1851,-481,-1190,-785,-303,-62,172,-274
18207,9101,0,2023-03-01T18:51:28.073042,1677594,1370,1851,-481,-1190,-785,-303,-62,172,-274
18208,9102,0,2023-03-01T18:51:28.077920,1677599,1368,1851,-490,-1187,-797,-304,-62,172,-274
18209,9103,0,2023-03-01T18:51:28.084662,1677605,1368,1851,-490,-1187,-797,-304,-62,172,-274
18210,9104,0,2023-03-01T18:51:28.089481,1677611,1368,1851,-490,-1187,-797,-304,-62,172,-274
18211,9105,0,2023-03-01T18:51:28.095057,1677617,1368,1851,-490,-1187,-797,-304,-62,172,-274
18212,9106,0,2023-03-01T18:51:28.099592,1677621,1370,1847,-483,-1188,-797,-300,-65,179,-285
18213,9107,0,2023-03-01T18:51:28.104931,1677626,1370,1847,-483,-1188,-797,-300,-65,179,-285
18214,9108,0,2023-03-01T18:51:28.109634,1677631,1370,1847,-483,-1188,-797,-300,-65,179,-285
18215,9109,0,2023-03-01T18:51:28.115120,1677636,1370,1847,-483,-1188,-797,-300,-65,179,-285
18216,9110,0,2023-03-01T18:51:28.120388,1677641,1371,1851,-483,-1190,-798,-297,-65,179,-285
18217,9111,0,2023-03-01T18:51:28.126185,1677647,1371,1851,-483,-1190,-798,-297,-65,179,-285
18218,9112,0,2023-03-01T18:51:28.131488,1677652,1371,1851,-483,-1190,-798,-297,-65,179,-285
18219,9113,0,2023-03-01T18:51:28.136459,1677658,1371,1851,-483,-1190,-798,-297,-65,179,-285
18220,9114,0,2023-03-01T18:51:28.141322,1677663,1368,1846,-486,-1183,-793,-294,-65,179,-285
18221,9115,0,2023-03-01T18:51:28.147384,1677669,1368,1846,-486,-1183,-793,-294,-65,179,-285
18222,9116,0,2023-03-01T18:51:28.153649,1677675,1368,1846,-486,-1183,-793,-294,-65,179,-285
18223,9117,0,2023-03-01T18:51:28.158471,1677680,1369,1850,-488,-1192,-806,-298,-65,179,-285
18224,9118,0,2023-03-01T18:51:28.164355,1677685,1369,1850,-488,-1192,-806,-298,-65,179,-285
18225,9119,0,2023-03-01T18:51:28.169209,1677690,1369,1850,-488,-1192,-806,-298,-65,179,-285
18226,9120,0,2023-03-01T18:51:28.175124,1677696,1369,1850,-488,-1192,-806,-298,-65,179,-285
18227,9121,0,2023-03-01T18:51:28.179998,1677702,1371,1852,-487,-1198,-807,-303,-65,179,-285
18228,9122,0,2023-03-01T18:51:28.186285,1677708,1371,1852,-487,-1198,-807,-303,-65,179,-285
18229,9123,0,2023-03-01T18:51:28.191153,1677712,1371,1852,-487,-1198,-807,-303,-65,179,-285
18230,9124,0,2023-03-01T18:51:28.196063,1677717,1371,1852,-487,-1198,-807,-303,-65,179,-285
18231,9125,0,2023-03-01T18:51:28.201094,1677722,1365,1845,-482,-1193,-793,-305,-65,179,-285
18232,9126,0,2023-03-01T18:51:28.207197,1677728,1365,1845,-482,-1193,-793,-305,-65,179,-285
18233,9127,0,2023-03-01T18:51:28.212040,1677733,1365,1845,-482,-1193,-793,-305,-65,179,-285
18234,9128,0,2023-03-01T18:51:28.216837,1677737,1365,1845,-482,-1193,-793,-305,-65,179,-285
18235,9129,0,2023-03-01T18:51:28.222015,1677743,1369,1853,-481,-1189,-791,-302,-72,168,-286
18236,9130,0,2023-03-01T18:51:28.228804,1677750,1369,1853,-481,-1189,-791,-302,-72,168,-286
18237,9131,0,2023-03-01T18:51:28.234524,1677756,1369,1853,-481,-1189,-791,-302,-72,168,-286
18238,9132,0,2023-03-01T18:51:28.239478,1677761,1368,1847,-478,-1189,-795,-292,-72,168,-286
18239,9133,0,2023-03-01T18:51:28.245383,1677766,1368,1847,-478,-1189,-795,-292,-72,168,-286
18240,9134,0,2023-03-01T18:51:28.250021,1677771,1368,1847,-478,-1189,-795,-292,-72,168,-286
18241,9135,0,2023-03-01T18:51:28.254785,1677776,1368,1847,-478,-1189,-795,-292,-72,168,-286
18242,9136,0,2023-03-01T18:51:28.260071,1677782,1369,1850,-483,-1193,-797,-294,-72,168,-286
18243,9137,0,2023-03-01T18:51:28.266251,1677788,1369,1850,-483,-1193,-797,-294,-72,168,-286
18244,9138,0,2023-03-01T18:51:28.271448,1677793,1369,1850,-483,-1193,-797,-294,-72,168,-286
18245,9139,0,2023-03-01T18:51:28.276697,1677798,1369,1850,-483,-1193,-797,-294,-72,168,-286
18246,9140,0,2023-03-01T18:51:28.281577,1677803,1370,1852,-486,-1180,-798,-303,-72,168,-286
18247,9141,0,2023-03-01T18:51:28.287758,1677809,1370,1852,-486,-1180,-798,-303,-72,168,-286
18248,9142,0,2023-03-01T18:51:28.292567,1677814,1370,1852,-486,-1180,-798,-303,-72,168,-286
18249,9143,0,2023-03-01T18:51:28.297443,1677819,1370,1852,-486,-1180,-798,-303,-72,168,-286
18250,9144,0,2023-03-01T18:51:28.302007,1677824,1369,1847,-486,-1188,-796,-297,-72,168,-286
18251,9145,0,2023-03-01T18:51:28.307830,1677829,1369,1847,-486,-1188,-796,-297,-72,168,-286
18252,9146,0,2023-03-01T18:51:28.312567,1677834,1369,1847,-486,-1188,-796,-297,-72,168,-286
18253,9147,0,2023-03-01T18:51:28.317383,1677839,1369,1847,-486,-1188,-796,-297,-72,168,-286
18254,9148,0,2023-03-01T18:51:28.322051,1677843,1370,1850,-491,-1185,-797,-295,-72,168,-286
18255,9149,0,2023-03-01T18:51:28.327897,1677849,1370,1850,-491,-1185,-797,-295,-72,168,-286
18256,9150,0,2023-03-01T18:51:28.333430,1677854,1370,1850,-491,-1185,-797,-295,-72,168,-286
18257,9151,0,2023-03-01T18:51:28.338609,1677859,1372,1852,-482,-1191,-793,-303,-72,168,-286
18258,9152,0,2023-03-01T18:51:28.344193,1677865,1372,1852,-482,-1191,-793,-303,-72,168,-286
18259,9153,0,2023-03-01T18:51:28.349028,1677871,1372,1852,-482,-1191,-793,-303,-72,168,-286
18260,9154,0,2023-03-01T18:51:28.353669,1677875,1372,1852,-482,-1191,-793,-303,-72,168,-286
18261,9155,0,2023-03-01T18:51:28.358466,1677880,1370,1845,-480,-1188,-802,-297,-72,168,-286
18262,9156,0,2023-03-01T18:51:28.364479,1677886,1370,1845,-480,-1188,-802,-297,-63,167,-283
18263,9157,0,2023-03-01T18:51:28.369638,1677891,1370,1845,-480,-1188,-802,-297,-63,167,-283
18264,9158,0,2023-03-01T18:51:28.375365,1677896,1370,1845,-480,-1188,-802,-297,-63,167,-283
18265,9159,0,2023-03-01T18:51:28.380330,1677901,1370,1851,-484,-1179,-788,-305,-63,167,-283
18266,9160,0,2023-03-01T18:51:28.386169,1677907,1370,1851,-484,-1179,-788,-305,-63,167,-283
18267,9161,0,2023-03-01T18:51:28.391084,1677913,1370,1851,-484,-1179,-788,-305,-63,167,-283
18268,9162,0,2023-03-01T18:51:28.397148,1677918,1370,1851,-484,-1179,-788,-305,-63,167,-283
18269,9163,0,2023-03-01T18:51:28.401961,1677923,1369,1851,-483,-1175,-787,-294,-63,167,-283
18270,9164,0,2023-03-01T18:51:28.407964,1677929,1369,1851,-483,-1175,-787,-294,-63,167,-283
18271,9165,0,2023-03-01T18:51:28.413243,1677935,1369,1851,-483,-1175,-787,-294,-63,167,-283
18272,9166,0,2023-03-01T18:51:28.418115,1677939,1369,1851,-483,-1175,-787,-294,-63,167,-283
18273,9167,0,2023-03-01T18:51:28.423682,1677945,1371,1848,-488,-1179,-790,-298,-63,167,-283
18274,9168,0,2023-03-01T18:51:28.429041,1677950,1371,1848,-488,-1179,-790,-298,-63,167,-283
18275,9169,0,2023-03-01T18:51:28.434113,1677956,1371,1848,-488,-1179,-790,-298,-63,167,-283
18276,9170,0,2023-03-01T18:51:28.438632,1677960,1371,1848,-495,-1188,-799,-295,-63,167,-283
18277,9171,0,2023-03-01T18:51:28.446860,1677968,1371,1848,-495,-1188,-799,-295,-63,167,-283
18278,9172,0,2023-03-01T18:51:28.451620,1677973,1371,1848,-495,-1188,-799,-295,-63,167,-283
18279,9173,0,2023-03-01T18:51:28.456826,1677978,1371,1848,-495,-1188,-799,-295,-63,167,-283
18280,9174,0,2023-03-01T18:51:28.461869,1677983,1370,1846,-485,-1190,-794,-301,-63,167,-283
18281,9175,0,2023-03-01T18:51:28.468035,1677989,1370,1846,-485,-1190,-794,-301,-63,167,-283
18282,9176,0,2023-03-01T18:51:28.473396,1677995,1370,1846,-485,-1190,-794,-301,-63,167,-283
18283,9177,0,2023-03-01T18:51:28.478284,1678000,1369,1851,-483,-1200,-798,-301,-63,167,-283
18284,9178,0,2023-03-01T18:51:28.484438,1678006,1369,1851,-483,-1200,-798,-301,-58,162,-284
18285,9179,0,2023-03-01T18:51:28.489586,1678011,1369,1851,-483,-1200,-798,-301,-58,162,-284
18286,9180,0,2023-03-01T18:51:28.494859,1678016,1369,1851,-483,-1200,-798,-301,-58,162,-284
18287,9181,0,2023-03-01T18:51:28.499677,1678021,1371,1850,-488,-1186,-795,-295,-58,162,-284
18288,9182,0,2023-03-01T18:51:28.505704,1678027,1371,1850,-488,-1186,-795,-295,-58,162,-284
18289,9183,0,2023-03-01T18:51:28.510707,1678031,1371,1850,-488,-1186,-795,-295,-58,162,-284
18290,9184,0,2023-03-01T18:51:28.516415,1678038,1371,1850,-488,-1186,-795,-295,-58,162,-284
18291,9185,0,2023-03-01T18:51:28.521713,1678043,1372,1849,-485,-1177,-794,-291,-58,162,-284
18292,9186,0,2023-03-01T18:51:28.527383,1678049,1372,1849,-485,-1177,-794,-291,-58,162,-284
18293,9187,0,2023-03-01T18:51:28.532385,1678054,1372,1849,-485,-1177,-794,-291,-58,162,-284
18294,9188,0,2023-03-01T18:51:28.537355,1678058,1372,1849,-485,-1177,-794,-291,-58,162,-284
18295,9189,0,2023-03-01T18:51:28.542087,1678063,1371,1851,-488,-1193,-798,-297,-58,162,-284
18296,9190,0,2023-03-01T18:51:28.547921,1678069,1371,1851,-488,-1193,-798,-297,-58,162,-284
18297,9191,0,2023-03-01T18:51:28.552878,1678074,1371,1851,-488,-1193,-798,-297,-58,162,-284
18298,9192,0,2023-03-01T18:51:28.557920,1678080,1371,1851,-488,-1193,-798,-297,-58,162,-284
18299,9193,0,2023-03-01T18:51:28.563521,1678085,1370,1845,-485,-1177,-807,-300,-58,162,-284
18300,9194,0,2023-03-01T18:51:28.569189,1678091,1370,1845,-485,-1177,-807,-300,-58,162,-284
18301,9195,0,2023-03-01T18:51:28.575236,1678096,1370,1845,-485,-1177,-807,-300,-58,162,-284
18302,9196,0,2023-03-01T18:51:28.580539,1678102,1375,1849,-485,-1185,-796,-300,-58,162,-284
18303,9197,0,2023-03-01T18:51:28.586917,1678108,1375,1849,-485,-1185,-796,-300,-58,162,-284
18304,9198,0,2023-03-01T18:51:28.592317,1678113,1375,1849,-485,-1185,-796,-300,-58,162,-284
18305,9199,0,2023-03-01T18:51:28.597316,1678118,1375,1849,-485,-1185,-796,-300,-58,162,-284
18306,9200,0,2023-03-01T18:51:28.602379,1678124,1371,1848,-491,-1186,-786,-300,-67,171,-283
18307,9201,0,2023-03-01T18:51:28.609241,1678131,1371,1848,-491,-1186,-786,-300,-67,171,-283
18308,9202,0,2023-03-01T18:51:28.615101,1678137,1371,1848,-491,-1186,-786,-300,-67,171,-283
18309,9203,0,2023-03-01T18:51:28.619858,1678141,1368,1846,-485,-1188,-786,-299,-67,171,-283
18310,9204,0,2023-03-01T18:51:28.626067,1678147,1368,1846,-485,-1188,-786,-299,-67,171,-283
18311,9205,0,2023-03-01T18:51:28.631277,1678152,1368,1846,-485,-1188,-786,-299,-67,171,-283
18312,9206,0,2023-03-01T18:51:28.635970,1678157,1368,1846,-485,-1188,-786,-299,-67,171,-283
18313,9207,0,2023-03-01T18:51:28.640845,1678162,1370,1852,-483,-1181,-803,-307,-67,171,-283
18314,9208,0,2023-03-01T18:51:28.646953,1678169,1370,1852,-483,-1181,-803,-307,-67,171,-283
18315,9209,0,2023-03-01T18:51:28.652016,1678174,1370,1852,-483,-1181,-803,-307,-67,171,-283
18316,9210,0,2023-03-01T18:51:28.656711,1678178,1370,1852,-483,-1181,-803,-307,-67,171,-283
18317,9211,0,2023-03-01T18:51:28.661869,1678183,1373,1850,-485,-1189,-795,-301,-67,171,-283
18318,9212,0,2023-03-01T18:51:28.668326,1678189,1373,1850,-485,-1189,-795,-301,-67,171,-283
18319,9213,0,2023-03-01T18:51:28.673121,1678194,1373,1850,-485,-1189,-795,-301,-67,171,-283
18320,9214,0,2023-03-01T18:51:28.678180,1678199,1373,1850,-485,-1189,-795,-301,-67,171,-283
18321,9215,0,2023-03-01T18:51:28.683629,1678204,1369,1846,-488,-1187,-790,-297,-67,171,-283
18322,9216,0,2023-03-01T18:51:28.689287,1678211,1369,1846,-488,-1187,-790,-297,-67,171,-283
18323,9217,0,2023-03-01T18:51:28.693761,1678216,1369,1846,-488,-1187,-790,-297,-67,171,-283
18324,9218,0,2023-03-01T18:51:28.698558,1678220,1371,1849,-485,-1189,-790,-301,-67,171,-283
18325,9219,0,2023-03-01T18:51:28.704558,1678226,1371,1849,-485,-1189,-790,-301,-67,171,-283
18326,9220,0,2023-03-01T18:51:28.709329,1678231,1371,1849,-485,-1189,-790,-301,-67,171,-283
18327,9221,0,2023-03-01T18:51:28.715066,1678236,1371,1849,-485,-1189,-790,-301,-67,171,-283
18328,9222,0,2023-03-01T18:51:28.720217,1678241,1372,1849,-486,-1177,-793,-303,-67,171,-283
18329,9223,0,2023-03-01T18:51:28.726257,1678247,1372,1849,-486,-1177,-793,-303,-67,171,-283
18330,9224,0,2023-03-01T18:51:28.730962,1678253,1372,1849,-486,-1177,-793,-303,-67,171,-283
18331,9225,0,2023-03-01T18:51:28.736537,1678258,1372,1849,-486,-1177,-793,-303,-67,171,-283
18332,9226,0,2023-03-01T18:51:28.741730,1678263,1371,1852,-478,-1184,-791,-302,-70,166,-286
18333,9227,0,2023-03-01T18:51:28.747753,1678269,1371,1852,-478,-1184,-791,-302,-70,166,-286
18334,9228,0,2023-03-01T18:51:28.753253,1678275,1371,1852,-478,-1184,-791,-302,-70,166,-286
18335,9229,0,2023-03-01T18:51:28.758012,1678279,1371,1852,-478,-1184,-791,-302,-70,166,-286
18336,9230,0,2023-03-01T18:51:28.763371,1678284,1373,1849,-490,-1189,-793,-299,-70,166,-286
18337,9231,0,2023-03-01T18:51:28.769019,1678290,1373,1849,-490,-1189,-793,-299,-70,166,-286
18338,9232,0,2023-03-01T18:51:28.774698,1678296,1373,1849,-490,-1189,-793,-299,-70,166,-286
18339,9233,0,2023-03-01T18:51:28.780438,1678302,1368,1845,-481,-1185,-790,-303,-70,166,-286
18340,9234,0,2023-03-01T18:51:28.786258,1678308,1368,1845,-481,-1185,-790,-303,-70,166,-286
18341,9235,0,2023-03-01T18:51:28.791311,1678312,1368,1845,-481,-1185,-790,-303,-70,166,-286
18342,9236,0,2023-03-01T18:51:28.796013,1678317,1368,1845,-481,-1185,-790,-303,-70,166,-286
18343,9237,0,2023-03-01T18:51:28.800886,1678322,1371,1850,-486,-1184,-799,-293,-70,166,-286
18344,9238,0,2023-03-01T18:51:28.806974,1678328,1371,1850,-486,-1184,-799,-293,-70,166,-286
18345,9239,0,2023-03-01T18:51:28.811713,1678333,1371,1850,-486,-1184,-799,-293,-70,166,-286
18346,9240,0,2023-03-01T18:51:28.816535,1678338,1371,1850,-486,-1184,-799,-293,-70,166,-286
18347,9241,0,2023-03-01T18:51:28.821374,1678343,1364,1848,-486,-1189,-802,-295,-70,166,-286
18348,9242,0,2023-03-01T18:51:28.827660,1678349,1364,1848,-486,-1189,-802,-295,-70,166,-286
18349,9243,0,2023-03-01T18:51:28.832617,1678354,1364,1848,-486,-1189,-802,-295,-70,166,-286
18350,9244,0,2023-03-01T18:51:28.837698,1678359,1364,1848,-486,-1189,-802,-295,-70,166,-286
18351,9245,0,2023-03-01T18:51:28.842313,1678364,1374,1850,-486,-1193,-801,-300,-70,166,-286
18352,9246,0,2023-03-01T18:51:28.847136,1678368,1374,1850,-486,-1193,-801,-300,-70,166,-286
18353,9247,0,2023-03-01T18:51:28.851865,1678373,1374,1850,-486,-1193,-801,-300,-70,166,-286
18354,9248,0,2023-03-01T18:51:28.856721,1678379,1374,1850,-486,-1193,-801,-300,-70,166,-286
18355,9249,0,2023-03-01T18:51:28.861698,1678383,1373,1850,-484,-1187,-797,-304,-63,177,-287
18356,9250,0,2023-03-01T18:51:28.868322,1678390,1373,1850,-484,-1187,-797,-304,-63,177,-287
18357,9251,0,2023-03-01T18:51:28.873354,1678395,1373,1850,-484,-1187,-797,-304,-63,177,-287
18358,9252,0,2023-03-01T18:51:28.878801,1678400,1373,1850,-484,-1187,-797,-304,-63,177,-287
18359,9253,0,2023-03-01T18:51:28.885420,1678406,1368,1850,-481,-1194,-802,-296,-63,177,-287
18360,9254,0,2023-03-01T18:51:28.891097,1678412,1368,1850,-481,-1194,-802,-296,-63,177,-287
18361,9255,0,2023-03-01T18:51:28.896836,1678418,1368,1850,-481,-1194,-802,-296,-63,177,-287
18362,9256,0,2023-03-01T18:51:28.901498,1678423,1369,1848,-477,-1197,-806,-302,-63,177,-287
18363,9257,0,2023-03-01T18:51:28.907215,1678429,1369,1848,-477,-1197,-806,-302,-63,177,-287
18364,9258,0,2023-03-01T18:51:28.912189,1678434,1369,1848,-477,-1197,-806,-302,-63,177,-287
18365,9259,0,2023-03-01T18:51:28.917031,1678438,1369,1848,-477,-1197,-806,-302,-63,177,-287
18366,9260,0,2023-03-01T18:51:28.921877,1678443,1374,1847,-491,-1190,-810,-298,-63,177,-287
18367,9261,0,2023-03-01T18:51:28.928517,1678450,1374,1847,-491,-1190,-810,-298,-63,177,-287
18368,9262,0,2023-03-01T18:51:28.933278,1678454,1374,1847,-491,-1190,-810,-298,-63,177,-287
18369,9263,0,2023-03-01T18:51:28.937825,1678459,1374,1847,-491,-1190,-810,-298,-63,177,-287
18370,9264,0,2023-03-01T18:51:28.942887,1678465,1370,1844,-488,-1194,-796,-300,-63,177,-287
18371,9265,0,2023-03-01T18:51:28.948646,1678470,1370,1844,-488,-1194,-796,-300,-63,177,-287
18372,9266,0,2023-03-01T18:51:28.954057,1678476,1370,1844,-488,-1194,-796,-300,-63,177,-287
18373,9267,0,2023-03-01T18:51:28.959007,1678481,1373,1846,-490,-1198,-803,-304,-63,177,-287
18374,9268,0,2023-03-01T18:51:28.964616,1678486,1373,1846,-490,-1198,-803,-304,-63,177,-287
18375,9269,0,2023-03-01T18:51:28.969419,1678491,1373,1846,-490,-1198,-803,-304,-63,177,-287
18376,9270,0,2023-03-01T18:51:28.974300,1678495,1373,1846,-490,-1198,-803,-304,-63,177,-287
18377,9271,0,2023-03-01T18:51:28.979212,1678500,1372,1851,-491,-1196,-794,-291,-63,177,-287
18378,9272,0,2023-03-01T18:51:28.984703,1678507,1372,1851,-491,-1196,-794,-291,-63,177,-287
18379,9273,0,2023-03-01T18:51:28.989557,1678511,1372,1851,-491,-1196,-794,-291,-63,177,-287
18380,9274,0,2023-03-01T18:51:28.995828,1678517,1372,1851,-491,-1196,-794,-291,-63,177,-287
18381,9275,0,2023-03-01T18:51:29.000580,1678522,1372,1848,-482,-1195,-797,-293,-58,158,-286
18382,9276,0,2023-03-01T18:51:29.007320,1678529,1372,1848,-482,-1195,-797,-293,-58,158,-286
18383,9277,0,2023-03-01T18:51:29.012058,1678533,1372,1848,-482,-1195,-797,-293,-58,158,-286
18384,9278,0,2023-03-01T18:51:29.016779,1678538,1372,1848,-482,-1195,-797,-293,-58,158,-286
18385,9279,0,2023-03-01T18:51:29.021648,1678542,1374,1849,-488,-1188,-792,-300,-58,158,-286
18386,9280,0,2023-03-01T18:51:29.028659,1678550,1374,1849,-488,-1188,-792,-300,-58,158,-286
18387,9281,0,2023-03-01T18:51:29.034081,1678556,1374,1849,-488,-1188,-792,-300,-58,158,-286
18388,9282,0,2023-03-01T18:51:29.039291,1678561,1370,1847,-482,-1180,-790,-297,-58,158,-286
18389,9283,0,2023-03-01T18:51:29.045649,1678567,1370,1847,-482,-1180,-790,-297,-58,158,-286
18390,9284,0,2023-03-01T18:51:29.051095,1678572,1370,1847,-482,-1180,-790,-297,-58,158,-286
18391,9285,0,2023-03-01T18:51:29.057161,1678578,1370,1847,-482,-1180,-790,-297,-58,158,-286
18392,9286,0,2023-03-01T18:51:29.062066,1678583,1369,1848,-490,-1183,-791,-304,-58,158,-286
18393,9287,0,2023-03-01T18:51:29.067992,1678589,1369,1848,-490,-1183,-791,-304,-58,158,-286
18394,9288,0,2023-03-01T18:51:29.072917,1678595,1369,1848,-490,-1183,-791,-304,-58,158,-286
18395,9289,0,2023-03-01T18:51:29.077686,1678599,1369,1848,-490,-1183,-791,-304,-58,158,-286
18396,9290,0,2023-03-01T18:51:29.082427,1678604,1373,1847,-486,-1182,-787,-305,-58,158,-286
18397,9291,0,2023-03-01T18:51:29.088784,1678610,1373,1847,-486,-1182,-787,-305,-58,158,-286
18398,9292,0,2023-03-01T18:51:29.094343,1678616,1373,1847,-486,-1182,-787,-305,-58,158,-286
18399,9293,0,2023-03-01T18:51:29.099204,1678620,1369,1844,-488,-1191,-784,-308,-58,158,-286
18400,9294,0,2023-03-01T18:51:29.105510,1678627,1369,1844,-488,-1191,-784,-308,-58,158,-286
18401,9295,0,2023-03-01T18:51:29.110017,1678631,1369,1844,-488,-1191,-784,-308,-58,158,-286
18402,9296,0,2023-03-01T18:51:29.116269,1678638,1369,1844,-488,-1191,-784,-308,-58,158,-286
18403,9297,0,2023-03-01T18:51:29.121096,1678643,1371,1848,-483,-1189,-793,-309,-57,165,-281
18404,9298,0,2023-03-01T18:51:29.127385,1678649,1371,1848,-483,-1189,-793,-309,-57,165,-281
18405,9299,0,2023-03-01T18:51:29.132360,1678654,1371,1848,-483,-1189,-793,-309,-57,165,-281
18406,9300,0,2023-03-01T18:51:29.137434,1678659,1371,1848,-483,-1189,-793,-309,-57,165,-281
18407,9301,0,2023-03-01T18:51:29.142567,1678663,1371,1848,-480,-1187,-786,-299,-57,165,-281
18408,9302,0,2023-03-01T18:51:29.148151,1678669,1371,1848,-480,-1187,-786,-299,-57,165,-281
18409,9303,0,2023-03-01T18:51:29.153466,1678674,1371,1848,-480,-1187,-786,-299,-57,165,-281
18410,9304,0,2023-03-01T18:51:29.158450,1678680,1371,1848,-480,-1187,-786,-299,-57,165,-281
18411,9305,0,2023-03-01T18:51:29.163064,1678685,1373,1850,-487,-1191,-785,-298,-57,165,-281
18412,9306,0,2023-03-01T18:51:29.168294,1678690,1373,1850,-487,-1191,-785,-298,-57,165,-281
18413,9307,0,2023-03-01T18:51:29.173779,1678695,1373,1850,-487,-1191,-785,-298,-57,165,-281
18414,9308,0,2023-03-01T18:51:29.179034,1678701,1374,1848,-489,-1193,-784,-295,-57,165,-281
18415,9309,0,2023-03-01T18:51:29.184671,1678706,1374,1848,-489,-1193,-784,-295,-57,165,-281
18416,9310,0,2023-03-01T18:51:29.189559,1678710,1374,1848,-489,-1193,-784,-295,-57,165,-281
18417,9311,0,2023-03-01T18:51:29.194215,1678715,1374,1848,-489,-1193,-784,-295,-57,165,-281
18418,9312,0,2023-03-01T18:51:29.199398,1678721,1368,1845,-486,-1183,-784,-288,-57,165,-281
18419,9313,0,2023-03-01T18:51:29.205385,1678727,1368,1845,-486,-1183,-784,-288,-57,165,-281
18420,9314,0,2023-03-01T18:51:29.210240,1678732,1368,1845,-486,-1183,-784,-288,-57,165,-281
18421,9315,0,2023-03-01T18:51:29.215160,1678737,1368,1845,-486,-1183,-784,-288,-57,165,-281
18422,9316,0,2023-03-01T18:51:29.219980,1678741,1375,1849,-489,-1180,-797,-294,-57,165,-281
18423,9317,0,2023-03-01T18:51:29.225973,1678746,1375,1849,-489,-1180,-797,-294,-57,165,-281
18424,9318,0,2023-03-01T18:51:29.231152,1678752,1375,1849,-489,-1180,-797,-294,-57,165,-281
18425,9319,0,2023-03-01T18:51:29.236000,1678757,1375,1849,-489,-1180,-797,-294,-57,165,-281
18426,9320,0,2023-03-01T18:51:29.241245,1678763,1373,1847,-487,-1186,-792,-295,-57,165,-281
18427,9321,0,2023-03-01T18:51:29.247023,1678769,1373,1847,-487,-1186,-792,-295,-57,165,-281
18428,9322,0,2023-03-01T18:51:29.251917,1678773,1373,1847,-487,-1186,-792,-295,-57,165,-281
18429,9323,0,2023-03-01T18:51:29.257885,1678779,1373,1847,-487,-1186,-792,-295,-57,165,-281
18430,9324,0,2023-03-01T18:51:29.262700,1678784,1370,1845,-483,-1188,-789,-297,-72,170,-280
18431,9325,0,2023-03-01T18:51:29.268871,1678790,1370,1845,-483,-1188,-789,-297,-72,170,-280
18432,9326,0,2023-03-01T18:51:29.273761,1678795,1370,1845,-483,-1188,-789,-297,-72,170,-280
18433,9327,0,2023-03-01T18:51:29.278922,1678800,1370,1845,-483,-1188,-789,-297,-72,170,-280
18434,9328,0,2023-03-01T18:51:29.284157,1678806,1373,1853,-487,-1182,-790,-309,-72,170,-280
18435,9329,0,2023-03-01T18:51:29.289416,1678811,1373,1853,-487,-1182,-790,-309,-72,170,-280
18436,9330,0,2023-03-01T18:51:29.295110,1678817,1373,1853,-487,-1182,-790,-309,-72,170,-280
18437,9331,0,2023-03-01T18:51:29.300001,1678822,1368,1845,-485,-1183,-788,-300,-72,170,-280
18438,9332,0,2023-03-01T18:51:29.305885,1678827,1368,1845,-485,-1183,-788,-300,-72,170,-280
18439,9333,0,2023-03-01T18:51:29.310417,1678832,1368,1845,-485,-1183,-788,-300,-72,170,-280
18440,9334,0,2023-03-01T18:51:29.315266,1678836,1368,1845,-485,-1183,-788,-300,-72,170,-280
18441,9335,0,2023-03-01T18:51:29.320480,1678841,1369,1844,-490,-1183,-787,-303,-72,170,-280
18442,9336,0,2023-03-01T18:51:29.326354,1678848,1369,1844,-490,-1183,-787,-303,-72,170,-280
18443,9337,0,2023-03-01T18:51:29.331361,1678853,1369,1844,-490,-1183,-787,-303,-72,170,-280
18444,9338,0,2023-03-01T18:51:29.336862,1678859,1369,1844,-490,-1183,-787,-303,-72,170,-280
18445,9339,0,2023-03-01T18:51:29.341597,1678863,1374,1849,-491,-1176,-786,-300,-72,170,-280
18446,9340,0,2023-03-01T18:51:29.346957,1678868,1374,1849,-491,-1176,-786,-300,-72,170,-280
18447,9341,0,2023-03-01T18:51:29.352125,1678873,1374,1849,-491,-1176,-786,-300,-72,170,-280
18448,9342,0,2023-03-01T18:51:29.357335,1678878,1374,1849,-491,-1176,-786,-300,-72,170,-280
18449,9343,0,2023-03-01T18:51:29.362132,1678883,1369,1846,-486,-1175,-774,-303,-72,170,-280
18450,9344,0,2023-03-01T18:51:29.367958,1678889,1369,1846,-486,-1175,-774,-303,-72,170,-280
18451,9345,0,2023-03-01T18:51:29.372703,1678894,1369,1846,-486,-1175,-774,-303,-72,170,-280
18452,9346,0,2023-03-01T18:51:29.377607,1678899,1369,1846,-486,-1175,-774,-303,-72,170,-280
18453,9347,0,2023-03-01T18:51:29.382315,1678904,1375,1848,-486,-1170,-769,-307,-61,171,-281
18454,9348,0,2023-03-01T18:51:29.388015,1678909,1375,1848,-486,-1170,-769,-307,-61,171,-281
18455,9349,0,2023-03-01T18:51:29.393652,1678915,1375,1848,-486,-1170,-769,-307,-61,171,-281
18456,9350,0,2023-03-01T18:51:29.398335,1678920,1375,1848,-486,-1170,-769,-307,-61,171,-281
18457,9351,0,2023-03-01T18:51:29.403798,1678925,1374,1848,-486,-1169,-761,-301,-61,171,-281
18458,9352,0,2023-03-01T18:51:29.409301,1678930,1374,1848,-486,-1169,-761,-301,-61,171,-281
18459,9353,0,2023-03-01T18:51:29.414128,1678936,1374,1848,-486,-1169,-761,-301,-61,171,-281
18460,9354,0,2023-03-01T18:51:29.419266,1678941,1374,1848,-486,-1169,-761,-301,-61,171,-281
18461,9355,0,2023-03-01T18:51:29.424681,1678946,1374,1846,-486,-1169,-765,-306,-61,171,-281
18462,9356,0,2023-03-01T18:51:29.429876,1678951,1374,1846,-486,-1169,-765,-306,-61,171,-281
18463,9357,0,2023-03-01T18:51:29.435513,1678957,1374,1846,-486,-1169,-765,-306,-61,171,-281
18464,9358,0,2023-03-01T18:51:29.440298,1678962,1371,1850,-488,-1173,-771,-309,-61,171,-281
18465,9359,0,2023-03-01T18:51:29.445855,1678967,1371,1850,-488,-1173,-771,-309,-61,171,-281
18466,9360,0,2023-03-01T18:51:29.450919,1678972,1371,1850,-488,-1173,-771,-309,-61,171,-281
18467,9361,0,2023-03-01T18:51:29.455501,1678978,1371,1850,-488,-1173,-771,-309,-61,171,-281
18468,9362,0,2023-03-01T18:51:29.460127,1678982,1372,1841,-484,-1175,-767,-303,-61,171,-281
18469,9363,0,2023-03-01T18:51:29.466494,1678988,1372,1841,-484,-1175,-767,-303,-61,171,-281
18470,9364,0,2023-03-01T18:51:29.471347,1678993,1372,1841,-484,-1175,-767,-303,-61,171,-281
18471,9365,0,2023-03-01T18:51:29.475985,1678997,1372,1841,-484,-1175,-767,-303,-61,171,-281
18472,9366,0,2023-03-01T18:51:29.480915,1679002,1371,1844,-488,-1167,-765,-295,-61,171,-281
18473,9367,0,2023-03-01T18:51:29.486872,1679008,1371,1844,-488,-1167,-765,-295,-61,171,-281
18474,9368,0,2023-03-01T18:51:29.491891,1679013,1371,1844,-488,-1167,-765,-295,-61,171,-281
18475,9369,0,2023-03-01T18:51:29.497361,1679019,1371,1844,-488,-1167,-765,-295,-61,171,-281
18476,9370,0,2023-03-01T18:51:29.502032,1679024,1375,1849,-487,-1174,-771,-297,-62,170,-276
18477,9371,0,2023-03-01T18:51:29.508028,1679030,1375,1849,-487,-1174,-771,-297,-62,170,-276
18478,9372,0,2023-03-01T18:51:29.513064,1679034,1375,1849,-487,-1174,-771,-297,-62,170,-276
18479,9373,0,2023-03-01T18:51:29.518134,1679039,1375,1849,-487,-1174,-771,-297,-62,170,-276
18480,9374,0,2023-03-01T18:51:29.523028,1679044,1372,1844,-482,-1178,-771,-293,-62,170,-276
18481,9375,0,2023-03-01T18:51:29.529057,1679050,1372,1844,-482,-1178,-771,-293,-62,170,-276
18482,9376,0,2023-03-01T18:51:29.533980,1679055,1372,1844,-482,-1178,-771,-293,-62,170,-276
18483,9377,0,2023-03-01T18:51:29.538930,1679060,1372,1844,-482,-1178,-771,-293,-62,170,-276
18484,9378,0,2023-03-01T18:51:29.544060,1679066,1374,1850,-485,-1180,-775,-301,-62,170,-276
18485,9379,0,2023-03-01T18:51:29.549543,1679071,1374,1850,-485,-1180,-775,-301,-62,170,-276
18486,9380,0,2023-03-01T18:51:29.555477,1679077,1374,1850,-485,-1180,-775,-301,-62,170,-276
18487,9381,0,2023-03-01T18:51:29.560209,1679082,1373,1845,-492,-1171,-788,-301,-62,170,-276
18488,9382,0,2023-03-01T18:51:29.565604,1679087,1373,1845,-492,-1171,-788,-301,-62,170,-276
18489,9383,0,2023-03-01T18:51:29.570332,1679091,1373,1845,-492,-1171,-788,-301,-62,170,-276
18490,9384,0,2023-03-01T18:51:29.576237,1679097,1373,1845,-492,-1171,-788,-301,-62,170,-276
18491,9385,0,2023-03-01T18:51:29.581285,1679102,1371,1847,-487,-1172,-773,-305,-62,170,-276
18492,9386,0,2023-03-01T18:51:29.588139,1679110,1371,1847,-487,-1172,-773,-305,-62,170,-276
18493,9387,0,2023-03-01T18:51:29.592734,1679114,1371,1847,-487,-1172,-773,-305,-62,170,-276
18494,9388,0,2023-03-01T18:51:29.597594,1679119,1371,1847,-487,-1172,-773,-305,-62,170,-276
18495,9389,0,2023-03-01T18:51:29.602677,1679124,1374,1847,-489,-1171,-783,-300,-62,170,-276
18496,9390,0,2023-03-01T18:51:29.608780,1679130,1374,1847,-489,-1171,-783,-300,-62,170,-276
18497,9391,0,2023-03-01T18:51:29.614442,1679135,1374,1847,-489,-1171,-783,-300,-62,170,-276
18498,9392,0,2023-03-01T18:51:29.619139,1679140,1374,1847,-489,-1171,-783,-300,-62,170,-276
18499,9393,0,2023-03-01T18:51:29.624312,1679145,1374,1844,-487,-1168,-782,-301,-62,170,-276
18500,9394,0,2023-03-01T18:51:29.629807,1679151,1374,1844,-487,-1168,-782,-301,-62,170,-276
18501,9395,0,2023-03-01T18:51:29.635353,1679157,1374,1844,-487,-1168,-782,-301,-62,170,-276
18502,9396,0,2023-03-01T18:51:29.640229,1679162,1377,1846,-482,-1162,-778,-297,-62,170,-276
18503,9397,0,2023-03-01T18:51:29.647412,1679169,1377,1846,-482,-1162,-778,-297,-63,171,-285
18504,9398,0,2023-03-01T18:51:29.652002,1679173,1377,1846,-482,-1162,-778,-297,-63,171,-285
18505,9399,0,2023-03-01T18:51:29.657455,1679179,1377,1846,-482,-1162,-778,-297,-63,171,-285
18506,9400,0,2023-03-01T18:51:29.662145,1679183,1372,1849,-487,-1181,-777,-300,-63,171,-285
18507,9401,0,2023-03-01T18:51:29.667815,1679190,1372,1849,-487,-1181,-777,-300,-63,171,-285
18508,9402,0,2023-03-01T18:51:29.672454,1679194,1372,1849,-487,-1181,-777,-300,-63,171,-285
18509,9403,0,2023-03-01T18:51:29.677058,1679199,1372,1849,-487,-1181,-777,-300,-63,171,-285
18510,9404,0,2023-03-01T18:51:29.681856,1679203,1372,1845,-484,-1183,-779,-293,-63,171,-285
18511,9405,0,2023-03-01T18:51:29.687794,1679209,1372,1845,-484,-1183,-779,-293,-63,171,-285
18512,9406,0,2023-03-01T18:51:29.693208,1679214,1372,1845,-484,-1183,-779,-293,-63,171,-285
18513,9407,0,2023-03-01T18:51:29.698215,1679219,1372,1845,-484,-1183,-779,-293,-63,171,-285
18514,9408,0,2023-03-01T18:51:29.703996,1679225,1374,1846,-488,-1175,-775,-302,-63,171,-285
18515,9409,0,2023-03-01T18:51:29.709326,1679230,1374,1846,-488,-1175,-775,-302,-63,171,-285
18516,9410,0,2023-03-01T18:51:29.714256,1679236,1374,1846,-488,-1175,-775,-302,-63,171,-285
18517,9411,0,2023-03-01T18:51:29.719174,1679241,1374,1846,-488,-1175,-775,-302,-63,171,-285
18518,9412,0,2023-03-01T18:51:29.724919,1679247,1374,1843,-488,-1169,-767,-302,-63,171,-285
18519,9413,0,2023-03-01T18:51:29.730242,1679252,1374,1843,-488,-1169,-767,-302,-63,171,-285
18520,9414,0,2023-03-01T18:51:29.734856,1679256,1374,1843,-488,-1169,-767,-302,-63,171,-285
18521,9415,0,2023-03-01T18:51:29.740393,1679261,1373,1845,-487,-1178,-777,-300,-63,171,-285
18522,9416,0,2023-03-01T18:51:29.746414,1679267,1373,1845,-487,-1178,-777,-300,-63,171,-285
18523,9417,0,2023-03-01T18:51:29.751395,1679272,1373,1845,-487,-1178,-777,-300,-63,171,-285
18524,9418,0,2023-03-01T18:51:29.757385,1679279,1373,1845,-487,-1178,-777,-300,-63,171,-285
18525,9419,0,2023-03-01T18:51:29.762197,1679284,1373,1847,-485,-1190,-786,-294,-64,164,-284
18526,9420,0,2023-03-01T18:51:29.768413,1679290,1373,1847,-485,-1190,-786,-294,-64,164,-284
18527,9421,0,2023-03-01T18:51:29.773765,1679295,1373,1847,-485,-1190,-786,-294,-64,164,-284
18528,9422,0,2023-03-01T18:51:29.778542,1679300,1373,1847,-485,-1190,-786,-294,-64,164,-284
18529,9423,0,2023-03-01T18:51:29.784108,1679305,1373,1843,-494,-1181,-785,-303,-64,164,-284
18530,9424,0,2023-03-01T18:51:29.789416,1679310,1373,1843,-494,-1181,-785,-303,-64,164,-284
18531,9425,0,2023-03-01T18:51:29.794740,1679316,1373,1843,-494,-1181,-785,-303,-64,164,-284
18532,9426,0,2023-03-01T18:51:29.799954,1679322,1373,1843,-494,-1181,-785,-303,-64,164,-284
18533,9427,0,2023-03-01T18:51:29.805279,1679327,1378,1847,-490,-1184,-786,-304,-64,164,-284
18534,9428,0,2023-03-01T18:51:29.810648,1679332,1378,1847,-490,-1184,-786,-304,-64,164,-284
18535,9429,0,2023-03-01T18:51:29.815450,1679337,1378,1847,-490,-1184,-786,-304,-64,164,-284
18536,9430,0,2023-03-01T18:51:29.820207,1679341,1374,1848,-490,-1187,-784,-296,-64,164,-284
18537,9431,0,2023-03-01T18:51:29.826904,1679348,1374,1848,-490,-1187,-784,-296,-64,164,-284
18538,9432,0,2023-03-01T18:51:29.831867,1679353,1374,1848,-490,-1187,-784,-296,-64,164,-284
18539,9433,0,2023-03-01T18:51:29.836763,1679358,1374,1848,-490,-1187,-784,-296,-64,164,-284
18540,9434,0,2023-03-01T18:51:29.841692,1679364,1369,1844,-484,-1174,-782,-299,-64,164,-284
18541,9435,0,2023-03-01T18:51:29.847571,1679369,1369,1844,-484,-1174,-782,-299,-64,164,-284
18542,9436,0,2023-03-01T18:51:29.852555,1679374,1369,1844,-484,-1174,-782,-299,-64,164,-284
18543,9437,0,2023-03-01T18:51:29.858004,1679379,1369,1844,-484,-1174,-782,-299,-64,164,-284
18544,9438,0,2023-03-01T18:51:29.863084,1679384,1376,1848,-496,-1181,-784,-300,-64,164,-284
18545,9439,0,2023-03-01T18:51:29.869328,1679391,1376,1848,-496,-1181,-784,-300,-64,164,-284
18546,9440,0,2023-03-01T18:51:29.874689,1679396,1376,1848,-496,-1181,-784,-300,-64,164,-284
18547,9441,0,2023-03-01T18:51:29.879451,1679401,1376,1848,-496,-1181,-784,-300,-64,164,-284
18548,9442,0,2023-03-01T18:51:29.884922,1679407,1372,1847,-489,-1181,-782,-300,-64,164,-284
18549,9443,0,2023-03-01T18:51:29.890879,1679412,1372,1847,-489,-1181,-782,-300,-64,164,-284
18550,9444,0,2023-03-01T18:51:29.897056,1679419,1372,1847,-489,-1181,-782,-300,-64,164,-284
18551,9445,0,2023-03-01T18:51:29.901682,1679423,1376,1842,-482,-1181,-785,-302,-62,168,-286
18552,9446,0,2023-03-01T18:51:29.907825,1679429,1376,1842,-482,-1181,-785,-302,-62,168,-286
18553,9447,0,2023-03-01T18:51:29.913511,1679434,1376,1842,-482,-1181,-785,-302,-62,168,-286
18554,9448,0,2023-03-01T18:51:29.918296,1679439,1376,1842,-482,-1181,-785,-302,-62,168,-286
18555,9449,0,2023-03-01T18:51:29.923922,1679446,1375,1847,-487,-1185,-789,-304,-62,168,-286
18556,9450,0,2023-03-01T18:51:29.929355,1679451,1375,1847,-487,-1185,-789,-304,-62,168,-286
18557,9451,0,2023-03-01T18:51:29.934080,1679456,1375,1847,-487,-1185,-789,-304,-62,168,-286
18558,9452,0,2023-03-01T18:51:29.939159,1679460,1375,1847,-487,-1185,-789,-304,-62,168,-286
18559,9453,0,2023-03-01T18:51:29.944742,1679466,1372,1845,-481,-1184,-793,-303,-62,168,-286
18560,9454,0,2023-03-01T18:51:29.950354,1679471,1372,1845,-481,-1184,-793,-303,-62,168,-286
18561,9455,0,2023-03-01T18:51:29.955144,1679476,1372,1845,-481,-1184,-793,-303,-62,168,-286
18562,9456,0,2023-03-01T18:51:29.959780,1679481,1372,1845,-481,-1184,-793,-303,-62,168,-286
18563,9457,0,2023-03-01T18:51:29.964872,1679486,1374,1848,-490,-1190,-791,-298,-62,168,-286
18564,9458,0,2023-03-01T18:51:29.971549,1679492,1374,1848,-490,-1190,-791,-298,-62,168,-286
18565,9459,0,2023-03-01T18:51:29.978069,1679500,1374,1848,-490,-1190,-791,-298,-62,168,-286
18566,9460,0,2023-03-01T18:51:29.983064,1679504,1373,1846,-493,-1190,-790,-298,-62,168,-286
18567,9461,0,2023-03-01T18:51:29.988942,1679511,1373,1846,-493,-1190,-790,-298,-62,168,-286
18568,9462,0,2023-03-01T18:51:29.994272,1679515,1373,1846,-493,-1190,-790,-298,-62,168,-286
18569,9463,0,2023-03-01T18:51:29.999238,1679520,1373,1846,-493,-1190,-790,-298,-62,168,-286
18570,9464,0,2023-03-01T18:51:30.005416,1679526,1371,1845,-484,-1190,-793,-303,-62,168,-286
18571,9465,0,2023-03-01T18:51:30.011000,1679533,1371,1845,-484,-1190,-793,-303,-62,168,-286
18572,9466,0,2023-03-01T18:51:30.016059,1679538,1371,1845,-484,-1190,-793,-303,-62,168,-286
18573,9467,0,2023-03-01T18:51:30.020862,1679542,1374,1846,-489,-1188,-780,-304,-66,170,-286
18574,9468,0,2023-03-01T18:51:30.026571,1679548,1374,1846,-489,-1188,-780,-304,-66,170,-286
18575,9469,0,2023-03-01T18:51:30.031524,1679553,1374,1846,-489,-1188,-780,-304,-66,170,-286
18576,9470,0,2023-03-01T18:51:30.037475,1679559,1374,1846,-489,-1188,-780,-304,-66,170,-286
18577,9471,0,2023-03-01T18:51:30.042378,1679563,1374,1846,-488,-1180,-782,-300,-66,170,-286
18578,9472,0,2023-03-01T18:51:30.048759,1679570,1374,1846,-488,-1180,-782,-300,-66,170,-286
18579,9473,0,2023-03-01T18:51:30.053879,1679575,1374,1846,-488,-1180,-782,-300,-66,170,-286
18580,9474,0,2023-03-01T18:51:30.059309,1679581,1374,1846,-488,-1180,-782,-300,-66,170,-286
18581,9475,0,2023-03-01T18:51:30.064864,1679586,1376,1845,-485,-1179,-787,-299,-66,170,-286
18582,9476,0,2023-03-01T18:51:30.070405,1679592,1376,1845,-485,-1179,-787,-299,-66,170,-286
18583,9477,0,2023-03-01T18:51:30.076235,1679597,1376,1845,-485,-1179,-787,-299,-66,170,-286
18584,9478,0,2023-03-01T18:51:30.081769,1679602,1374,1846,-490,-1187,-791,-295,-66,170,-286
18585,9479,0,2023-03-01T18:51:30.089417,1679610,1374,1846,-490,-1187,-791,-295,-66,170,-286
18586,9480,0,2023-03-01T18:51:30.095416,1679617,1374,1846,-490,-1187,-791,-295,-66,170,-286
18587,9481,0,2023-03-01T18:51:30.100375,1679622,1371,1841,-494,-1187,-788,-298,-66,170,-286
18588,9482,0,2023-03-01T18:51:30.106044,1679628,1371,1841,-494,-1187,-788,-298,-66,170,-286
18589,9483,0,2023-03-01T18:51:30.110998,1679632,1371,1841,-494,-1187,-788,-298,-66,170,-286
18590,9484,0,2023-03-01T18:51:30.117330,1679638,1371,1841,-494,-1187,-788,-298,-66,170,-286
18591,9485,0,2023-03-01T18:51:30.122142,1679643,1372,1847,-485,-1193,-785,-306,-66,170,-286
18592,9486,0,2023-03-01T18:51:30.128338,1679649,1372,1847,-485,-1193,-785,-306,-66,170,-286
18593,9487,0,2023-03-01T18:51:30.133206,1679654,1372,1847,-485,-1193,-785,-306,-66,170,-286
18594,9488,0,2023-03-01T18:51:30.138097,1679660,1372,1847,-485,-1193,-785,-306,-66,170,-286
18595,9489,0,2023-03-01T18:51:30.143320,1679665,1374,1849,-493,-1184,-789,-302,-66,170,-286
18596,9490,0,2023-03-01T18:51:30.149897,1679671,1374,1849,-493,-1184,-789,-302,-66,170,-286
18597,9491,0,2023-03-01T18:51:30.155299,1679676,1374,1849,-493,-1184,-789,-302,-66,170,-286
18598,9492,0,2023-03-01T18:51:30.160040,1679681,1374,1849,-493,-1184,-789,-302,-66,170,-286
18599,9493,0,2023-03-01T18:51:30.165416,1679686,1370,1842,-485,-1186,-795,-302,-67,167,-279
18600,9494,0,2023-03-01T18:51:30.170893,1679692,1370,1842,-485,-1186,-795,-302,-67,167,-279
18601,9495,0,2023-03-01T18:51:30.176213,1679697,1370,1842,-485,-1186,-795,-302,-67,167,-279
18602,9496,0,2023-03-01T18:51:30.181308,1679703,1374,1844,-489,-1186,-804,-298,-67,167,-279
18603,9497,0,2023-03-01T18:51:30.187303,1679709,1374,1844,-489,-1186,-804,-298,-67,167,-279
18604,9498,0,2023-03-01T18:51:30.192442,1679714,1374,1844,-489,-1186,-804,-298,-67,167,-279
18605,9499,0,2023-03-01T18:51:30.197412,1679719,1374,1844,-489,-1186,-804,-298,-67,167,-279
18606,9500,0,2023-03-01T18:51:30.202165,1679724,1375,1846,-490,-1182,-793,-307,-67,167,-279
18607,9501,0,2023-03-01T18:51:30.208534,1679730,1375,1846,-490,-1182,-793,-307,-67,167,-279
18608,9502,0,2023-03-01T18:51:30.213353,1679734,1375,1846,-490,-1182,-793,-307,-67,167,-279
18609,9503,0,2023-03-01T18:51:30.218403,1679739,1375,1846,-490,-1182,-793,-307,-67,167,-279
18610,9504,0,2023-03-01T18:51:30.223723,1679746,1373,1844,-493,-1183,-792,-299,-67,167,-279
18611,9505,0,2023-03-01T18:51:30.229358,1679751,1373,1844,-493,-1183,-792,-299,-67,167,-279
18612,9506,0,2023-03-01T18:51:30.234740,1679756,1373,1844,-493,-1183,-792,-299,-67,167,-279
18613,9507,0,2023-03-01T18:51:30.239574,1679761,1373,1844,-493,-1183,-792,-299,-67,167,-279
18614,9508,0,2023-03-01T18:51:30.244880,1679766,1373,1848,-485,-1191,-789,-304,-67,167,-279
18615,9509,0,2023-03-01T18:51:30.250572,1679772,1373,1848,-485,-1191,-789,-304,-67,167,-279
18616,9510,0,2023-03-01T18:51:30.255540,1679776,1373,1848,-485,-1191,-789,-304,-67,167,-279
18617,9511,0,2023-03-01T18:51:30.260218,1679781,1373,1848,-485,-1191,-789,-304,-67,167,-279
18618,9512,0,2023-03-01T18:51:30.265765,1679788,1377,1844,-486,-1196,-789,-297,-67,167,-279
18619,9513,0,2023-03-01T18:51:30.271257,1679793,1377,1844,-486,-1196,-789,-297,-67,167,-279
18620,9514,0,2023-03-01T18:51:30.276436,1679798,1377,1844,-486,-1196,-789,-297,-67,167,-279
18621,9515,0,2023-03-01T18:51:30.281038,1679803,1376,1845,-485,-1188,-794,-295,-62,168,-278
18622,9516,0,2023-03-01T18:51:30.286710,1679808,1376,1845,-485,-1188,-794,-295,-62,168,-278
18623,9517,0,2023-03-01T18:51:30.291931,1679813,1376,1845,-485,-1188,-794,-295,-62,168,-278
18624,9518,0,2023-03-01T18:51:30.296583,1679818,1376,1845,-485,-1188,-794,-295,-62,168,-278
18625,9519,0,2023-03-01T18:51:30.301838,1679822,1374,1842,-486,-1176,-790,-296,-62,168,-278
18626,9520,0,2023-03-01T18:51:30.309126,1679831,1374,1842,-486,-1176,-790,-296,-62,168,-278
18627,9521,0,2023-03-01T18:51:30.314092,1679836,1374,1842,-486,-1176,-790,-296,-62,168,-278
18628,9522,0,2023-03-01T18:51:30.319087,1679841,1374,1842,-486,-1176,-790,-296,-62,168,-278
18629,9523,0,2023-03-01T18:51:30.324708,1679846,1374,1846,-489,-1175,-786,-295,-62,168,-278
18630,9524,0,2023-03-01T18:51:30.329878,1679851,1374,1846,-489,-1175,-786,-295,-62,168,-278
18631,9525,0,2023-03-01T18:51:30.334894,1679856,1374,1846,-489,-1175,-786,-295,-62,168,-278
18632,9526,0,2023-03-01T18:51:30.339947,1679861,1374,1846,-489,-1175,-786,-295,-62,168,-278
18633,9527,0,2023-03-01T18:51:30.345458,1679866,1374,1846,-489,-1175,-786,-295,-62,168,-278
18634,9528,0,2023-03-01T18:51:30.350084,1679872,1374,1846,-489,-1175,-786,-295,-62,168,-278
18635,9529,0,2023-03-01T18:51:30.354666,1679877,1374,1846,-489,-1175,-786,-295,-62,168,-278
18636,9530,0,2023-03-01T18:51:30.359164,1679881,1374,1846,-489,-1175,-786,-295,-62,168,-278
18637,9531,0,2023-03-01T18:51:30.364675,1679886,1376,1842,-491,-1175,-781,-300,-62,168,-278
18638,9532,0,2023-03-01T18:51:30.370556,1679892,1376,1842,-491,-1175,-781,-300,-62,168,-278
18639,9533,0,2023-03-01T18:51:30.375505,1679897,1376,1842,-491,-1175,-781,-300,-62,168,-278
18640,9534,0,2023-03-01T18:51:30.380063,1679901,1376,1842,-491,-1175,-781,-300,-62,168,-278
18641,9535,0,2023-03-01T18:51:30.385333,1679907,1377,1844,-494,-1182,-782,-302,-62,168,-278
18642,9536,0,2023-03-01T18:51:30.390726,1679912,1377,1844,-494,-1182,-782,-302,-62,168,-278
18643,9537,0,2023-03-01T18:51:30.396906,1679918,1377,1844,-494,-1182,-782,-302,-62,168,-278
18644,9538,0,2023-03-01T18:51:30.401866,1679924,1376,1842,-496,-1175,-775,-307,-63,167,-281
18645,9539,0,2023-03-01T18:51:30.408010,1679930,1376,1842,-496,-1175,-775,-307,-63,167,-281
18646,9540,0,2023-03-01T18:51:30.413300,1679934,1376,1842,-496,-1175,-775,-307,-63,167,-281
18647,9541,0,2023-03-01T18:51:30.419406,1679941,1376,1842,-496,-1175,-775,-307,-63,167,-281
18648,9542,0,2023-03-01T18:51:30.424797,1679946,1374,1844,-487,-1180,-780,-308,-63,167,-281
18649,9543,0,2023-03-01T18:51:30.430632,1679952,1374,1844,-487,-1180,-780,-308,-63,167,-281
18650,9544,0,2023-03-01T18:51:30.435519,1679956,1374,1844,-487,-1180,-780,-308,-63,167,-281
18651,9545,0,2023-03-01T18:51:30.439950,1679962,1374,1844,-487,-1180,-780,-308,-63,167,-281
18652,9546,0,2023-03-01T18:51:30.445444,1679967,1376,1844,-487,-1184,-774,-305,-63,167,-281
18653,9547,0,2023-03-01T18:51:30.451529,1679973,1376,1844,-487,-1184,-774,-305,-63,167,-281
18654,9548,0,2023-03-01T18:51:30.456968,1679978,1376,1844,-487,-1184,-774,-305,-63,167,-281
18655,9549,0,2023-03-01T18:51:30.461837,1679983,1377,1843,-488,-1184,-778,-304,-63,167,-281
18656,9550,0,2023-03-01T18:51:30.467613,1679989,1377,1843,-488,-1184,-778,-304,-63,167,-281
18657,9551,0,2023-03-01T18:51:30.472451,1679993,1377,1843,-488,-1184,-778,-304,-63,167,-281
18658,9552,0,2023-03-01T18:51:30.477649,1679998,1377,1843,-488,-1184,-778,-304,-63,167,-281
18659,9553,0,2023-03-01T18:51:30.482551,1680004,1375,1844,-488,-1182,-777,-304,-63,167,-281
18660,9554,0,2023-03-01T18:51:30.489507,1680011,1375,1844,-488,-1182,-777,-304,-63,167,-281
18661,9555,0,2023-03-01T18:51:30.495079,1680017,1375,1844,-488,-1182,-777,-304,-63,167,-281
18662,9556,0,2023-03-01T18:51:30.500183,1680022,1375,1844,-488,-1182,-777,-304,-63,167,-281
18663,9557,0,2023-03-01T18:51:30.505543,1680027,1374,1844,-491,-1176,-760,-303,-63,167,-281
18664,9558,0,2023-03-01T18:51:30.511108,1680032,1374,1844,-491,-1176,-760,-303,-63,167,-281
18665,9559,0,2023-03-01T18:51:30.516781,1680038,1374,1844,-491,-1176,-760,-303,-63,167,-281
18666,9560,0,2023-03-01T18:51:30.522112,1680044,1372,1848,-488,-1160,-750,-302,-63,167,-281
18667,9561,0,2023-03-01T18:51:30.528582,1680050,1372,1848,-488,-1160,-750,-302,-63,167,-281
18668,9562,0,2023-03-01T18:51:30.533472,1680055,1372,1848,-488,-1160,-750,-302,-63,167,-281
18669,9563,0,2023-03-01T18:51:30.538481,1680060,1372,1848,-488,-1160,-750,-302,-63,167,-281
18670,9564,0,2023-03-01T18:51:30.543773,1680065,1374,1849,-487,-1159,-756,-301,-68,162,-284
18671,9565,0,2023-03-01T18:51:30.549284,1680070,1374,1849,-487,-1159,-756,-301,-68,162,-284
18672,9566,0,2023-03-01T18:51:30.554036,1680075,1374,1849,-487,-1159,-756,-301,-68,162,-284
18673,9567,0,2023-03-01T18:51:30.559808,1680081,1374,1849,-487,-1159,-756,-301,-68,162,-284
18674,9568,0,2023-03-01T18:51:30.565360,1680087,1374,1842,-493,-1157,-774,-293,-68,162,-284
18675,9569,0,2023-03-01T18:51:30.571196,1680093,1374,1842,-493,-1157,-774,-293,-68,162,-284
18676,9570,0,2023-03-01T18:51:30.577337,1680099,1374,1842,-493,-1157,-774,-293,-68,162,-284
18677,9571,0,2023-03-01T18:51:30.582266,1680104,1373,1843,-488,-1167,-762,-298,-68,162,-284
18678,9572,0,2023-03-01T18:51:30.588582,1680110,1373,1843,-488,-1167,-762,-298,-68,162,-284
18679,9573,0,2023-03-01T18:51:30.593631,1680115,1373,1843,-488,-1167,-762,-298,-68,162,-284
18680,9574,0,2023-03-01T18:51:30.598870,1680120,1373,1843,-488,-1167,-762,-298,-68,162,-284
18681,9575,0,2023-03-01T18:51:30.604077,1680125,1379,1845,-491,-1168,-762,-299,-68,162,-284
18682,9576,0,2023-03-01T18:51:30.609478,1680131,1379,1845,-491,-1168,-762,-299,-68,162,-284
18683,9577,0,2023-03-01T18:51:30.614260,1680136,1379,1845,-491,-1168,-762,-299,-68,162,-284
18684,9578,0,2023-03-01T18:51:30.619955,1680141,1379,1845,-491,-1168,-762,-299,-68,162,-284
18685,9579,0,2023-03-01T18:51:30.625878,1680147,1375,1842,-483,-1167,-764,-310,-68,162,-284
18686,9580,0,2023-03-01T18:51:30.631383,1680153,1375,1842,-483,-1167,-764,-310,-68,162,-284
18687,9581,0,2023-03-01T18:51:30.637133,1680158,1375,1842,-483,-1167,-764,-310,-68,162,-284
18688,9582,0,2023-03-01T18:51:30.641997,1680163,1371,1844,-491,-1169,-770,-308,-68,162,-284
18689,9583,0,2023-03-01T18:51:30.647179,1680168,1371,1844,-491,-1169,-770,-308,-68,162,-284
18690,9584,0,2023-03-01T18:51:30.652358,1680174,1371,1844,-491,-1169,-770,-308,-68,162,-284
18691,9585,0,2023-03-01T18:51:30.657869,1680180,1371,1844,-491,-1169,-770,-308,-68,162,-284
18692,9586,0,2023-03-01T18:51:30.662693,1680184,1377,1845,-490,-1173,-775,-301,-67,167,-283
18693,9587,0,2023-03-01T18:51:30.670499,1680192,1377,1845,-490,-1173,-775,-301,-67,167,-283
18694,9588,0,2023-03-01T18:51:30.676173,1680198,1377,1845,-490,-1173,-775,-301,-67,167,-283
18695,9589,0,2023-03-01T18:51:30.681005,1680202,1377,1845,-490,-1173,-775,-301,-67,167,-283
18696,9590,0,2023-03-01T18:51:30.686897,1680208,1378,1842,-485,-1177,-768,-295,-67,167,-283
18697,9591,0,2023-03-01T18:51:30.692634,1680214,1378,1842,-485,-1177,-768,-295,-67,167,-283
18698,9592,0,2023-03-01T18:51:30.697758,1680219,1378,1842,-485,-1177,-768,-295,-67,167,-283
18699,9593,0,2023-03-01T18:51:30.702776,1680224,1376,1847,-487,-1183,-781,-299,-67,167,-283
18700,9594,0,2023-03-01T18:51:30.708867,1680230,1376,1847,-487,-1183,-781,-299,-67,167,-283
18701,9595,0,2023-03-01T18:51:30.714518,1680236,1376,1847,-487,-1183,-781,-299,-67,167,-283
18702,9596,0,2023-03-01T18:51:30.719195,1680241,1376,1847,-487,-1183,-781,-299,-67,167,-283
18703,9597,0,2023-03-01T18:51:30.724624,1680246,1374,1841,-491,-1182,-787,-294,-67,167,-283
18704,9598,0,2023-03-01T18:51:30.730026,1680251,1374,1841,-491,-1182,-787,-294,-67,167,-283
18705,9599,0,2023-03-01T18:51:30.735099,1680257,1374,1841,-491,-1182,-787,-294,-67,167,-283
18706,9600,0,2023-03-01T18:51:30.740493,1680262,1374,1841,-491,-1182,-787,-294,-67,167,-283
18707,9601,0,2023-03-01T18:51:30.746297,1680268,1373,1843,-489,-1184,-782,-304,-67,167,-283
18708,9602,0,2023-03-01T18:51:30.752392,1680274,1373,1843,-489,-1184,-782,-304,-67,167,-283
18709,9603,0,2023-03-01T18:51:30.758038,1680279,1373,1843,-489,-1184,-782,-304,-67,167,-283
18710,9604,0,2023-03-01T18:51:30.762981,1680284,1376,1844,-489,-1184,-773,-308,-67,167,-283
18711,9605,0,2023-03-01T18:51:30.769092,1680290,1376,1844,-489,-1184,-773,-308,-67,167,-283
18712,9606,0,2023-03-01T18:51:30.774039,1680295,1376,1844,-489,-1184,-773,-308,-67,167,-283
18713,9607,0,2023-03-01T18:51:30.779454,1680301,1376,1844,-489,-1184,-773,-308,-67,167,-283
18714,9608,0,2023-03-01T18:51:30.784922,1680307,1375,1841,-484,-1173,-767,-307,-67,167,-283
18715,9609,0,2023-03-01T18:51:30.790498,1680312,1375,1841,-484,-1173,-767,-307,-67,167,-283
18716,9610,0,2023-03-01T18:51:30.796073,1680318,1375,1841,-484,-1173,-767,-307,-67,167,-283
18717,9611,0,2023-03-01T18:51:30.800925,1680322,1375,1841,-484,-1173,-767,-307,-67,167,-283
18718,9612,0,2023-03-01T18:51:30.806045,1680327,1378,1848,-487,-1168,-776,-295,-64,168,-288
18719,9613,0,2023-03-01T18:51:30.811970,1680333,1378,1848,-487,-1168,-776,-295,-64,168,-288
18720,9614,0,2023-03-01T18:51:30.817296,1680338,1378,1848,-487,-1168,-776,-295,-64,168,-288
18721,9615,0,2023-03-01T18:51:30.821983,1680344,1376,1847,-487,-1170,-770,-300,-64,168,-288
18722,9616,0,2023-03-01T18:51:30.828540,1680350,1376,1847,-487,-1170,-770,-300,-64,168,-288
18723,9617,0,2023-03-01T18:51:30.833527,1680355,1376,1847,-487,-1170,-770,-300,-64,168,-288
18724,9618,0,2023-03-01T18:51:30.838564,1680360,1376,1847,-487,-1170,-770,-300,-64,168,-288
18725,9619,0,2023-03-01T18:51:30.843859,1680365,1375,1844,-486,-1164,-765,-297,-64,168,-288
18726,9620,0,2023-03-01T18:51:30.849568,1680371,1375,1844,-486,-1164,-765,-297,-64,168,-288
18727,9621,0,2023-03-01T18:51:30.855454,1680375,1375,1844,-486,-1164,-765,-297,-64,168,-288
18728,9622,0,2023-03-01T18:51:30.861010,1680382,1375,1844,-486,-1164,-765,-297,-64,168,-288
18729,9623,0,2023-03-01T18:51:30.867072,1680389,1381,1846,-490,-1179,-778,-296,-64,168,-288
18730,9624,0,2023-03-01T18:51:30.872727,1680394,1381,1846,-490,-1179,-778,-296,-64,168,-288
18731,9625,0,2023-03-01T18:51:30.877634,1680399,1381,1846,-490,-1179,-778,-296,-64,168,-288
18732,9626,0,2023-03-01T18:51:30.882380,1680404,1378,1841,-495,-1182,-779,-291,-64,168,-288
18733,9627,0,2023-03-01T18:51:30.888308,1680410,1378,1841,-495,-1182,-779,-291,-64,168,-288
18734,9628,0,2023-03-01T18:51:30.893601,1680415,1378,1841,-495,-1182,-779,-291,-64,168,-288
18735,9629,0,2023-03-01T18:51:30.899264,1680420,1378,1841,-495,-1182,-779,-291,-64,168,-288
18736,9630,0,2023-03-01T18:51:30.904333,1680425,1375,1842,-494,-1182,-776,-297,-64,168,-288
18737,9631,0,2023-03-01T18:51:30.910172,1680432,1375,1842,-494,-1182,-776,-297,-64,168,-288
18738,9632,0,2023-03-01T18:51:30.915705,1680437,1375,1842,-494,-1182,-776,-297,-64,168,-288
18739,9633,0,2023-03-01T18:51:30.920403,1680442,1375,1842,-494,-1182,-776,-297,-64,168,-288
18740,9634,0,2023-03-01T18:51:30.926161,1680448,1377,1842,-483,-1179,-787,-295,-68,168,-286
18741,9635,0,2023-03-01T18:51:30.932351,1680454,1377,1842,-483,-1179,-787,-295,-68,168,-286
18742,9636,0,2023-03-01T18:51:30.937342,1680458,1377,1842,-483,-1179,-787,-295,-68,168,-286
18743,9637,0,2023-03-01T18:51:30.942188,1680463,1375,1842,-485,-1192,-788,-301,-68,168,-286
18744,9638,0,2023-03-01T18:51:30.948502,1680470,1375,1842,-485,-1192,-788,-301,-68,168,-286
18745,9639,0,2023-03-01T18:51:30.954397,1680476,1375,1842,-485,-1192,-788,-301,-68,168,-286
18746,9640,0,2023-03-01T18:51:30.959288,1680481,1375,1842,-485,-1192,-788,-301,-68,168,-286
18747,9641,0,2023-03-01T18:51:30.964111,1680486,1378,1847,-488,-1190,-790,-305,-68,168,-286
18748,9642,0,2023-03-01T18:51:30.970386,1680492,1378,1847,-488,-1190,-790,-305,-68,168,-286
18749,9643,0,2023-03-01T18:51:30.975664,1680497,1378,1847,-488,-1190,-790,-305,-68,168,-286
18750,9644,0,2023-03-01T18:51:30.980399,1680502,1378,1847,-488,-1190,-790,-305,-68,168,-286
18751,9645,0,2023-03-01T18:51:30.985758,1680507,1376,1841,-489,-1190,-791,-294,-68,168,-286
18752,9646,0,2023-03-01T18:51:30.991412,1680513,1376,1841,-489,-1190,-791,-294,-68,168,-286
18753,9647,0,2023-03-01T18:51:30.996153,1680518,1376,1841,-489,-1190,-791,-294,-68,168,-286
18754,9648,0,2023-03-01T18:51:31.000892,1680523,1376,1841,-489,-1190,-791,-294,-68,168,-286
18755,9649,0,2023-03-01T18:51:31.005875,1680527,1374,1841,-489,-1185,-789,-299,-68,168,-286
18756,9650,0,2023-03-01T18:51:31.011615,1680533,1374,1841,-489,-1185,-789,-299,-68,168,-286
18757,9651,0,2023-03-01T18:51:31.017285,1680538,1374,1841,-489,-1185,-789,-299,-68,168,-286
18758,9652,0,2023-03-01T18:51:31.021972,1680543,1380,1846,-489,-1183,-790,-295,-68,168,-286
18759,9653,0,2023-03-01T18:51:31.028060,1680549,1380,1846,-489,-1183,-790,-295,-68,168,-286
18760,9654,0,2023-03-01T18:51:31.033030,1680555,1380,1846,-489,-1183,-790,-295,-68,168,-286
18761,9655,0,2023-03-01T18:51:31.038092,1680560,1380,1846,-489,-1183,-790,-295,-68,168,-286
18762,9656,0,2023-03-01T18:51:31.043185,1680565,1377,1843,-491,-1186,-791,-299,-68,168,-286
18763,9657,0,2023-03-01T18:51:31.048857,1680571,1377,1843,-491,-1186,-791,-299,-68,168,-286
18764,9658,0,2023-03-01T18:51:31.053509,1680575,1377,1843,-491,-1186,-791,-299,-68,168,-286
18765,9659,0,2023-03-01T18:51:31.057865,1680579,1377,1843,-491,-1186,-791,-299,-68,168,-286
18766,9660,0,2023-03-01T18:51:31.062318,1680584,1380,1847,-489,-1202,-797,-300,-58,166,-282
18767,9661,0,2023-03-01T18:51:31.068156,1680589,1380,1847,-489,-1202,-797,-300,-58,166,-282
18768,9662,0,2023-03-01T18:51:31.072914,1680594,1380,1847,-489,-1202,-797,-300,-58,166,-282
18769,9663,0,2023-03-01T18:51:31.079726,1680601,1380,1847,-489,-1202,-797,-300,-58,166,-282
18770,9664,0,2023-03-01T18:51:31.085530,1680607,1378,1844,-489,-1185,-796,-292,-58,166,-282
18771,9665,0,2023-03-01T18:51:31.091260,1680612,1378,1844,-489,-1185,-796,-292,-58,166,-282
18772,9666,0,2023-03-01T18:51:31.096697,1680618,1378,1844,-489,-1185,-796,-292,-58,166,-282
18773,9667,0,2023-03-01T18:51:31.101698,1680623,1374,1843,-489,-1185,-801,-299,-58,166,-282
18774,9668,0,2023-03-01T18:51:31.107506,1680629,1374,1843,-489,-1185,-801,-299,-58,166,-282
18775,9669,0,2023-03-01T18:51:31.112592,1680634,1374,1843,-489,-1185,-801,-299,-58,166,-282
18776,9670,0,2023-03-01T18:51:31.118339,1680640,1374,1843,-489,-1185,-801,-299,-58,166,-282
18777,9671,0,2023-03-01T18:51:31.123258,1680645,1375,1850,-487,-1193,-794,-297,-58,166,-282
18778,9672,0,2023-03-01T18:51:31.129648,1680651,1375,1850,-487,-1193,-794,-297,-58,166,-282
18779,9673,0,2023-03-01T18:51:31.134453,1680656,1375,1850,-487,-1193,-794,-297,-58,166,-282
18780,9674,0,2023-03-01T18:51:31.139454,1680661,1375,1850,-487,-1193,-794,-297,-58,166,-282
18781,9675,0,2023-03-01T18:51:31.145090,1680666,1376,1842,-492,-1186,-790,-291,-58,166,-282
18782,9676,0,2023-03-01T18:51:31.150858,1680672,1376,1842,-492,-1186,-790,-291,-58,166,-282
18783,9677,0,2023-03-01T18:51:31.155935,1680677,1376,1842,-492,-1186,-790,-291,-58,166,-282
18784,9678,0,2023-03-01T18:51:31.161138,1680683,1376,1842,-492,-1186,-790,-291,-58,166,-282
18785,9679,0,2023-03-01T18:51:31.166879,1680688,1379,1842,-492,-1186,-803,-296,-58,166,-282
18786,9680,0,2023-03-01T18:51:31.172740,1680694,1379,1842,-492,-1186,-803,-296,-58,166,-282
18787,9681,0,2023-03-01T18:51:31.178398,1680700,1379,1842,-492,-1186,-803,-296,-58,166,-282
18788,9682,0,2023-03-01T18:51:31.183334,1680704,1379,1848,-489,-1196,-798,-302,-61,175,-285
18789,9683,0,2023-03-01T18:51:31.189632,1680711,1379,1848,-489,-1196,-798,-302,-61,175,-285
18790,9684,0,2023-03-01T18:51:31.195492,1680716,1379,1848,-489,-1196,-798,-302,-61,175,-285
18791,9685,0,2023-03-01T18:51:31.200247,1680721,1379,1848,-489,-1196,-798,-302,-61,175,-285
18792,9686,0,2023-03-01T18:51:31.205809,1680728,1375,1843,-491,-1199,-806,-297,-61,175,-285
18793,9687,0,2023-03-01T18:51:31.211555,1680733,1375,1843,-491,-1199,-806,-297,-61,175,-285
18794,9688,0,2023-03-01T18:51:31.216046,1680738,1375,1843,-491,-1199,-806,-297,-61,175,-285
18795,9689,0,2023-03-01T18:51:31.221507,1680743,1375,1843,-491,-1199,-806,-297,-61,175,-285
18796,9690,0,2023-03-01T18:51:31.227339,1680748,1375,1843,-491,-1199,-806,-297,-61,175,-285
18797,9691,0,2023-03-01T18:51:31.232373,1680754,1375,1843,-491,-1199,-806,-297,-61,175,-285
18798,9692,0,2023-03-01T18:51:31.237040,1680758,1375,1843,-491,-1199,-806,-297,-61,175,-285
18799,9693,0,2023-03-01T18:51:31.241861,1680763,1379,1842,-484,-1199,-808,-302,-61,175,-285
18800,9694,0,2023-03-01T18:51:31.248115,1680770,1379,1842,-484,-1199,-808,-302,-61,175,-285
18801,9695,0,2023-03-01T18:51:31.253356,1680775,1379,1842,-484,-1199,-808,-302,-61,175,-285
18802,9696,0,2023-03-01T18:51:31.258921,1680781,1379,1842,-484,-1199,-808,-302,-61,175,-285
18803,9697,0,2023-03-01T18:51:31.264347,1680786,1377,1842,-491,-1190,-803,-300,-61,175,-285
18804,9698,0,2023-03-01T18:51:31.269543,1680791,1377,1842,-491,-1190,-803,-300,-61,175,-285
18805,9699,0,2023-03-01T18:51:31.275098,1680796,1377,1842,-491,-1190,-803,-300,-61,175,-285
18806,9700,0,2023-03-01T18:51:31.280019,1680801,1377,1842,-491,-1190,-803,-300,-61,175,-285
18807,9701,0,2023-03-01T18:51:31.285627,1680807,1378,1845,-494,-1198,-796,-299,-61,175,-285
18808,9702,0,2023-03-01T18:51:31.291476,1680813,1378,1845,-494,-1198,-796,-299,-61,175,-285
18809,9703,0,2023-03-01T18:51:31.297383,1680819,1378,1845,-494,-1198,-796,-299,-61,175,-285
18810,9704,0,2023-03-01T18:51:31.302453,1680824,1376,1842,-488,-1190,-794,-304,-68,164,-284
18811,9705,0,2023-03-01T18:51:31.308633,1680830,1376,1842,-488,-1190,-794,-304,-68,164,-284
18812,9706,0,2023-03-01T18:51:31.313315,1680835,1376,1842,-488,-1190,-794,-304,-68,164,-284
18813,9707,0,2023-03-01T18:51:31.318639,1680840,1376,1842,-488,-1190,-794,-304,-68,164,-284
18814,9708,0,2023-03-01T18:51:31.324349,1680845,1380,1847,-486,-1192,-800,-305,-68,164,-284
18815,9709,0,2023-03-01T18:51:31.329925,1680851,1380,1847,-486,-1192,-800,-305,-68,164,-284
18816,9710,0,2023-03-01T18:51:31.334896,1680857,1380,1847,-486,-1192,-800,-305,-68,164,-284
18817,9711,0,2023-03-01T18:51:31.339925,1680862,1380,1847,-486,-1192,-800,-305,-68,164,-284
18818,9712,0,2023-03-01T18:51:31.345610,1680867,1377,1845,-490,-1193,-802,-299,-68,164,-284
18819,9713,0,2023-03-01T18:51:31.350921,1680873,1377,1845,-490,-1193,-802,-299,-68,164,-284
18820,9714,0,2023-03-01T18:51:31.356130,1680878,1377,1845,-490,-1193,-802,-299,-68,164,-284
18821,9715,0,2023-03-01T18:51:31.360829,1680882,1377,1845,-490,-1193,-802,-299,-68,164,-284
18822,9716,0,2023-03-01T18:51:31.366276,1680887,1375,1842,-485,-1192,-796,-297,-68,164,-284
18823,9717,0,2023-03-01T18:51:31.371469,1680893,1375,1842,-485,-1192,-796,-297,-68,164,-284
18824,9718,0,2023-03-01T18:51:31.377368,1680899,1375,1842,-485,-1192,-796,-297,-68,164,-284
18825,9719,0,2023-03-01T18:51:31.382061,1680904,1376,1847,-486,-1193,-802,-295,-68,164,-284
18826,9720,0,2023-03-01T18:51:31.388541,1680910,1376,1847,-486,-1193,-802,-295,-68,164,-284
18827,9721,0,2023-03-01T18:51:31.393571,1680915,1376,1847,-486,-1193,-802,-295,-68,164,-284
18828,9722,0,2023-03-01T18:51:31.399059,1680920,1376,1847,-486,-1193,-802,-295,-68,164,-284
18829,9723,0,2023-03-01T18:51:31.404648,1680926,1378,1844,-492,-1203,-808,-302,-68,164,-284
18830,9724,0,2023-03-01T18:51:31.410302,1680932,1378,1844,-492,-1203,-808,-302,-68,164,-284
18831,9725,0,2023-03-01T18:51:31.415066,1680936,1378,1844,-492,-1203,-808,-302,-68,164,-284
18832,9726,0,2023-03-01T18:51:31.419872,1680942,1378,1844,-492,-1203,-808,-302,-68,164,-284
18833,9727,0,2023-03-01T18:51:31.425377,1680947,1379,1841,-493,-1201,-809,-303,-68,164,-284
18834,9728,0,2023-03-01T18:51:31.430965,1680952,1379,1841,-493,-1201,-809,-303,-68,164,-284
18835,9729,0,2023-03-01T18:51:31.436266,1680958,1379,1841,-493,-1201,-809,-303,-68,164,-284
18836,9730,0,2023-03-01T18:51:31.441023,1680963,1379,1841,-493,-1201,-809,-303,-68,164,-284
18837,9731,0,2023-03-01T18:51:31.446479,1680968,1377,1848,-484,-1190,-797,-301,-66,174,-280
18838,9732,0,2023-03-01T18:51:31.451807,1680973,1377,1848,-484,-1190,-797,-301,-66,174,-280
18839,9733,0,2023-03-01T18:51:31.457494,1680978,1377,1848,-484,-1190,-797,-301,-66,174,-280
18840,9734,0,2023-03-01T18:51:31.462055,1680984,1371,1840,-490,-1189,-793,-302,-66,174,-280
18841,9735,0,2023-03-01T18:51:31.467843,1680990,1371,1840,-490,-1189,-793,-302,-66,174,-280
18842,9736,0,2023-03-01T18:51:31.472605,1680994,1371,1840,-490,-1189,-793,-302,-66,174,-280
18843,9737,0,2023-03-01T18:51:31.477056,1680999,1371,1840,-490,-1189,-793,-302,-66,174,-280
18844,9738,0,2023-03-01T18:51:31.482073,1681003,1371,1840,-490,-1189,-793,-302,-66,174,-280
18845,9739,0,2023-03-01T18:51:31.487287,1681008,1376,1846,-489,-1196,-795,-297,-66,174,-280
18846,9740,0,2023-03-01T18:51:31.493151,1681014,1376,1846,-489,-1196,-795,-297,-66,174,-280
18847,9741,0,2023-03-01T18:51:31.498381,1681020,1376,1846,-489,-1196,-795,-297,-66,174,-280
18848,9742,0,2023-03-01T18:51:31.503581,1681025,1382,1844,-491,-1185,-796,-295,-66,174,-280
18849,9743,0,2023-03-01T18:51:31.509508,1681031,1382,1844,-491,-1185,-796,-295,-66,174,-280
18850,9744,0,2023-03-01T18:51:31.514195,1681036,1382,1844,-491,-1185,-796,-295,-66,174,-280
18851,9745,0,2023-03-01T18:51:31.519314,1681041,1382,1844,-491,-1185,-796,-295,-66,174,-280
18852,9746,0,2023-03-01T18:51:31.524739,1681046,1377,1842,-489,-1185,-786,-303,-66,174,-280
18853,9747,0,2023-03-01T18:51:31.529957,1681051,1377,1842,-489,-1185,-786,-303,-66,174,-280
18854,9748,0,2023-03-01T18:51:31.534883,1681056,1377,1842,-489,-1185,-786,-303,-66,174,-280
18855,9749,0,2023-03-01T18:51:31.539845,1681061,1377,1842,-489,-1185,-786,-303,-66,174,-280
18856,9750,0,2023-03-01T18:51:31.545454,1681067,1376,1842,-494,-1182,-789,-299,-66,174,-280
18857,9751,0,2023-03-01T18:51:31.550974,1681073,1376,1842,-494,-1182,-789,-299,-66,174,-280
18858,9752,0,2023-03-01T18:51:31.556689,1681078,1376,1842,-494,-1182,-789,-299,-66,174,-280
18859,9753,0,2023-03-01T18:51:31.561692,1681083,1376,1842,-494,-1182,-789,-299,-66,174,-280
18860,9754,0,2023-03-01T18:51:31.567396,1681089,1376,1843,-487,-1181,-789,-304,-57,161,-277
18861,9755,0,2023-03-01T18:51:31.574283,1681095,1376,1843,-487,-1181,-789,-304,-57,161,-277
18862,9756,0,2023-03-01T18:51:31.579187,1681100,1376,1843,-487,-1181,-789,-304,-57,161,-277
18863,9757,0,2023-03-01T18:51:31.584577,1681106,1376,1843,-490,-1182,-796,-306,-57,161,-277
18864,9758,0,2023-03-01T18:51:31.590208,1681112,1376,1843,-490,-1182,-796,-306,-57,161,-277
18865,9759,0,2023-03-01T18:51:31.597706,1681119,1376,1843,-490,-1182,-796,-306,-57,161,-277
18866,9760,0,2023-03-01T18:51:31.602934,1681124,1379,1844,-491,-1181,-795,-304,-57,161,-277
18867,9761,0,2023-03-01T18:51:31.608926,1681130,1379,1844,-491,-1181,-795,-304,-57,161,-277
18868,9762,0,2023-03-01T18:51:31.613888,1681135,1379,1844,-491,-1181,-795,-304,-57,161,-277
18869,9763,0,2023-03-01T18:51:31.618936,1681140,1379,1844,-491,-1181,-795,-304,-57,161,-277
18870,9764,0,2023-03-01T18:51:31.624458,1681145,1375,1840,-489,-1174,-785,-294,-57,161,-277
18871,9765,0,2023-03-01T18:51:31.630381,1681152,1375,1840,-489,-1174,-785,-294,-57,161,-277
18872,9766,0,2023-03-01T18:51:31.635840,1681158,1375,1840,-489,-1174,-785,-294,-57,161,-277
18873,9767,0,2023-03-01T18:51:31.640883,1681163,1375,1840,-489,-1174,-785,-294,-57,161,-277
18874,9768,0,2023-03-01T18:51:31.646574,1681168,1380,1841,-498,-1186,-793,-288,-57,161,-277
18875,9769,0,2023-03-01T18:51:31.652655,1681174,1380,1841,-498,-1186,-793,-288,-57,161,-277
18876,9770,0,2023-03-01T18:51:31.658284,1681179,1380,1841,-498,-1186,-793,-288,-57,161,-277
18877,9771,0,2023-03-01T18:51:31.663014,1681184,1380,1841,-493,-1195,-801,-297,-57,161,-277
18878,9772,0,2023-03-01T18:51:31.669150,1681190,1380,1841,-493,-1195,-801,-297,-57,161,-277
18879,9773,0,2023-03-01T18:51:31.673673,1681196,1380,1841,-493,-1195,-801,-297,-57,161,-277
18880,9774,0,2023-03-01T18:51:31.679816,1681202,1380,1841,-493,-1195,-801,-297,-57,161,-277
18881,9775,0,2023-03-01T18:51:31.685879,1681207,1380,1838,-488,-1186,-790,-296,-57,161,-277
18882,9776,0,2023-03-01T18:51:31.691563,1681213,1380,1838,-488,-1186,-790,-296,-57,161,-277
18883,9777,0,2023-03-01T18:51:31.696484,1681218,1380,1838,-488,-1186,-790,-296,-57,161,-277
18884,9778,0,2023-03-01T18:51:31.701485,1681223,1380,1838,-488,-1186,-790,-296,-57,161,-277
18885,9779,0,2023-03-01T18:51:31.707350,1681228,1377,1843,-488,-1184,-785,-306,-57,163,-277
18886,9780,0,2023-03-01T18:51:31.712166,1681233,1377,1843,-488,-1184,-785,-306,-57,163,-277
18887,9781,0,2023-03-01T18:51:31.717234,1681239,1377,1843,-488,-1184,-785,-306,-57,163,-277
18888,9782,0,2023-03-01T18:51:31.722043,1681244,1377,1843,-488,-1184,-785,-306,-57,163,-277
18889,9783,0,2023-03-01T18:51:31.727425,1681249,1378,1842,-494,-1184,-781,-299,-57,163,-277
18890,9784,0,2023-03-01T18:51:31.733349,1681255,1378,1842,-494,-1184,-781,-299,-57,163,-277
18891,9785,0,2023-03-01T18:51:31.739434,1681261,1378,1842,-494,-1184,-781,-299,-57,163,-277
18892,9786,0,2023-03-01T18:51:31.745108,1681266,1376,1840,-491,-1178,-779,-298,-57,163,-277
18893,9787,0,2023-03-01T18:51:31.751057,1681272,1376,1840,-491,-1178,-779,-298,-57,163,-277
18894,9788,0,2023-03-01T18:51:31.756034,1681277,1376,1840,-491,-1178,-779,-298,-57,163,-277
18895,9789,0,2023-03-01T18:51:31.760770,1681283,1376,1840,-491,-1178,-779,-298,-57,163,-277
18896,9790,0,2023-03-01T18:51:31.766343,1681288,1377,1849,-490,-1165,-775,-302,-57,163,-277
18897,9791,0,2023-03-01T18:51:31.772169,1681294,1377,1849,-490,-1165,-775,-302,-57,163,-277
18898,9792,0,2023-03-01T18:51:31.776995,1681299,1377,1849,-490,-1165,-775,-302,-57,163,-277
18899,9793,0,2023-03-01T18:51:31.782203,1681303,1377,1849,-490,-1165,-775,-302,-57,163,-277
