,Unnamed: 0,imu,server_time,arduino_time,ax,ay,az,gx,gy,gz,mx,my,mz
18900,9794,0,2023-03-01T18:51:31.787787,1681309,1376,1840,-493,-1179,-782,-304,-57,163,-277
18901,9795,0,2023-03-01T18:51:31.793251,1681314,1376,1840,-493,-1179,-782,-304,-57,163,-277
18902,9796,0,2023-03-01T18:51:31.797971,1681319,1376,1840,-493,-1179,-782,-304,-57,163,-277
18903,9797,0,2023-03-01T18:51:31.802786,1681325,1376,1838,-499,-1187,-780,-298,-57,163,-277
18904,9798,0,2023-03-01T18:51:31.808514,1681330,1376,1838,-499,-1187,-780,-298,-57,163,-277
18905,9799,0,2023-03-01T18:51:31.813384,1681335,1376,1838,-499,-1187,-780,-298,-57,163,-277
18906,9800,0,2023-03-01T18:51:31.818170,1681340,1376,1838,-499,-1187,-780,-298,-57,163,-277
18907,9801,0,2023-03-01T18:51:31.823120,1681345,1381,1843,-496,-1195,-789,-303,-64,170,-280
18908,9802,0,2023-03-01T18:51:31.828990,1681350,1381,1843,-496,-1195,-789,-303,-64,170,-280
18909,9803,0,2023-03-01T18:51:31.834172,1681355,1381,1843,-496,-1195,-789,-303,-64,170,-280
18910,9804,0,2023-03-01T18:51:31.839264,1681360,1381,1843,-496,-1195,-789,-303,-64,170,-280
18911,9805,0,2023-03-01T18:51:31.844673,1681367,1378,1842,-486,-1188,-788,-298,-64,170,-280
18912,9806,0,2023-03-01T18:51:31.850174,1681372,1378,1842,-486,-1188,-788,-298,-64,170,-280
18913,9807,0,2023-03-01T18:51:31.855021,1681377,1378,1842,-486,-1188,-788,-298,-64,170,-280
18914,9808,0,2023-03-01T18:51:31.859801,1681381,1378,1842,-486,-1188,-788,-298,-64,170,-280
18915,9809,0,2023-03-01T18:51:31.864791,1681386,1381,1847,-488,-1184,-786,-298,-64,170,-280
18916,9810,0,2023-03-01T18:51:31.870126,1681391,1381,1847,-488,-1184,-786,-298,-64,170,-280
18917,9811,0,2023-03-01T18:51:31.874878,1681396,1381,1847,-488,-1184,-786,-298,-64,170,-280
18918,9812,0,2023-03-01T18:51:31.879835,1681401,1381,1847,-488,-1184,-786,-298,-64,170,-280
18919,9813,0,2023-03-01T18:51:31.884714,1681406,1379,1844,-494,-1181,-787,-299,-64,170,-280
18920,9814,0,2023-03-01T18:51:31.890486,1681412,1379,1844,-494,-1181,-787,-299,-64,170,-280
18921,9815,0,2023-03-01T18:51:31.895296,1681417,1379,1844,-494,-1181,-787,-299,-64,170,-280
18922,9816,0,2023-03-01T18:51:31.900383,1681422,1379,1844,-494,-1181,-787,-299,-64,170,-280
18923,9817,0,2023-03-01T18:51:31.905871,1681427,1379,1843,-489,-1184,-788,-300,-64,170,-280
18924,9818,0,2023-03-01T18:51:31.911562,1681433,1379,1843,-489,-1184,-788,-300,-64,170,-280
18925,9819,0,2023-03-01T18:51:31.916085,1681437,1379,1843,-489,-1184,-788,-300,-64,170,-280
18926,9820,0,2023-03-01T18:51:31.920813,1681442,1379,1843,-489,-1184,-788,-300,-64,170,-280
18927,9821,0,2023-03-01T18:51:31.926155,1681447,1377,1844,-490,-1183,-791,-292,-64,170,-280
18928,9822,0,2023-03-01T18:51:31.931582,1681453,1377,1844,-490,-1183,-791,-292,-64,170,-280
18929,9823,0,2023-03-01T18:51:31.936515,1681458,1377,1844,-490,-1183,-791,-292,-64,170,-280
18930,9824,0,2023-03-01T18:51:31.941325,1681463,1377,1844,-490,-1183,-791,-292,-64,170,-280
18931,9825,0,2023-03-01T18:51:31.946553,1681468,1377,1842,-497,-1178,-783,-293,-64,170,-280
18932,9826,0,2023-03-01T18:51:31.951889,1681473,1377,1842,-497,-1178,-783,-293,-64,170,-280
18933,9827,0,2023-03-01T18:51:31.958467,1681480,1377,1842,-497,-1178,-783,-293,-64,170,-280
18934,9828,0,2023-03-01T18:51:31.963296,1681485,1379,1840,-491,-1178,-778,-299,-64,170,-280
18935,9829,0,2023-03-01T18:51:31.969021,1681490,1379,1840,-491,-1178,-778,-299,-64,170,-280
18936,9830,0,2023-03-01T18:51:31.974044,1681496,1379,1840,-491,-1178,-778,-299,-64,170,-280
18937,9831,0,2023-03-01T18:51:31.979288,1681501,1379,1840,-491,-1178,-778,-299,-64,170,-280
18938,9832,0,2023-03-01T18:51:31.984835,1681506,1380,1843,-490,-1178,-779,-306,-64,170,-280
18939,9833,0,2023-03-01T18:51:31.990464,1681512,1380,1843,-490,-1178,-779,-306,-64,170,-280
18940,9834,0,2023-03-01T18:51:31.995975,1681518,1380,1843,-490,-1178,-779,-306,-64,170,-280
18941,9835,0,2023-03-01T18:51:32.000775,1681522,1380,1843,-490,-1178,-779,-306,-64,170,-280
18942,9836,0,2023-03-01T18:51:32.005744,1681527,1377,1838,-489,-1182,-781,-299,-64,170,-280
18943,9837,0,2023-03-01T18:51:32.010897,1681532,1377,1838,-489,-1182,-781,-299,-64,170,-280
18944,9838,0,2023-03-01T18:51:32.015765,1681538,1377,1838,-489,-1182,-781,-299,-64,170,-280
18945,9839,0,2023-03-01T18:51:32.021153,1681543,1377,1838,-489,-1182,-781,-299,-64,170,-280
18946,9840,0,2023-03-01T18:51:32.026564,1681548,1382,1842,-495,-1182,-780,-306,-64,170,-280
18947,9841,0,2023-03-01T18:51:32.031965,1681554,1382,1842,-495,-1182,-780,-306,-64,170,-280
18948,9842,0,2023-03-01T18:51:32.037759,1681559,1382,1842,-495,-1182,-780,-306,-64,170,-280
18949,9843,0,2023-03-01T18:51:32.042533,1681564,1382,1842,-495,-1182,-780,-306,-64,170,-280
18950,9844,0,2023-03-01T18:51:32.048305,1681569,1380,1840,-494,-1178,-784,-297,-64,170,-280
18951,9845,0,2023-03-01T18:51:32.053411,1681575,1380,1840,-494,-1178,-784,-297,-64,170,-280
18952,9846,0,2023-03-01T18:51:32.058150,1681580,1380,1840,-494,-1178,-784,-297,-64,170,-280
18953,9847,0,2023-03-01T18:51:32.063134,1681585,1381,1841,-492,-1175,-784,-297,-64,170,-280
18954,9848,0,2023-03-01T18:51:32.069526,1681591,1381,1841,-492,-1175,-784,-297,-64,170,-280
18955,9849,0,2023-03-01T18:51:32.074463,1681596,1381,1841,-492,-1175,-784,-297,-64,170,-280
18956,9850,0,2023-03-01T18:51:32.079194,1681601,1381,1841,-492,-1175,-784,-297,-64,170,-280
18957,9851,0,2023-03-01T18:51:32.084546,1681606,1378,1843,-490,-1180,-776,-294,-60,170,-274
18958,9852,0,2023-03-01T18:51:32.089780,1681611,1378,1843,-490,-1180,-776,-294,-60,170,-274
18959,9853,0,2023-03-01T18:51:32.095169,1681616,1378,1843,-490,-1180,-776,-294,-60,170,-274
18960,9854,0,2023-03-01T18:51:32.100519,1681622,1378,1843,-490,-1180,-776,-294,-60,170,-274
18961,9855,0,2023-03-01T18:51:32.105219,1681627,1378,1843,-489,-1185,-787,-300,-60,170,-274
18962,9856,0,2023-03-01T18:51:32.110336,1681632,1378,1843,-489,-1185,-787,-300,-60,170,-274
18963,9857,0,2023-03-01T18:51:32.115709,1681637,1378,1843,-489,-1185,-787,-300,-60,170,-274
18964,9858,0,2023-03-01T18:51:32.120459,1681642,1378,1843,-489,-1185,-787,-300,-60,170,-274
18965,9859,0,2023-03-01T18:51:32.126910,1681648,1381,1841,-496,-1180,-791,-305,-60,170,-274
18966,9860,0,2023-03-01T18:51:32.132385,1681654,1381,1841,-496,-1180,-791,-305,-60,170,-274
18967,9861,0,2023-03-01T18:51:32.137766,1681658,1381,1841,-496,-1180,-791,-305,-60,170,-274
18968,9862,0,2023-03-01T18:51:32.142864,1681665,1381,1841,-496,-1180,-791,-305,-60,170,-274
18969,9863,0,2023-03-01T18:51:32.148510,1681670,1379,1842,-495,-1184,-790,-297,-60,170,-274
18970,9864,0,2023-03-01T18:51:32.154111,1681676,1379,1842,-495,-1184,-790,-297,-60,170,-274
18971,9865,0,2023-03-01T18:51:32.160268,1681682,1379,1842,-495,-1184,-790,-297,-60,170,-274
18972,9866,0,2023-03-01T18:51:32.165661,1681687,1379,1840,-494,-1191,-796,-301,-60,170,-274
18973,9867,0,2023-03-01T18:51:32.171739,1681692,1379,1840,-494,-1191,-796,-301,-60,170,-274
18974,9868,0,2023-03-01T18:51:32.178090,1681699,1379,1840,-494,-1191,-796,-301,-60,170,-274
18975,9869,0,2023-03-01T18:51:32.183301,1681704,1379,1840,-494,-1191,-796,-301,-60,170,-274
18976,9870,0,2023-03-01T18:51:32.189081,1681711,1380,1844,-491,-1192,-792,-298,-60,170,-274
18977,9871,0,2023-03-01T18:51:32.194438,1681716,1380,1844,-491,-1192,-792,-298,-60,170,-274
18978,9872,0,2023-03-01T18:51:32.199204,1681721,1380,1844,-491,-1192,-792,-298,-60,170,-274
18979,9873,0,2023-03-01T18:51:32.204330,1681726,1375,1838,-493,-1183,-796,-291,-66,162,-282
18980,9874,0,2023-03-01T18:51:32.209855,1681731,1375,1838,-493,-1183,-796,-291,-66,162,-282
18981,9875,0,2023-03-01T18:51:32.215474,1681737,1375,1838,-493,-1183,-796,-291,-66,162,-282
18982,9876,0,2023-03-01T18:51:32.220870,1681742,1375,1838,-493,-1183,-796,-291,-66,162,-282
18983,9877,0,2023-03-01T18:51:32.226506,1681748,1379,1840,-493,-1188,-795,-302,-66,162,-282
18984,9878,0,2023-03-01T18:51:32.232247,1681754,1379,1840,-493,-1188,-795,-302,-66,162,-282
18985,9879,0,2023-03-01T18:51:32.237339,1681759,1379,1840,-493,-1188,-795,-302,-66,162,-282
18986,9880,0,2023-03-01T18:51:32.242358,1681764,1379,1840,-493,-1188,-795,-302,-66,162,-282
18987,9881,0,2023-03-01T18:51:32.248122,1681770,1382,1842,-494,-1187,-795,-298,-66,162,-282
18988,9882,0,2023-03-01T18:51:32.253822,1681775,1382,1842,-494,-1187,-795,-298,-66,162,-282
18989,9883,0,2023-03-01T18:51:32.259537,1681781,1382,1842,-494,-1187,-795,-298,-66,162,-282
18990,9884,0,2023-03-01T18:51:32.265252,1681786,1377,1837,-488,-1188,-794,-300,-66,162,-282
18991,9885,0,2023-03-01T18:51:32.272243,1681794,1377,1837,-488,-1188,-794,-300,-66,162,-282
18992,9886,0,2023-03-01T18:51:32.277093,1681799,1377,1837,-488,-1188,-794,-300,-66,162,-282
18993,9887,0,2023-03-01T18:51:32.283454,1681804,1377,1837,-488,-1188,-794,-300,-66,162,-282
18994,9888,0,2023-03-01T18:51:32.289831,1681811,1379,1843,-492,-1184,-800,-309,-66,162,-282
18995,9889,0,2023-03-01T18:51:32.295124,1681817,1379,1843,-492,-1184,-800,-309,-66,162,-282
18996,9890,0,2023-03-01T18:51:32.300521,1681822,1379,1843,-492,-1184,-800,-309,-66,162,-282
18997,9891,0,2023-03-01T18:51:32.305878,1681827,1381,1844,-497,-1189,-800,-297,-66,162,-282
18998,9892,0,2023-03-01T18:51:32.311004,1681832,1381,1844,-497,-1189,-800,-297,-66,162,-282
18999,9893,0,2023-03-01T18:51:32.316440,1681838,1381,1844,-497,-1189,-800,-297,-66,162,-282
19000,9894,0,2023-03-01T18:51:32.321355,1681843,1381,1844,-497,-1189,-800,-297,-66,162,-282
19001,9895,0,2023-03-01T18:51:32.326762,1681848,1381,1840,-490,-1182,-800,-291,-66,162,-282
19002,9896,0,2023-03-01T18:51:32.332554,1681854,1381,1840,-490,-1182,-800,-291,-66,162,-282
19003,9897,0,2023-03-01T18:51:32.337384,1681859,1381,1840,-490,-1182,-800,-291,-66,162,-282
19004,9898,0,2023-03-01T18:51:32.342373,1681864,1381,1840,-490,-1182,-800,-291,-66,162,-282
19005,9899,0,2023-03-01T18:51:32.348206,1681869,1383,1844,-496,-1190,-804,-302,-67,169,-275
19006,9900,0,2023-03-01T18:51:32.353702,1681875,1383,1844,-496,-1190,-804,-302,-67,169,-275
19007,9901,0,2023-03-01T18:51:32.358180,1681880,1383,1844,-496,-1190,-804,-302,-67,169,-275
19008,9902,0,2023-03-01T18:51:32.362947,1681885,1383,1844,-496,-1190,-804,-302,-67,169,-275
19009,9903,0,2023-03-01T18:51:32.368357,1681890,1378,1840,-497,-1199,-807,-297,-67,169,-275
19010,9904,0,2023-03-01T18:51:32.373604,1681895,1378,1840,-497,-1199,-807,-297,-67,169,-275
19011,9905,0,2023-03-01T18:51:32.378435,1681900,1378,1840,-497,-1199,-807,-297,-67,169,-275
19012,9906,0,2023-03-01T18:51:32.383353,1681905,1380,1840,-489,-1194,-800,-300,-67,169,-275
19013,9907,0,2023-03-01T18:51:32.389182,1681911,1380,1840,-489,-1194,-800,-300,-67,169,-275
19014,9908,0,2023-03-01T18:51:32.395096,1681915,1380,1840,-489,-1194,-800,-300,-67,169,-275
19015,9909,0,2023-03-01T18:51:32.401042,1681923,1380,1840,-489,-1194,-800,-300,-67,169,-275
19016,9910,0,2023-03-01T18:51:32.406638,1681928,1380,1843,-496,-1201,-800,-299,-67,169,-275
19017,9911,0,2023-03-01T18:51:32.411804,1681934,1380,1843,-496,-1201,-800,-299,-67,169,-275
19018,9912,0,2023-03-01T18:51:32.417357,1681939,1380,1843,-496,-1201,-800,-299,-67,169,-275
19019,9913,0,2023-03-01T18:51:32.421989,1681944,1380,1843,-496,-1201,-800,-299,-67,169,-275
19020,9914,0,2023-03-01T18:51:32.427203,1681949,1380,1840,-492,-1207,-809,-293,-67,169,-275
19021,9915,0,2023-03-01T18:51:32.432442,1681954,1380,1840,-492,-1207,-809,-293,-67,169,-275
19022,9916,0,2023-03-01T18:51:32.438157,1681959,1380,1840,-492,-1207,-809,-293,-67,169,-275
19023,9917,0,2023-03-01T18:51:32.442959,1681965,1380,1840,-492,-1207,-809,-293,-67,169,-275
19024,9918,0,2023-03-01T18:51:32.448326,1681970,1383,1843,-497,-1196,-802,-304,-67,169,-275
19025,9919,0,2023-03-01T18:51:32.453592,1681975,1383,1843,-497,-1196,-802,-304,-67,169,-275
19026,9920,0,2023-03-01T18:51:32.459238,1681981,1383,1843,-497,-1196,-802,-304,-67,169,-275
19027,9921,0,2023-03-01T18:51:32.464566,1681986,1379,1842,-497,-1192,-809,-300,-67,165,-279
19028,9922,0,2023-03-01T18:51:32.470376,1681992,1379,1842,-497,-1192,-809,-300,-67,165,-279
19029,9923,0,2023-03-01T18:51:32.475388,1681996,1379,1842,-497,-1192,-809,-300,-67,165,-279
19030,9924,0,2023-03-01T18:51:32.480290,1682001,1379,1842,-497,-1192,-809,-300,-67,165,-279
19031,9925,0,2023-03-01T18:51:32.485651,1682008,1380,1836,-492,-1190,-802,-291,-67,165,-279
19032,9926,0,2023-03-01T18:51:32.490848,1682013,1380,1836,-492,-1190,-802,-291,-67,165,-279
19033,9927,0,2023-03-01T18:51:32.495912,1682018,1380,1836,-492,-1190,-802,-291,-67,165,-279
19034,9928,0,2023-03-01T18:51:32.501605,1682023,1380,1836,-492,-1190,-802,-291,-67,165,-279
19035,9929,0,2023-03-01T18:51:32.506666,1682028,1379,1846,-495,-1186,-803,-301,-67,165,-279
19036,9930,0,2023-03-01T18:51:32.512086,1682034,1379,1846,-495,-1186,-803,-301,-67,165,-279
19037,9931,0,2023-03-01T18:51:32.517642,1682038,1379,1846,-495,-1186,-803,-301,-67,165,-279
19038,9932,0,2023-03-01T18:51:32.522967,1682044,1379,1846,-495,-1186,-803,-301,-67,165,-279
19039,9933,0,2023-03-01T18:51:32.528430,1682050,1379,1841,-491,-1197,-798,-305,-67,165,-279
19040,9934,0,2023-03-01T18:51:32.533720,1682056,1379,1841,-491,-1197,-798,-305,-67,165,-279
19041,9935,0,2023-03-01T18:51:32.539110,1682061,1379,1841,-491,-1197,-798,-305,-67,165,-279
19042,9936,0,2023-03-01T18:51:32.544407,1682066,1378,1840,-499,-1189,-798,-298,-67,165,-279
19043,9937,0,2023-03-01T18:51:32.550186,1682071,1378,1840,-499,-1189,-798,-298,-67,165,-279
19044,9938,0,2023-03-01T18:51:32.555830,1682077,1378,1840,-499,-1189,-798,-298,-67,165,-279
19045,9939,0,2023-03-01T18:51:32.560699,1682082,1378,1840,-499,-1189,-798,-298,-67,165,-279
19046,9940,0,2023-03-01T18:51:32.566350,1682087,1380,1845,-496,-1173,-797,-299,-67,165,-279
19047,9941,0,2023-03-01T18:51:32.571922,1682094,1380,1845,-496,-1173,-797,-299,-67,165,-279
19048,9942,0,2023-03-01T18:51:32.577601,1682099,1380,1845,-496,-1173,-797,-299,-67,165,-279
19049,9943,0,2023-03-01T18:51:32.582297,1682104,1380,1845,-496,-1173,-797,-299,-67,165,-279
19050,9944,0,2023-03-01T18:51:32.587415,1682109,1380,1837,-498,-1182,-795,-298,-67,165,-279
19051,9945,0,2023-03-01T18:51:32.592595,1682114,1380,1837,-498,-1182,-795,-298,-67,165,-279
19052,9946,0,2023-03-01T18:51:32.597297,1682119,1380,1837,-498,-1182,-795,-298,-67,165,-279
19053,9947,0,2023-03-01T18:51:32.602344,1682124,1380,1837,-498,-1182,-795,-298,-67,165,-279
19054,9948,0,2023-03-01T18:51:32.608142,1682129,1381,1838,-491,-1180,-799,-297,-75,165,-275
19055,9949,0,2023-03-01T18:51:32.614000,1682135,1381,1838,-491,-1180,-799,-297,-75,165,-275
19056,9950,0,2023-03-01T18:51:32.619155,1682141,1381,1838,-491,-1180,-799,-297,-75,165,-275
19057,9951,0,2023-03-01T18:51:32.624741,1682146,1379,1840,-492,-1193,-799,-303,-75,165,-275
19058,9952,0,2023-03-01T18:51:32.630308,1682152,1379,1840,-492,-1193,-799,-303,-75,165,-275
19059,9953,0,2023-03-01T18:51:32.635047,1682157,1379,1840,-492,-1193,-799,-303,-75,165,-275
19060,9954,0,2023-03-01T18:51:32.639914,1682161,1379,1840,-492,-1193,-799,-303,-75,165,-275
19061,9955,0,2023-03-01T18:51:32.645555,1682167,1380,1837,-497,-1190,-802,-299,-75,165,-275
19062,9956,0,2023-03-01T18:51:32.651111,1682172,1380,1837,-497,-1190,-802,-299,-75,165,-275
19063,9957,0,2023-03-01T18:51:32.657013,1682179,1380,1837,-497,-1190,-802,-299,-75,165,-275
19064,9958,0,2023-03-01T18:51:32.662265,1682184,1380,1837,-497,-1190,-802,-299,-75,165,-275
19065,9959,0,2023-03-01T18:51:32.667915,1682190,1380,1841,-498,-1202,-802,-296,-75,165,-275
19066,9960,0,2023-03-01T18:51:32.673060,1682195,1380,1841,-498,-1202,-802,-296,-75,165,-275
19067,9961,0,2023-03-01T18:51:32.679206,1682200,1380,1841,-498,-1202,-802,-296,-75,165,-275
19068,9962,0,2023-03-01T18:51:32.684144,1682205,1377,1840,-492,-1193,-800,-304,-75,165,-275
19069,9963,0,2023-03-01T18:51:32.689978,1682211,1377,1840,-492,-1193,-800,-304,-75,165,-275
19070,9964,0,2023-03-01T18:51:32.694851,1682216,1377,1840,-492,-1193,-800,-304,-75,165,-275
19071,9965,0,2023-03-01T18:51:32.699943,1682222,1377,1840,-492,-1193,-800,-304,-75,165,-275
19072,9966,0,2023-03-01T18:51:32.705601,1682227,1381,1840,-495,-1186,-789,-306,-75,165,-275
19073,9967,0,2023-03-01T18:51:32.710926,1682233,1381,1840,-495,-1186,-789,-306,-75,165,-275
19074,9968,0,2023-03-01T18:51:32.717193,1682238,1381,1840,-495,-1186,-789,-306,-75,165,-275
19075,9969,0,2023-03-01T18:51:32.722329,1682244,1381,1840,-495,-1186,-789,-306,-75,165,-275
19076,9970,0,2023-03-01T18:51:32.727943,1682249,1380,1840,-494,-1178,-791,-301,-59,157,-281
19077,9971,0,2023-03-01T18:51:32.733580,1682255,1380,1840,-494,-1178,-791,-301,-59,157,-281
19078,9972,0,2023-03-01T18:51:32.738915,1682260,1380,1840,-494,-1178,-791,-301,-59,157,-281
19079,9973,0,2023-03-01T18:51:32.744344,1682266,1381,1840,-491,-1183,-794,-299,-59,157,-281
19080,9974,0,2023-03-01T18:51:32.750042,1682272,1381,1840,-491,-1183,-794,-299,-59,157,-281
19081,9975,0,2023-03-01T18:51:32.755260,1682277,1381,1840,-491,-1183,-794,-299,-59,157,-281
19082,9976,0,2023-03-01T18:51:32.761466,1682283,1381,1840,-491,-1183,-794,-299,-59,157,-281
19083,9977,0,2023-03-01T18:51:32.767146,1682288,1382,1841,-500,-1194,-798,-301,-59,157,-281
19084,9978,0,2023-03-01T18:51:32.773531,1682295,1382,1841,-500,-1194,-798,-301,-59,157,-281
19085,9979,0,2023-03-01T18:51:32.779165,1682300,1382,1841,-500,-1194,-798,-301,-59,157,-281
19086,9980,0,2023-03-01T18:51:32.784687,1682307,1381,1840,-493,-1191,-794,-306,-59,157,-281
19087,9981,0,2023-03-01T18:51:32.790505,1682312,1381,1840,-493,-1191,-794,-306,-59,157,-281
19088,9982,0,2023-03-01T18:51:32.795446,1682317,1381,1840,-493,-1191,-794,-306,-59,157,-281
19089,9983,0,2023-03-01T18:51:32.801366,1682323,1381,1840,-493,-1191,-794,-306,-59,157,-281
19090,9984,0,2023-03-01T18:51:32.807018,1682328,1381,1837,-493,-1193,-794,-303,-59,157,-281
19091,9985,0,2023-03-01T18:51:32.812433,1682334,1381,1837,-493,-1193,-794,-303,-59,157,-281
19092,9986,0,2023-03-01T18:51:32.818089,1682339,1381,1837,-493,-1193,-794,-303,-59,157,-281
19093,9987,0,2023-03-01T18:51:32.822888,1682344,1381,1837,-493,-1193,-794,-303,-59,157,-281
19094,9988,0,2023-03-01T18:51:32.828601,1682350,1385,1844,-498,-1190,-795,-299,-59,157,-281
19095,9989,0,2023-03-01T18:51:32.834317,1682356,1385,1844,-498,-1190,-795,-299,-59,157,-281
19096,9990,0,2023-03-01T18:51:32.839811,1682361,1385,1844,-498,-1190,-795,-299,-59,157,-281
19097,9991,0,2023-03-01T18:51:32.845323,1682367,1381,1839,-494,-1184,-794,-302,-61,169,-275
19098,9992,0,2023-03-01T18:51:32.851115,1682372,1381,1839,-494,-1184,-794,-302,-61,169,-275
19099,9993,0,2023-03-01T18:51:32.856584,1682378,1381,1839,-494,-1184,-794,-302,-61,169,-275
19100,9994,0,2023-03-01T18:51:32.861547,1682383,1381,1839,-494,-1184,-794,-302,-61,169,-275
19101,9995,0,2023-03-01T18:51:32.867140,1682388,1383,1841,-491,-1182,-788,-302,-61,169,-275
19102,9996,0,2023-03-01T18:51:32.872323,1682394,1383,1841,-491,-1182,-788,-302,-61,169,-275
19103,9997,0,2023-03-01T18:51:32.877847,1682400,1383,1841,-491,-1182,-788,-302,-61,169,-275
19104,9998,0,2023-03-01T18:51:32.882799,1682404,1383,1841,-491,-1182,-788,-302,-61,169,-275
19105,9999,0,2023-03-01T18:51:32.888308,1682410,1383,1840,-495,-1188,-799,-301,-61,169,-275
19106,0,0,2023-03-01T18:51:32.901927,1682423,1383,1840,-495,-1188,-799,-301,-61,169,-275
19107,1,0,2023-03-01T18:51:32.907947,1682429,1377,1840,-495,-1186,-788,-303,-61,169,-275
19108,2,0,2023-03-01T18:51:32.913956,1682436,1377,1840,-495,-1186,-788,-303,-61,169,-275
19109,3,0,2023-03-01T18:51:32.918624,1682440,1377,1840,-495,-1186,-788,-303,-61,169,-275
19110,4,0,2023-03-01T18:51:32.923414,1682445,1377,1840,-495,-1186,-788,-303,-61,169,-275
19111,5,0,2023-03-01T18:51:32.928756,1682450,1383,1840,-496,-1182,-786,-303,-61,169,-275
19112,6,0,2023-03-01T18:51:32.934336,1682456,1383,1840,-496,-1182,-786,-303,-61,169,-275
19113,7,0,2023-03-01T18:51:32.940059,1682462,1383,1840,-496,-1182,-786,-303,-61,169,-275
19114,8,0,2023-03-01T18:51:32.945482,1682467,1381,1840,-495,-1182,-788,-305,-61,169,-275
19115,9,0,2023-03-01T18:51:32.951074,1682472,1381,1840,-495,-1182,-788,-305,-61,169,-275
19116,10,0,2023-03-01T18:51:32.955915,1682478,1381,1840,-495,-1182,-788,-305,-61,169,-275
19117,11,0,2023-03-01T18:51:32.961087,1682483,1381,1840,-495,-1182,-788,-305,-61,169,-275
19118,12,0,2023-03-01T18:51:32.965963,1682488,1385,1838,-496,-1199,-797,-300,-61,169,-275
19119,13,0,2023-03-01T18:51:32.971490,1682493,1385,1838,-496,-1199,-797,-300,-61,169,-275
19120,14,0,2023-03-01T18:51:32.977353,1682499,1385,1838,-496,-1199,-797,-300,-61,169,-275
19121,15,0,2023-03-01T18:51:32.982544,1682504,1385,1838,-496,-1199,-797,-300,-61,169,-275
19122,16,0,2023-03-01T18:51:32.987927,1682509,1382,1836,-485,-1186,-801,-299,-68,166,-278
19123,17,0,2023-03-01T18:51:32.993045,1682514,1382,1836,-485,-1186,-801,-299,-68,166,-278
19124,18,0,2023-03-01T18:51:32.998976,1682521,1382,1836,-485,-1186,-801,-299,-68,166,-278
19125,19,0,2023-03-01T18:51:33.003880,1682526,1380,1835,-488,-1192,-802,-295,-68,166,-278
19126,20,0,2023-03-01T18:51:33.009839,1682531,1380,1835,-488,-1192,-802,-295,-68,166,-278
19127,21,0,2023-03-01T18:51:33.014703,1682536,1380,1835,-488,-1192,-802,-295,-68,166,-278
19128,22,0,2023-03-01T18:51:33.020561,1682542,1380,1835,-488,-1192,-802,-295,-68,166,-278
19129,23,0,2023-03-01T18:51:33.025974,1682547,1381,1841,-496,-1198,-804,-306,-68,166,-278
19130,24,0,2023-03-01T18:51:33.031007,1682552,1381,1841,-496,-1198,-804,-306,-68,166,-278
19131,25,0,2023-03-01T18:51:33.036290,1682557,1381,1841,-496,-1198,-804,-306,-68,166,-278
19132,26,0,2023-03-01T18:51:33.040811,1682563,1381,1841,-496,-1198,-804,-306,-68,166,-278
19133,27,0,2023-03-01T18:51:33.045662,1682568,1384,1844,-490,-1201,-804,-305,-68,166,-278
19134,28,0,2023-03-01T18:51:33.051763,1682573,1384,1844,-490,-1201,-804,-305,-68,166,-278
19135,29,0,2023-03-01T18:51:33.056879,1682578,1384,1844,-490,-1201,-804,-305,-68,166,-278
19136,30,0,2023-03-01T18:51:33.061587,1682583,1384,1844,-490,-1201,-804,-305,-68,166,-278
19137,31,0,2023-03-01T18:51:33.067210,1682588,1383,1843,-496,-1189,-810,-301,-68,166,-278
19138,32,0,2023-03-01T18:51:33.072747,1682594,1383,1843,-496,-1189,-810,-301,-68,166,-278
19139,33,0,2023-03-01T18:51:33.077650,1682599,1383,1843,-496,-1189,-810,-301,-68,166,-278
19140,34,0,2023-03-01T18:51:33.082352,1682604,1383,1843,-496,-1189,-810,-301,-68,166,-278
19141,35,0,2023-03-01T18:51:33.087172,1682609,1383,1843,-496,-1189,-810,-301,-68,166,-278
19142,36,0,2023-03-01T18:51:33.092490,1682614,1383,1843,-496,-1189,-810,-301,-68,166,-278
19143,37,0,2023-03-01T18:51:33.098003,1682620,1383,1843,-496,-1189,-810,-301,-68,166,-278
19144,38,0,2023-03-01T18:51:33.102506,1682624,1383,1843,-496,-1189,-810,-301,-68,166,-278
19145,39,0,2023-03-01T18:51:33.107847,1682629,1382,1840,-493,-1193,-802,-289,-68,164,-276
19146,40,0,2023-03-01T18:51:33.113149,1682635,1382,1840,-493,-1193,-802,-289,-68,164,-276
19147,41,0,2023-03-01T18:51:33.117928,1682639,1382,1840,-493,-1193,-802,-289,-68,164,-276
19148,42,0,2023-03-01T18:51:33.122951,1682644,1382,1840,-493,-1193,-802,-289,-68,164,-276
19149,43,0,2023-03-01T18:51:33.128591,1682650,1383,1840,-491,-1188,-800,-297,-68,164,-276
19150,44,0,2023-03-01T18:51:33.133993,1682656,1383,1840,-491,-1188,-800,-297,-68,164,-276
19151,45,0,2023-03-01T18:51:33.138512,1682660,1383,1840,-491,-1188,-800,-297,-68,164,-276
19152,46,0,2023-03-01T18:51:33.143004,1682665,1383,1840,-491,-1188,-800,-297,-68,164,-276
19153,47,0,2023-03-01T18:51:33.148022,1682670,1384,1842,-500,-1189,-798,-298,-68,164,-276
19154,48,0,2023-03-01T18:51:33.153368,1682675,1384,1842,-500,-1189,-798,-298,-68,164,-276
19155,49,0,2023-03-01T18:51:33.158230,1682679,1384,1842,-500,-1189,-798,-298,-68,164,-276
19156,50,0,2023-03-01T18:51:33.163196,1682684,1384,1842,-500,-1189,-798,-298,-68,164,-276
19157,51,0,2023-03-01T18:51:33.168804,1682691,1381,1838,-493,-1196,-795,-303,-68,164,-276
19158,52,0,2023-03-01T18:51:33.173981,1682696,1381,1838,-493,-1196,-795,-303,-68,164,-276
19159,53,0,2023-03-01T18:51:33.179185,1682701,1381,1838,-493,-1196,-795,-303,-68,164,-276
19160,54,0,2023-03-01T18:51:33.184857,1682706,1381,1840,-491,-1191,-799,-300,-68,164,-276
19161,55,0,2023-03-01T18:51:33.190409,1682712,1381,1840,-491,-1191,-799,-300,-68,164,-276
19162,56,0,2023-03-01T18:51:33.195132,1682716,1381,1840,-491,-1191,-799,-300,-68,164,-276
19163,57,0,2023-03-01T18:51:33.200768,1682722,1381,1840,-491,-1191,-799,-300,-68,164,-276
19164,58,0,2023-03-01T18:51:33.207103,1682727,1383,1842,-489,-1182,-784,-306,-68,164,-276
19165,59,0,2023-03-01T18:51:33.212783,1682734,1383,1842,-489,-1182,-784,-306,-68,164,-276
19166,60,0,2023-03-01T18:51:33.218612,1682740,1383,1842,-489,-1182,-784,-306,-68,164,-276
19167,61,0,2023-03-01T18:51:33.223397,1682745,1383,1842,-489,-1182,-784,-306,-68,164,-276
19168,62,0,2023-03-01T18:51:33.228640,1682750,1380,1840,-499,-1190,-786,-301,-68,164,-276
19169,63,0,2023-03-01T18:51:33.233825,1682756,1380,1840,-499,-1190,-786,-301,-68,164,-276
19170,64,0,2023-03-01T18:51:33.238646,1682760,1380,1840,-499,-1190,-786,-301,-68,164,-276
19171,65,0,2023-03-01T18:51:33.243441,1682765,1380,1840,-499,-1190,-786,-301,-68,164,-276
19172,66,0,2023-03-01T18:51:33.248941,1682770,1384,1840,-494,-1182,-787,-308,-64,172,-274
19173,67,0,2023-03-01T18:51:33.254504,1682776,1384,1840,-494,-1182,-787,-308,-64,172,-274
19174,68,0,2023-03-01T18:51:33.258984,1682781,1384,1840,-494,-1182,-787,-308,-64,172,-274
19175,69,0,2023-03-01T18:51:33.264301,1682786,1382,1835,-493,-1178,-790,-303,-64,172,-274
19176,70,0,2023-03-01T18:51:33.270440,1682791,1382,1835,-493,-1178,-790,-303,-64,172,-274
19177,71,0,2023-03-01T18:51:33.276986,1682798,1382,1835,-493,-1178,-790,-303,-64,172,-274
19178,72,0,2023-03-01T18:51:33.282241,1682803,1382,1835,-493,-1178,-790,-303,-64,172,-274
19179,73,0,2023-03-01T18:51:33.287555,1682809,1383,1839,-495,-1185,-789,-303,-64,172,-274
19180,74,0,2023-03-01T18:51:33.293352,1682814,1383,1839,-495,-1185,-789,-303,-64,172,-274
19181,75,0,2023-03-01T18:51:33.298979,1682821,1383,1839,-495,-1185,-789,-303,-64,172,-274
19182,76,0,2023-03-01T18:51:33.303931,1682826,1383,1839,-495,-1185,-789,-303,-64,172,-274
19183,77,0,2023-03-01T18:51:33.309809,1682831,1385,1839,-499,-1184,-791,-297,-64,172,-274
19184,78,0,2023-03-01T18:51:33.315104,1682837,1385,1839,-499,-1184,-791,-297,-64,172,-274
19185,79,0,2023-03-01T18:51:33.319681,1682841,1385,1839,-499,-1184,-791,-297,-64,172,-274
19186,80,0,2023-03-01T18:51:33.325245,1682846,1385,1836,-492,-1180,-788,-299,-64,172,-274
19187,81,0,2023-03-01T18:51:33.331292,1682852,1385,1836,-492,-1180,-788,-299,-64,172,-274
19188,82,0,2023-03-01T18:51:33.338054,1682860,1385,1836,-492,-1180,-788,-299,-64,172,-274
19189,83,0,2023-03-01T18:51:33.342574,1682865,1385,1836,-492,-1180,-788,-299,-64,172,-274
19190,84,0,2023-03-01T18:51:33.347918,1682870,1383,1844,-496,-1175,-788,-299,-64,172,-274
19191,85,0,2023-03-01T18:51:33.353394,1682875,1383,1844,-496,-1175,-788,-299,-64,172,-274
19192,86,0,2023-03-01T18:51:33.358681,1682880,1383,1844,-496,-1175,-788,-299,-64,172,-274
19193,87,0,2023-03-01T18:51:33.363492,1682885,1383,1844,-496,-1175,-788,-299,-64,172,-274
19194,88,0,2023-03-01T18:51:33.368985,1682890,1382,1837,-491,-1182,-789,-299,-68,170,-280
19195,89,0,2023-03-01T18:51:33.374320,1682896,1382,1837,-491,-1182,-789,-299,-68,170,-280
19196,90,0,2023-03-01T18:51:33.378945,1682900,1382,1837,-491,-1182,-789,-299,-68,170,-280
19197,91,0,2023-03-01T18:51:33.383975,1682906,1382,1837,-491,-1182,-789,-299,-68,170,-280
19198,92,0,2023-03-01T18:51:33.390134,1682912,1380,1836,-492,-1189,-795,-299,-68,170,-280
19199,93,0,2023-03-01T18:51:33.395540,1682917,1380,1836,-492,-1189,-795,-299,-68,170,-280
19200,94,0,2023-03-01T18:51:33.399960,1682922,1380,1836,-492,-1189,-795,-299,-68,170,-280
19201,95,0,2023-03-01T18:51:33.405085,1682927,1384,1839,-499,-1181,-784,-303,-68,170,-280
19202,96,0,2023-03-01T18:51:33.410460,1682932,1384,1839,-499,-1181,-784,-303,-68,170,-280
19203,97,0,2023-03-01T18:51:33.415053,1682936,1384,1839,-499,-1181,-784,-303,-68,170,-280
19204,98,0,2023-03-01T18:51:33.419976,1682941,1384,1839,-499,-1181,-784,-303,-68,170,-280
19205,99,0,2023-03-01T18:51:33.425437,1682947,1381,1836,-496,-1180,-778,-298,-68,170,-280
19206,100,0,2023-03-01T18:51:33.430711,1682953,1381,1836,-496,-1180,-778,-298,-68,170,-280
19207,101,0,2023-03-01T18:51:33.435722,1682957,1381,1836,-496,-1180,-778,-298,-68,170,-280
19208,102,0,2023-03-01T18:51:33.440461,1682962,1381,1836,-496,-1180,-778,-298,-68,170,-280
19209,103,0,2023-03-01T18:51:33.445770,1682967,1381,1839,-492,-1178,-782,-300,-68,170,-280
19210,104,0,2023-03-01T18:51:33.451067,1682973,1381,1839,-492,-1178,-782,-300,-68,170,-280
19211,105,0,2023-03-01T18:51:33.456864,1682978,1381,1839,-492,-1178,-782,-300,-68,170,-280
19212,106,0,2023-03-01T18:51:33.462394,1682983,1381,1839,-492,-1178,-782,-300,-68,170,-280
19213,107,0,2023-03-01T18:51:33.467862,1682990,1384,1839,-500,-1176,-779,-297,-68,170,-280
19214,108,0,2023-03-01T18:51:33.473005,1682995,1384,1839,-500,-1176,-779,-297,-68,170,-280
19215,109,0,2023-03-01T18:51:33.478393,1683000,1384,1839,-500,-1176,-779,-297,-68,170,-280
19216,110,0,2023-03-01T18:51:33.483028,1683005,1384,1839,-500,-1176,-779,-297,-68,170,-280
19217,111,0,2023-03-01T18:51:33.489930,1683010,1382,1841,-501,-1168,-777,-300,-68,170,-280
19218,112,0,2023-03-01T18:51:33.496267,1683017,1382,1841,-501,-1168,-777,-300,-68,170,-280
19219,113,0,2023-03-01T18:51:33.502379,1683023,1382,1841,-501,-1168,-777,-300,-68,170,-280
19220,114,0,2023-03-01T18:51:33.507816,1683030,1382,1842,-492,-1181,-783,-296,-65,167,-269
19221,115,0,2023-03-01T18:51:33.512803,1683035,1382,1842,-492,-1181,-783,-296,-65,167,-269
19222,116,0,2023-03-01T18:51:33.517737,1683039,1382,1842,-492,-1181,-783,-296,-65,167,-269
19223,117,0,2023-03-01T18:51:33.522579,1683044,1382,1842,-492,-1181,-783,-296,-65,167,-269
19224,118,0,2023-03-01T18:51:33.528007,1683050,1382,1839,-495,-1174,-761,-296,-65,167,-269
19225,119,0,2023-03-01T18:51:33.533322,1683055,1382,1839,-495,-1174,-761,-296,-65,167,-269
19226,120,0,2023-03-01T18:51:33.537944,1683059,1382,1839,-495,-1174,-761,-296,-65,167,-269
19227,121,0,2023-03-01T18:51:33.543041,1683064,1382,1839,-495,-1174,-761,-296,-65,167,-269
19228,122,0,2023-03-01T18:51:33.548634,1683070,1383,1838,-499,-1169,-768,-306,-65,167,-269
19229,123,0,2023-03-01T18:51:33.554323,1683076,1383,1838,-499,-1169,-768,-306,-65,167,-269
19230,124,0,2023-03-01T18:51:33.558922,1683081,1383,1838,-499,-1169,-768,-306,-65,167,-269
19231,125,0,2023-03-01T18:51:33.563534,1683085,1383,1838,-499,-1169,-768,-306,-65,167,-269
19232,126,0,2023-03-01T18:51:33.568776,1683090,1385,1838,-498,-1165,-763,-297,-65,167,-269
19233,127,0,2023-03-01T18:51:33.574386,1683096,1385,1838,-498,-1165,-763,-297,-65,167,-269
19234,128,0,2023-03-01T18:51:33.579944,1683101,1385,1838,-498,-1165,-763,-297,-65,167,-269
19235,129,0,2023-03-01T18:51:33.585111,1683107,1381,1835,-493,-1162,-761,-304,-65,167,-269
19236,130,0,2023-03-01T18:51:33.591705,1683113,1381,1835,-493,-1162,-761,-304,-65,167,-269
19237,131,0,2023-03-01T18:51:33.596540,1683118,1381,1835,-493,-1162,-761,-304,-65,167,-269
19238,132,0,2023-03-01T18:51:33.601835,1683123,1381,1835,-493,-1162,-761,-304,-65,167,-269
19239,133,0,2023-03-01T18:51:33.607080,1683129,1385,1840,-499,-1157,-768,-308,-65,167,-269
19240,134,0,2023-03-01T18:51:33.612885,1683134,1385,1840,-499,-1157,-768,-308,-65,167,-269
19241,135,0,2023-03-01T18:51:33.617831,1683139,1385,1840,-499,-1157,-768,-308,-65,167,-269
19242,136,0,2023-03-01T18:51:33.622785,1683144,1385,1840,-499,-1157,-768,-308,-65,167,-269
19243,137,0,2023-03-01T18:51:33.628033,1683149,1385,1839,-501,-1163,-764,-301,-66,164,-276
19244,138,0,2023-03-01T18:51:33.633729,1683155,1385,1839,-501,-1163,-764,-301,-66,164,-276
19245,139,0,2023-03-01T18:51:33.639147,1683161,1385,1839,-501,-1163,-764,-301,-66,164,-276
19246,140,0,2023-03-01T18:51:33.644546,1683166,1385,1839,-501,-1163,-764,-301,-66,164,-276
19247,141,0,2023-03-01T18:51:33.649957,1683172,1383,1834,-493,-1168,-766,-300,-66,164,-276
19248,142,0,2023-03-01T18:51:33.655505,1683177,1383,1834,-493,-1168,-766,-300,-66,164,-276
19249,143,0,2023-03-01T18:51:33.660481,1683182,1383,1834,-493,-1168,-766,-300,-66,164,-276
19250,144,0,2023-03-01T18:51:33.666903,1683188,1383,1842,-499,-1177,-771,-306,-66,164,-276
19251,145,0,2023-03-01T18:51:33.672797,1683194,1383,1842,-499,-1177,-771,-306,-66,164,-276
19252,146,0,2023-03-01T18:51:33.678809,1683200,1383,1842,-499,-1177,-771,-306,-66,164,-276
19253,147,0,2023-03-01T18:51:33.684064,1683206,1383,1842,-499,-1177,-771,-306,-66,164,-276
19254,148,0,2023-03-01T18:51:33.689906,1683212,1383,1838,-498,-1177,-766,-296,-66,164,-276
19255,149,0,2023-03-01T18:51:33.695688,1683217,1383,1838,-498,-1177,-766,-296,-66,164,-276
19256,150,0,2023-03-01T18:51:33.700487,1683222,1383,1838,-498,-1177,-766,-296,-66,164,-276
19257,151,0,2023-03-01T18:51:33.706349,1683228,1382,1837,-497,-1171,-774,-295,-66,164,-276
19258,152,0,2023-03-01T18:51:33.712238,1683233,1382,1837,-497,-1171,-774,-295,-66,164,-276
19259,153,0,2023-03-01T18:51:33.718216,1683239,1382,1837,-497,-1171,-774,-295,-66,164,-276
19260,154,0,2023-03-01T18:51:33.723725,1683245,1382,1837,-497,-1171,-774,-295,-66,164,-276
19261,155,0,2023-03-01T18:51:33.729797,1683252,1385,1839,-498,-1184,-779,-301,-66,164,-276
19262,156,0,2023-03-01T18:51:33.735772,1683257,1385,1839,-498,-1184,-779,-301,-66,164,-276
19263,157,0,2023-03-01T18:51:33.741903,1683263,1385,1839,-498,-1184,-779,-301,-66,164,-276
19264,158,0,2023-03-01T18:51:33.747692,1683269,1383,1834,-495,-1188,-779,-294,-58,176,-270
19265,159,0,2023-03-01T18:51:33.753256,1683275,1383,1834,-495,-1188,-779,-294,-58,176,-270
19266,160,0,2023-03-01T18:51:33.759084,1683280,1383,1834,-495,-1188,-779,-294,-58,176,-270
19267,161,0,2023-03-01T18:51:33.763973,1683286,1383,1834,-495,-1188,-779,-294,-58,176,-270
19268,162,0,2023-03-01T18:51:33.769606,1683291,1383,1841,-492,-1182,-774,-302,-58,176,-270
19269,163,0,2023-03-01T18:51:33.775880,1683297,1383,1841,-492,-1182,-774,-302,-58,176,-270
19270,164,0,2023-03-01T18:51:33.781439,1683303,1383,1841,-492,-1182,-774,-302,-58,176,-270
19271,165,0,2023-03-01T18:51:33.787067,1683309,1384,1839,-498,-1175,-783,-304,-58,176,-270
19272,166,0,2023-03-01T18:51:33.792766,1683314,1384,1839,-498,-1175,-783,-304,-58,176,-270
19273,167,0,2023-03-01T18:51:33.797956,1683319,1384,1839,-498,-1175,-783,-304,-58,176,-270
19274,168,0,2023-03-01T18:51:33.803071,1683324,1384,1839,-498,-1175,-783,-304,-58,176,-270
19275,169,0,2023-03-01T18:51:33.808523,1683331,1384,1837,-488,-1181,-770,-290,-58,176,-270
19276,170,0,2023-03-01T18:51:33.814401,1683336,1384,1837,-488,-1181,-770,-290,-58,176,-270
19277,171,0,2023-03-01T18:51:33.820284,1683342,1384,1837,-488,-1181,-770,-290,-58,176,-270
19278,172,0,2023-03-01T18:51:33.826164,1683348,1383,1838,-498,-1182,-777,-302,-58,176,-270
19279,173,0,2023-03-01T18:51:33.832136,1683353,1383,1838,-498,-1182,-777,-302,-58,176,-270
19280,174,0,2023-03-01T18:51:33.837782,1683359,1383,1838,-498,-1182,-777,-302,-58,176,-270
19281,175,0,2023-03-01T18:51:33.842543,1683364,1383,1838,-498,-1182,-777,-302,-58,176,-270
19282,176,0,2023-03-01T18:51:33.848922,1683369,1383,1837,-500,-1181,-785,-295,-58,176,-270
19283,177,0,2023-03-01T18:51:33.854854,1683377,1383,1837,-500,-1181,-785,-295,-58,176,-270
19284,178,0,2023-03-01T18:51:33.859916,1683381,1383,1837,-500,-1181,-785,-295,-58,176,-270
19285,179,0,2023-03-01T18:51:33.865400,1683387,1384,1837,-501,-1180,-785,-299,-58,176,-270
19286,180,0,2023-03-01T18:51:33.871054,1683392,1384,1837,-501,-1180,-785,-299,-58,176,-270
19287,181,0,2023-03-01T18:51:33.875879,1683397,1384,1837,-501,-1180,-785,-299,-58,176,-270
19288,182,0,2023-03-01T18:51:33.881450,1683403,1384,1837,-501,-1180,-785,-299,-58,176,-270
19289,183,0,2023-03-01T18:51:33.887275,1683408,1387,1843,-490,-1181,-776,-300,-64,170,-272
19290,184,0,2023-03-01T18:51:33.893161,1683415,1387,1843,-490,-1181,-776,-300,-64,170,-272
19291,185,0,2023-03-01T18:51:33.898227,1683420,1387,1843,-490,-1181,-776,-300,-64,170,-272
19292,186,0,2023-03-01T18:51:33.903703,1683425,1387,1843,-490,-1181,-776,-300,-64,170,-272
19293,187,0,2023-03-01T18:51:33.909046,1683430,1381,1837,-490,-1178,-784,-301,-64,170,-272
19294,188,0,2023-03-01T18:51:33.914978,1683436,1381,1837,-490,-1178,-784,-301,-64,170,-272
19295,189,0,2023-03-01T18:51:33.920035,1683441,1381,1837,-490,-1178,-784,-301,-64,170,-272
19296,190,0,2023-03-01T18:51:33.925606,1683447,1385,1837,-494,-1181,-787,-299,-64,170,-272
19297,191,0,2023-03-01T18:51:33.931279,1683452,1385,1837,-494,-1181,-787,-299,-64,170,-272
19298,192,0,2023-03-01T18:51:33.936493,1683459,1385,1837,-494,-1181,-787,-299,-64,170,-272
19299,193,0,2023-03-01T18:51:33.941678,1683463,1385,1837,-494,-1181,-787,-299,-64,170,-272
19300,194,0,2023-03-01T18:51:33.946173,1683468,1386,1839,-499,-1185,-792,-297,-64,170,-272
19301,195,0,2023-03-01T18:51:33.951650,1683473,1386,1839,-499,-1185,-792,-297,-64,170,-272
19302,196,0,2023-03-01T18:51:33.956457,1683478,1386,1839,-499,-1185,-792,-297,-64,170,-272
19303,197,0,2023-03-01T18:51:33.961726,1683483,1386,1839,-499,-1185,-792,-297,-64,170,-272
19304,198,0,2023-03-01T18:51:33.967457,1683489,1382,1835,-497,-1187,-787,-302,-64,170,-272
19305,199,0,2023-03-01T18:51:33.973192,1683494,1382,1835,-497,-1187,-787,-302,-64,170,-272
19306,200,0,2023-03-01T18:51:33.977984,1683500,1382,1835,-497,-1187,-787,-302,-64,170,-272
19307,201,0,2023-03-01T18:51:33.982822,1683505,1382,1835,-497,-1187,-787,-302,-64,170,-272
19308,202,0,2023-03-01T18:51:33.988410,1683510,1383,1837,-506,-1180,-781,-305,-64,170,-272
19309,203,0,2023-03-01T18:51:33.994145,1683516,1383,1837,-506,-1180,-781,-305,-64,170,-272
19310,204,0,2023-03-01T18:51:33.999671,1683521,1383,1837,-506,-1180,-781,-305,-64,170,-272
19311,205,0,2023-03-01T18:51:34.005018,1683526,1383,1837,-506,-1180,-781,-305,-64,170,-272
19312,206,0,2023-03-01T18:51:34.009771,1683531,1381,1839,-499,-1175,-773,-302,-62,168,-274
19313,207,0,2023-03-01T18:51:34.015235,1683536,1381,1839,-499,-1175,-773,-302,-62,168,-274
19314,208,0,2023-03-01T18:51:34.020038,1683542,1381,1839,-499,-1175,-773,-302,-62,168,-274
19315,209,0,2023-03-01T18:51:34.025584,1683548,1385,1838,-492,-1175,-780,-294,-62,168,-274
19316,210,0,2023-03-01T18:51:34.030878,1683553,1385,1838,-492,-1175,-780,-294,-62,168,-274
19317,211,0,2023-03-01T18:51:34.035612,1683557,1385,1838,-492,-1175,-780,-294,-62,168,-274
19318,212,0,2023-03-01T18:51:34.040834,1683562,1385,1838,-492,-1175,-780,-294,-62,168,-274
19319,213,0,2023-03-01T18:51:34.046756,1683568,1384,1835,-493,-1182,-789,-294,-62,168,-274
19320,214,0,2023-03-01T18:51:34.052294,1683574,1384,1835,-493,-1182,-789,-294,-62,168,-274
19321,215,0,2023-03-01T18:51:34.057080,1683579,1384,1835,-493,-1182,-789,-294,-62,168,-274
19322,216,0,2023-03-01T18:51:34.062285,1683584,1384,1835,-493,-1182,-789,-294,-62,168,-274
19323,217,0,2023-03-01T18:51:34.067520,1683590,1385,1835,-490,-1176,-787,-292,-62,168,-274
19324,218,0,2023-03-01T18:51:34.072927,1683595,1385,1835,-490,-1176,-787,-292,-62,168,-274
19325,219,0,2023-03-01T18:51:34.078392,1683600,1385,1835,-490,-1176,-787,-292,-62,168,-274
19326,220,0,2023-03-01T18:51:34.083355,1683605,1385,1835,-490,-1176,-787,-292,-62,168,-274
19327,221,0,2023-03-01T18:51:34.088365,1683610,1384,1840,-505,-1179,-784,-306,-62,168,-274
19328,222,0,2023-03-01T18:51:34.093501,1683615,1384,1840,-505,-1179,-784,-306,-62,168,-274
19329,223,0,2023-03-01T18:51:34.098739,1683620,1384,1840,-505,-1179,-784,-306,-62,168,-274
19330,224,0,2023-03-01T18:51:34.103682,1683625,1384,1840,-505,-1179,-784,-306,-62,168,-274
19331,225,0,2023-03-01T18:51:34.109309,1683631,1384,1837,-498,-1183,-779,-300,-62,168,-274
19332,226,0,2023-03-01T18:51:34.114462,1683636,1384,1837,-498,-1183,-779,-300,-62,168,-274
19333,227,0,2023-03-01T18:51:34.119612,1683641,1384,1837,-498,-1183,-779,-300,-62,168,-274
19334,228,0,2023-03-01T18:51:34.125030,1683647,1384,1837,-498,-1183,-779,-300,-62,168,-274
19335,229,0,2023-03-01T18:51:34.130054,1683651,1384,1835,-496,-1172,-779,-302,-62,168,-274
19336,230,0,2023-03-01T18:51:34.135526,1683657,1384,1835,-496,-1172,-779,-302,-62,168,-274
19337,231,0,2023-03-01T18:51:34.141088,1683662,1384,1835,-496,-1172,-779,-302,-62,168,-274
19338,232,0,2023-03-01T18:51:34.146610,1683668,1386,1839,-498,-1182,-785,-296,-65,169,-273
19339,233,0,2023-03-01T18:51:34.151962,1683674,1386,1839,-498,-1182,-785,-296,-65,169,-273
19340,234,0,2023-03-01T18:51:34.157044,1683679,1386,1839,-498,-1182,-785,-296,-65,169,-273
19341,235,0,2023-03-01T18:51:34.162122,1683684,1386,1839,-498,-1182,-785,-296,-65,169,-273
19342,236,0,2023-03-01T18:51:34.167348,1683689,1385,1836,-499,-1181,-777,-303,-65,169,-273
19343,237,0,2023-03-01T18:51:34.172925,1683695,1385,1836,-499,-1181,-777,-303,-65,169,-273
19344,238,0,2023-03-01T18:51:34.178352,1683700,1385,1836,-499,-1181,-777,-303,-65,169,-273
19345,239,0,2023-03-01T18:51:34.183246,1683704,1385,1836,-499,-1181,-777,-303,-65,169,-273
19346,240,0,2023-03-01T18:51:34.188460,1683710,1384,1836,-491,-1177,-771,-308,-65,169,-273
19347,241,0,2023-03-01T18:51:34.194036,1683716,1384,1836,-491,-1177,-771,-308,-65,169,-273
19348,242,0,2023-03-01T18:51:34.198580,1683721,1384,1836,-491,-1177,-771,-308,-65,169,-273
19349,243,0,2023-03-01T18:51:34.203957,1683725,1384,1836,-491,-1177,-771,-308,-65,169,-273
19350,244,0,2023-03-01T18:51:34.209452,1683731,1386,1840,-498,-1179,-776,-299,-65,169,-273
19351,245,0,2023-03-01T18:51:34.215012,1683737,1386,1840,-498,-1179,-776,-299,-65,169,-273
19352,246,0,2023-03-01T18:51:34.220099,1683741,1386,1840,-498,-1179,-776,-299,-65,169,-273
19353,247,0,2023-03-01T18:51:34.226309,1683748,1381,1836,-492,-1175,-783,-289,-65,169,-273
19354,248,0,2023-03-01T18:51:34.231921,1683753,1381,1836,-492,-1175,-783,-289,-65,169,-273
19355,249,0,2023-03-01T18:51:34.237251,1683759,1381,1836,-492,-1175,-783,-289,-65,169,-273
19356,250,0,2023-03-01T18:51:34.242277,1683764,1381,1836,-492,-1175,-783,-289,-65,169,-273
19357,251,0,2023-03-01T18:51:34.247988,1683770,1386,1840,-503,-1174,-787,-299,-65,169,-273
19358,252,0,2023-03-01T18:51:34.253523,1683775,1386,1840,-503,-1174,-787,-299,-65,169,-273
19359,253,0,2023-03-01T18:51:34.257996,1683780,1386,1840,-503,-1174,-787,-299,-65,169,-273
19360,254,0,2023-03-01T18:51:34.263083,1683784,1386,1840,-503,-1174,-787,-299,-65,169,-273
19361,255,0,2023-03-01T18:51:34.269020,1683790,1384,1838,-497,-1173,-780,-298,-64,176,-284
19362,256,0,2023-03-01T18:51:34.275083,1683796,1384,1838,-497,-1173,-780,-298,-64,176,-284
19363,257,0,2023-03-01T18:51:34.279916,1683802,1384,1838,-497,-1173,-780,-298,-64,176,-284
19364,258,0,2023-03-01T18:51:34.284829,1683807,1384,1838,-497,-1173,-780,-298,-64,176,-284
19365,259,0,2023-03-01T18:51:34.290320,1683812,1382,1837,-498,-1176,-791,-298,-64,176,-284
19366,260,0,2023-03-01T18:51:34.296252,1683818,1382,1837,-498,-1176,-791,-298,-64,176,-284
19367,261,0,2023-03-01T18:51:34.301135,1683822,1382,1837,-498,-1176,-791,-298,-64,176,-284
19368,262,0,2023-03-01T18:51:34.305954,1683827,1384,1840,-499,-1187,-802,-300,-64,176,-284
19369,263,0,2023-03-01T18:51:34.312616,1683833,1384,1840,-499,-1187,-802,-300,-64,176,-284
19370,264,0,2023-03-01T18:51:34.317536,1683840,1384,1840,-499,-1187,-802,-300,-64,176,-284
19371,265,0,2023-03-01T18:51:34.322651,1683845,1384,1840,-499,-1187,-802,-300,-64,176,-284
19372,266,0,2023-03-01T18:51:34.328460,1683850,1382,1837,-498,-1198,-802,-299,-64,176,-284
19373,267,0,2023-03-01T18:51:34.333701,1683856,1382,1837,-498,-1198,-802,-299,-64,176,-284
19374,268,0,2023-03-01T18:51:34.338687,1683860,1382,1837,-498,-1198,-802,-299,-64,176,-284
19375,269,0,2023-03-01T18:51:34.343640,1683865,1382,1837,-498,-1198,-802,-299,-64,176,-284
19376,270,0,2023-03-01T18:51:34.349254,1683871,1384,1835,-497,-1194,-795,-303,-64,176,-284
19377,271,0,2023-03-01T18:51:34.354919,1683876,1384,1835,-497,-1194,-795,-303,-64,176,-284
19378,272,0,2023-03-01T18:51:34.360078,1683881,1384,1835,-497,-1194,-795,-303,-64,176,-284
19379,273,0,2023-03-01T18:51:34.365373,1683887,1384,1835,-497,-1194,-795,-303,-64,176,-284
19380,274,0,2023-03-01T18:51:34.370563,1683892,1384,1833,-498,-1190,-783,-299,-64,176,-284
19381,275,0,2023-03-01T18:51:34.376719,1683898,1384,1833,-498,-1190,-783,-299,-64,176,-284
19382,276,0,2023-03-01T18:51:34.381741,1683903,1384,1833,-498,-1190,-783,-299,-64,176,-284
19383,277,0,2023-03-01T18:51:34.387254,1683909,1385,1835,-494,-1184,-786,-299,-64,176,-284
19384,278,0,2023-03-01T18:51:34.393410,1683914,1385,1835,-494,-1184,-786,-299,-64,176,-284
19385,279,0,2023-03-01T18:51:34.399334,1683920,1385,1835,-494,-1184,-786,-299,-64,176,-284
19386,280,0,2023-03-01T18:51:34.404152,1683926,1385,1835,-494,-1184,-786,-299,-64,176,-284
19387,281,0,2023-03-01T18:51:34.409692,1683932,1390,1840,-492,-1187,-795,-297,-64,166,-268
19388,282,0,2023-03-01T18:51:34.414878,1683937,1390,1840,-492,-1187,-795,-297,-64,166,-268
19389,283,0,2023-03-01T18:51:34.419984,1683942,1390,1840,-492,-1187,-795,-297,-64,166,-268
19390,284,0,2023-03-01T18:51:34.425061,1683947,1390,1840,-492,-1187,-795,-297,-64,166,-268
19391,285,0,2023-03-01T18:51:34.429925,1683951,1388,1839,-498,-1179,-789,-295,-64,166,-268
19392,286,0,2023-03-01T18:51:34.435812,1683957,1388,1839,-498,-1179,-789,-295,-64,166,-268
19393,287,0,2023-03-01T18:51:34.441566,1683963,1388,1839,-498,-1179,-789,-295,-64,166,-268
19394,288,0,2023-03-01T18:51:34.447247,1683969,1385,1834,-499,-1184,-791,-302,-64,166,-268
19395,289,0,2023-03-01T18:51:34.453031,1683975,1385,1834,-499,-1184,-791,-302,-64,166,-268
19396,290,0,2023-03-01T18:51:34.458430,1683980,1385,1834,-499,-1184,-791,-302,-64,166,-268
19397,291,0,2023-03-01T18:51:34.463412,1683985,1385,1834,-499,-1184,-791,-302,-64,166,-268
19398,292,0,2023-03-01T18:51:34.468942,1683991,1387,1834,-500,-1187,-790,-307,-64,166,-268
19399,293,0,2023-03-01T18:51:34.474125,1683996,1387,1834,-500,-1187,-790,-307,-64,166,-268
19400,294,0,2023-03-01T18:51:34.478840,1684000,1387,1834,-500,-1187,-790,-307,-64,166,-268
19401,295,0,2023-03-01T18:51:34.484211,1684005,1387,1834,-500,-1187,-790,-307,-64,166,-268
19402,296,0,2023-03-01T18:51:34.489841,1684012,1381,1835,-500,-1187,-791,-300,-64,166,-268
19403,297,0,2023-03-01T18:51:34.495627,1684018,1381,1835,-500,-1187,-791,-300,-64,166,-268
19404,298,0,2023-03-01T18:51:34.500483,1684023,1381,1835,-500,-1187,-791,-300,-64,166,-268
19405,299,0,2023-03-01T18:51:34.506290,1684028,1386,1841,-504,-1191,-785,-301,-64,166,-268
19406,300,0,2023-03-01T18:51:34.511847,1684033,1386,1841,-504,-1191,-785,-301,-64,166,-268
19407,301,0,2023-03-01T18:51:34.517038,1684039,1386,1841,-504,-1191,-785,-301,-64,166,-268
19408,302,0,2023-03-01T18:51:34.521907,1684043,1386,1841,-504,-1191,-785,-301,-64,166,-268
19409,303,0,2023-03-01T18:51:34.526982,1684048,1384,1842,-497,-1185,-782,-297,-61,167,-273
19410,304,0,2023-03-01T18:51:34.532328,1684054,1384,1842,-497,-1185,-782,-297,-61,167,-273
19411,305,0,2023-03-01T18:51:34.537147,1684059,1384,1842,-497,-1185,-782,-297,-61,167,-273
19412,306,0,2023-03-01T18:51:34.542069,1684064,1384,1842,-497,-1185,-782,-297,-61,167,-273
19413,307,0,2023-03-01T18:51:34.548006,1684069,1384,1838,-490,-1186,-783,-298,-61,167,-273
19414,308,0,2023-03-01T18:51:34.554453,1684076,1384,1838,-490,-1186,-783,-298,-61,167,-273
19415,309,0,2023-03-01T18:51:34.559481,1684081,1384,1838,-490,-1186,-783,-298,-61,167,-273
19416,310,0,2023-03-01T18:51:34.564366,1684086,1384,1838,-490,-1186,-783,-298,-61,167,-273
19417,311,0,2023-03-01T18:51:34.569841,1684091,1386,1835,-504,-1184,-784,-296,-61,167,-273
19418,312,0,2023-03-01T18:51:34.575391,1684098,1386,1835,-504,-1184,-784,-296,-61,167,-273
19419,313,0,2023-03-01T18:51:34.580843,1684103,1386,1835,-504,-1184,-784,-296,-61,167,-273
19420,314,0,2023-03-01T18:51:34.586095,1684108,1383,1837,-503,-1181,-796,-295,-61,167,-273
19421,315,0,2023-03-01T18:51:34.592016,1684113,1383,1837,-503,-1181,-796,-295,-61,167,-273
19422,316,0,2023-03-01T18:51:34.597290,1684119,1383,1837,-503,-1181,-796,-295,-61,167,-273
19423,317,0,2023-03-01T18:51:34.603057,1684124,1383,1837,-503,-1181,-796,-295,-61,167,-273
19424,318,0,2023-03-01T18:51:34.608702,1684130,1384,1837,-496,-1173,-794,-292,-61,167,-273
19425,319,0,2023-03-01T18:51:34.613881,1684135,1384,1837,-496,-1173,-794,-292,-61,167,-273
19426,320,0,2023-03-01T18:51:34.618958,1684141,1384,1837,-496,-1173,-794,-292,-61,167,-273
19427,321,0,2023-03-01T18:51:34.624004,1684146,1384,1837,-496,-1173,-794,-292,-61,167,-273
19428,322,0,2023-03-01T18:51:34.629833,1684151,1386,1839,-501,-1187,-793,-299,-61,167,-273
19429,323,0,2023-03-01T18:51:34.635438,1684157,1386,1839,-501,-1187,-793,-299,-61,167,-273
19430,324,0,2023-03-01T18:51:34.641022,1684163,1386,1839,-501,-1187,-793,-299,-61,167,-273
19431,325,0,2023-03-01T18:51:34.646471,1684168,1384,1836,-503,-1189,-793,-297,-72,162,-270
19432,326,0,2023-03-01T18:51:34.652395,1684173,1384,1836,-503,-1189,-793,-297,-72,162,-270
19433,327,0,2023-03-01T18:51:34.657463,1684178,1384,1836,-503,-1189,-793,-297,-72,162,-270
19434,328,0,2023-03-01T18:51:34.662491,1684185,1384,1836,-503,-1189,-793,-297,-72,162,-270
19435,329,0,2023-03-01T18:51:34.667715,1684190,1388,1837,-493,-1178,-772,-312,-72,162,-270
19436,330,0,2023-03-01T18:51:34.673809,1684196,1388,1837,-493,-1178,-772,-312,-72,162,-270
19437,331,0,2023-03-01T18:51:34.679790,1684201,1388,1837,-493,-1178,-772,-312,-72,162,-270
19438,332,0,2023-03-01T18:51:34.685405,1684207,1388,1837,-493,-1178,-772,-312,-72,162,-270
19439,333,0,2023-03-01T18:51:34.690369,1684212,1387,1837,-495,-1170,-772,-310,-72,162,-270
19440,334,0,2023-03-01T18:51:34.696124,1684217,1387,1837,-495,-1170,-772,-310,-72,162,-270
19441,335,0,2023-03-01T18:51:34.701394,1684222,1387,1837,-495,-1170,-772,-310,-72,162,-270
19442,336,0,2023-03-01T18:51:34.707973,1684230,1381,1836,-499,-1159,-758,-302,-72,162,-270
19443,337,0,2023-03-01T18:51:34.714032,1684236,1381,1836,-499,-1159,-758,-302,-72,162,-270
19444,338,0,2023-03-01T18:51:34.720294,1684242,1381,1836,-499,-1159,-758,-302,-72,162,-270
19445,339,0,2023-03-01T18:51:34.726160,1684248,1386,1838,-500,-1162,-764,-299,-72,162,-270
19446,340,0,2023-03-01T18:51:34.731719,1684253,1386,1838,-500,-1162,-764,-299,-72,162,-270
19447,341,0,2023-03-01T18:51:34.737197,1684258,1386,1838,-500,-1162,-764,-299,-72,162,-270
19448,342,0,2023-03-01T18:51:34.742395,1684263,1386,1838,-500,-1162,-764,-299,-72,162,-270
19449,343,0,2023-03-01T18:51:34.748605,1684270,1385,1838,-501,-1167,-763,-297,-72,162,-270
19450,344,0,2023-03-01T18:51:34.754665,1684276,1385,1838,-501,-1167,-763,-297,-72,162,-270
19451,345,0,2023-03-01T18:51:34.760716,1684282,1385,1838,-501,-1167,-763,-297,-72,162,-270
19452,346,0,2023-03-01T18:51:34.766435,1684288,1387,1835,-497,-1179,-768,-303,-72,162,-270
19453,347,0,2023-03-01T18:51:34.772654,1684294,1387,1835,-497,-1179,-768,-303,-72,162,-270
19454,348,0,2023-03-01T18:51:34.777914,1684299,1387,1835,-497,-1179,-768,-303,-72,162,-270
19455,349,0,2023-03-01T18:51:34.783577,1684305,1387,1835,-497,-1179,-768,-303,-72,162,-270
19456,350,0,2023-03-01T18:51:34.789574,1684311,1386,1840,-492,-1183,-771,-303,-66,164,-272
19457,351,0,2023-03-01T18:51:34.795527,1684317,1386,1840,-492,-1183,-771,-303,-66,164,-272
19458,352,0,2023-03-01T18:51:34.801228,1684323,1386,1840,-492,-1183,-771,-303,-66,164,-272
19459,353,0,2023-03-01T18:51:34.807283,1684329,1384,1832,-499,-1178,-768,-310,-66,164,-272
19460,354,0,2023-03-01T18:51:34.813351,1684335,1384,1832,-499,-1178,-768,-310,-66,164,-272
19461,355,0,2023-03-01T18:51:34.818297,1684340,1384,1832,-499,-1178,-768,-310,-66,164,-272
19462,356,0,2023-03-01T18:51:34.823692,1684345,1384,1832,-499,-1178,-768,-310,-66,164,-272
19463,357,0,2023-03-01T18:51:34.829947,1684352,1387,1838,-500,-1182,-770,-310,-66,164,-272
19464,358,0,2023-03-01T18:51:34.835480,1684358,1387,1838,-500,-1182,-770,-310,-66,164,-272
19465,359,0,2023-03-01T18:51:34.840078,1684362,1387,1838,-500,-1182,-770,-310,-66,164,-272
19466,360,0,2023-03-01T18:51:34.845550,1684367,1387,1838,-500,-1182,-770,-310,-66,164,-272
19467,361,0,2023-03-01T18:51:34.850836,1684372,1387,1836,-499,-1171,-766,-310,-66,164,-272
19468,362,0,2023-03-01T18:51:34.856897,1684378,1387,1836,-499,-1171,-766,-310,-66,164,-272
19469,363,0,2023-03-01T18:51:34.861922,1684383,1387,1836,-499,-1171,-766,-310,-66,164,-272
19470,364,0,2023-03-01T18:51:34.867455,1684389,1386,1836,-498,-1161,-780,-302,-66,164,-272
19471,365,0,2023-03-01T18:51:34.872816,1684395,1386,1836,-498,-1161,-780,-302,-66,164,-272
19472,366,0,2023-03-01T18:51:34.878462,1684400,1386,1836,-498,-1161,-780,-302,-66,164,-272
19473,367,0,2023-03-01T18:51:34.883960,1684406,1386,1836,-498,-1161,-780,-302,-66,164,-272
19474,368,0,2023-03-01T18:51:34.889288,1684411,1386,1838,-503,-1171,-777,-299,-66,164,-272
19475,369,0,2023-03-01T18:51:34.895060,1684416,1386,1838,-503,-1171,-777,-299,-66,164,-272
19476,370,0,2023-03-01T18:51:34.901108,1684422,1386,1838,-503,-1171,-777,-299,-66,164,-272
19477,371,0,2023-03-01T18:51:34.906981,1684428,1384,1832,-498,-1169,-766,-302,-65,165,-269
19478,372,0,2023-03-01T18:51:34.912616,1684434,1384,1832,-498,-1169,-766,-302,-65,165,-269
19479,373,0,2023-03-01T18:51:34.918017,1684440,1384,1832,-498,-1169,-766,-302,-65,165,-269
19480,374,0,2023-03-01T18:51:34.923961,1684446,1384,1832,-498,-1169,-766,-302,-65,165,-269
19481,375,0,2023-03-01T18:51:34.929981,1684452,1389,1839,-499,-1179,-770,-308,-65,165,-269
19482,376,0,2023-03-01T18:51:34.936098,1684457,1389,1839,-499,-1179,-770,-308,-65,165,-269
19483,377,0,2023-03-01T18:51:34.941746,1684463,1389,1839,-499,-1179,-770,-308,-65,165,-269
19484,378,0,2023-03-01T18:51:34.947266,1684469,1385,1842,-497,-1182,-775,-299,-65,165,-269
19485,379,0,2023-03-01T18:51:34.952829,1684474,1385,1842,-497,-1182,-775,-299,-65,165,-269
19486,380,0,2023-03-01T18:51:34.959036,1684481,1385,1842,-497,-1182,-775,-299,-65,165,-269
19487,381,0,2023-03-01T18:51:34.964075,1684486,1385,1842,-497,-1182,-775,-299,-65,165,-269
19488,382,0,2023-03-01T18:51:34.969669,1684492,1383,1834,-500,-1184,-778,-298,-65,165,-269
19489,383,0,2023-03-01T18:51:34.974954,1684497,1383,1834,-500,-1184,-778,-298,-65,165,-269
19490,384,0,2023-03-01T18:51:34.980505,1684502,1383,1834,-500,-1184,-778,-298,-65,165,-269
19491,385,0,2023-03-01T18:51:34.986221,1684507,1383,1834,-500,-1184,-778,-298,-65,165,-269
19492,386,0,2023-03-01T18:51:34.991525,1684512,1385,1839,-502,-1184,-778,-300,-65,165,-269
19493,387,0,2023-03-01T18:51:34.997982,1684519,1385,1839,-502,-1184,-778,-300,-65,165,-269
19494,388,0,2023-03-01T18:51:35.002823,1684525,1385,1839,-502,-1184,-778,-300,-65,165,-269
19495,389,0,2023-03-01T18:51:35.007805,1684530,1385,1834,-499,-1172,-768,-310,-65,165,-269
19496,390,0,2023-03-01T18:51:35.013577,1684535,1385,1834,-499,-1172,-768,-310,-65,165,-269
19497,391,0,2023-03-01T18:51:35.018494,1684540,1385,1834,-499,-1172,-768,-310,-65,165,-269
19498,392,0,2023-03-01T18:51:35.023103,1684545,1385,1834,-499,-1172,-768,-310,-65,165,-269
19499,393,0,2023-03-01T18:51:35.028966,1684550,1385,1837,-499,-1160,-771,-299,-65,165,-269
19500,394,0,2023-03-01T18:51:35.035340,1684557,1385,1837,-499,-1160,-771,-299,-65,165,-269
19501,395,0,2023-03-01T18:51:35.040293,1684562,1385,1837,-499,-1160,-771,-299,-65,165,-269
19502,396,0,2023-03-01T18:51:35.046524,1684568,1385,1837,-499,-1160,-771,-299,-65,165,-269
19503,397,0,2023-03-01T18:51:35.051630,1684574,1387,1836,-499,-1168,-775,-304,-62,170,-284
19504,398,0,2023-03-01T18:51:35.056981,1684579,1387,1836,-499,-1168,-775,-304,-62,170,-284
19505,399,0,2023-03-01T18:51:35.061891,1684584,1387,1836,-499,-1168,-775,-304,-62,170,-284
19506,400,0,2023-03-01T18:51:35.067513,1684589,1386,1835,-497,-1171,-768,-302,-62,170,-284
19507,401,0,2023-03-01T18:51:35.073484,1684595,1386,1835,-497,-1171,-768,-302,-62,170,-284
19508,402,0,2023-03-01T18:51:35.078982,1684600,1386,1835,-497,-1171,-768,-302,-62,170,-284
19509,403,0,2023-03-01T18:51:35.083656,1684605,1386,1835,-497,-1171,-768,-302,-62,170,-284
19510,404,0,2023-03-01T18:51:35.088769,1684611,1388,1834,-503,-1188,-786,-306,-62,170,-284
19511,405,0,2023-03-01T18:51:35.093809,1684616,1388,1834,-503,-1188,-786,-306,-62,170,-284
19512,406,0,2023-03-01T18:51:35.099443,1684621,1388,1834,-503,-1188,-786,-306,-62,170,-284
19513,407,0,2023-03-01T18:51:35.104115,1684626,1388,1834,-503,-1188,-786,-306,-62,170,-284
19514,408,0,2023-03-01T18:51:35.109712,1684631,1389,1838,-500,-1195,-793,-303,-62,170,-284
19515,409,0,2023-03-01T18:51:35.114851,1684637,1389,1838,-500,-1195,-793,-303,-62,170,-284
19516,410,0,2023-03-01T18:51:35.119659,1684641,1389,1838,-500,-1195,-793,-303,-62,170,-284
19517,411,0,2023-03-01T18:51:35.125232,1684646,1389,1838,-500,-1195,-793,-303,-62,170,-284
19518,412,0,2023-03-01T18:51:35.130002,1684652,1386,1835,-497,-1193,-789,-301,-62,170,-284
19519,413,0,2023-03-01T18:51:35.135279,1684657,1386,1835,-497,-1193,-789,-301,-62,170,-284
19520,414,0,2023-03-01T18:51:35.140105,1684662,1386,1835,-497,-1193,-789,-301,-62,170,-284
19521,415,0,2023-03-01T18:51:35.145620,1684668,1386,1835,-497,-1193,-789,-301,-62,170,-284
19522,416,0,2023-03-01T18:51:35.150551,1684672,1388,1841,-502,-1197,-790,-305,-62,170,-284
19523,417,0,2023-03-01T18:51:35.156317,1684678,1388,1841,-502,-1197,-790,-305,-62,170,-284
19524,418,0,2023-03-01T18:51:35.162038,1684683,1388,1841,-502,-1197,-790,-305,-62,170,-284
19525,419,0,2023-03-01T18:51:35.167635,1684689,1384,1836,-499,-1175,-781,-295,-58,174,-280
19526,420,0,2023-03-01T18:51:35.172804,1684695,1384,1836,-499,-1175,-781,-295,-58,174,-280
19527,421,0,2023-03-01T18:51:35.177768,1684700,1384,1836,-499,-1175,-781,-295,-58,174,-280
19528,422,0,2023-03-01T18:51:35.182673,1684705,1384,1836,-499,-1175,-781,-295,-58,174,-280
19529,423,0,2023-03-01T18:51:35.188676,1684710,1387,1837,-503,-1178,-784,-306,-58,174,-280
19530,424,0,2023-03-01T18:51:35.194422,1684716,1387,1837,-503,-1178,-784,-306,-58,174,-280
19531,425,0,2023-03-01T18:51:35.199850,1684722,1387,1837,-503,-1178,-784,-306,-58,174,-280
19532,426,0,2023-03-01T18:51:35.205031,1684727,1387,1837,-503,-1178,-784,-306,-58,174,-280
19533,427,0,2023-03-01T18:51:35.209848,1684731,1391,1837,-507,-1185,-783,-301,-58,174,-280
19534,428,0,2023-03-01T18:51:35.215242,1684737,1391,1837,-507,-1185,-783,-301,-58,174,-280
19535,429,0,2023-03-01T18:51:35.220873,1684743,1391,1837,-507,-1185,-783,-301,-58,174,-280
19536,430,0,2023-03-01T18:51:35.226859,1684749,1386,1836,-500,-1188,-790,-297,-58,174,-280
19537,431,0,2023-03-01T18:51:35.232003,1684754,1386,1836,-500,-1188,-790,-297,-58,174,-280
19538,432,0,2023-03-01T18:51:35.237091,1684759,1386,1836,-500,-1188,-790,-297,-58,174,-280
19539,433,0,2023-03-01T18:51:35.242371,1684764,1386,1836,-500,-1188,-790,-297,-58,174,-280
19540,434,0,2023-03-01T18:51:35.246898,1684768,1387,1834,-502,-1192,-791,-293,-58,174,-280
19541,435,0,2023-03-01T18:51:35.252625,1684774,1387,1834,-502,-1192,-791,-293,-58,174,-280
19542,436,0,2023-03-01T18:51:35.257594,1684780,1387,1834,-502,-1192,-791,-293,-58,174,-280
19543,437,0,2023-03-01T18:51:35.262474,1684785,1387,1834,-502,-1192,-791,-293,-58,174,-280
19544,438,0,2023-03-01T18:51:35.267524,1684789,1388,1835,-505,-1197,-794,-297,-58,174,-280
19545,439,0,2023-03-01T18:51:35.273625,1684795,1388,1835,-505,-1197,-794,-297,-58,174,-280
19546,440,0,2023-03-01T18:51:35.279232,1684801,1388,1835,-505,-1197,-794,-297,-58,174,-280
19547,441,0,2023-03-01T18:51:35.284058,1684806,1388,1835,-505,-1197,-794,-297,-58,174,-280
19548,442,0,2023-03-01T18:51:35.289615,1684811,1388,1834,-502,-1198,-795,-304,-58,174,-280
19549,443,0,2023-03-01T18:51:35.295467,1684817,1388,1834,-502,-1198,-795,-304,-58,174,-280
19550,444,0,2023-03-01T18:51:35.300371,1684822,1388,1834,-502,-1198,-795,-304,-58,174,-280
19551,445,0,2023-03-01T18:51:35.305940,1684828,1388,1834,-502,-1198,-795,-304,-58,174,-280
19552,446,0,2023-03-01T18:51:35.310806,1684833,1387,1836,-503,-1189,-798,-296,-63,169,-267
19553,447,0,2023-03-01T18:51:35.316183,1684838,1387,1836,-503,-1189,-798,-296,-63,169,-267
19554,448,0,2023-03-01T18:51:35.321249,1684843,1387,1836,-503,-1189,-798,-296,-63,169,-267
19555,449,0,2023-03-01T18:51:35.326950,1684848,1386,1834,-499,-1185,-793,-298,-63,169,-267
19556,450,0,2023-03-01T18:51:35.332773,1684854,1386,1834,-499,-1185,-793,-298,-63,169,-267
19557,451,0,2023-03-01T18:51:35.338259,1684859,1386,1834,-499,-1185,-793,-298,-63,169,-267
19558,452,0,2023-03-01T18:51:35.342982,1684865,1386,1834,-499,-1185,-793,-298,-63,169,-267
19559,453,0,2023-03-01T18:51:35.348448,1684870,1389,1839,-503,-1191,-794,-299,-63,169,-267
19560,454,0,2023-03-01T18:51:35.354016,1684876,1389,1839,-503,-1191,-794,-299,-63,169,-267
19561,455,0,2023-03-01T18:51:35.359019,1684881,1389,1839,-503,-1191,-794,-299,-63,169,-267
19562,456,0,2023-03-01T18:51:35.364198,1684886,1389,1839,-503,-1191,-794,-299,-63,169,-267
19563,457,0,2023-03-01T18:51:35.370070,1684891,1388,1837,-504,-1191,-795,-306,-63,169,-267
19564,458,0,2023-03-01T18:51:35.375452,1684897,1388,1837,-504,-1191,-795,-306,-63,169,-267
19565,459,0,2023-03-01T18:51:35.381468,1684902,1388,1837,-504,-1191,-795,-306,-63,169,-267
19566,460,0,2023-03-01T18:51:35.387328,1684909,1385,1835,-502,-1190,-805,-298,-63,169,-267
19567,461,0,2023-03-01T18:51:35.393274,1684915,1385,1835,-502,-1190,-805,-298,-63,169,-267
19568,462,0,2023-03-01T18:51:35.398635,1684920,1385,1835,-502,-1190,-805,-298,-63,169,-267
19569,463,0,2023-03-01T18:51:35.403107,1684925,1385,1835,-502,-1190,-805,-298,-63,169,-267
19570,464,0,2023-03-01T18:51:35.408138,1684930,1388,1833,-502,-1197,-807,-298,-63,169,-267
19571,465,0,2023-03-01T18:51:35.413996,1684935,1388,1833,-502,-1197,-807,-298,-63,169,-267
19572,466,0,2023-03-01T18:51:35.419416,1684941,1388,1833,-502,-1197,-807,-298,-63,169,-267
19573,467,0,2023-03-01T18:51:35.424524,1684946,1388,1833,-502,-1197,-807,-298,-63,169,-267
19574,468,0,2023-03-01T18:51:35.430368,1684952,1384,1837,-494,-1193,-803,-296,-63,167,-275
19575,469,0,2023-03-01T18:51:35.435720,1684958,1384,1837,-494,-1193,-803,-296,-63,167,-275
19576,470,0,2023-03-01T18:51:35.441167,1684963,1384,1837,-494,-1193,-803,-296,-63,167,-275
19577,471,0,2023-03-01T18:51:35.447106,1684969,1388,1836,-489,-1198,-801,-302,-63,167,-275
19578,472,0,2023-03-01T18:51:35.452686,1684974,1388,1836,-489,-1198,-801,-302,-63,167,-275
19579,473,0,2023-03-01T18:51:35.457375,1684979,1388,1836,-489,-1198,-801,-302,-63,167,-275
19580,474,0,2023-03-01T18:51:35.462164,1684983,1388,1836,-489,-1198,-801,-302,-63,167,-275
19581,475,0,2023-03-01T18:51:35.467684,1684989,1389,1840,-501,-1204,-806,-296,-63,167,-275
19582,476,0,2023-03-01T18:51:35.473175,1684995,1389,1840,-501,-1204,-806,-296,-63,167,-275
19583,477,0,2023-03-01T18:51:35.479199,1685001,1389,1840,-501,-1204,-806,-296,-63,167,-275
19584,478,0,2023-03-01T18:51:35.484410,1685006,1389,1840,-501,-1204,-806,-296,-63,167,-275
19585,479,0,2023-03-01T18:51:35.490179,1685012,1386,1836,-504,-1189,-796,-294,-63,167,-275
19586,480,0,2023-03-01T18:51:35.495835,1685017,1386,1836,-504,-1189,-796,-294,-63,167,-275
19587,481,0,2023-03-01T18:51:35.500447,1685022,1386,1836,-504,-1189,-796,-294,-63,167,-275
19588,482,0,2023-03-01T18:51:35.506373,1685028,1386,1836,-504,-1189,-796,-294,-63,167,-275
19589,483,0,2023-03-01T18:51:35.511516,1685033,1390,1836,-503,-1182,-799,-295,-63,167,-275
19590,484,0,2023-03-01T18:51:35.516731,1685039,1390,1836,-503,-1182,-799,-295,-63,167,-275
19591,485,0,2023-03-01T18:51:35.521504,1685043,1390,1836,-503,-1182,-799,-295,-63,167,-275
19592,486,0,2023-03-01T18:51:35.527333,1685049,1389,1835,-504,-1174,-794,-297,-63,167,-275
19593,487,0,2023-03-01T18:51:35.533099,1685055,1389,1835,-504,-1174,-794,-297,-63,167,-275
19594,488,0,2023-03-01T18:51:35.538104,1685060,1389,1835,-504,-1174,-794,-297,-63,167,-275
19595,489,0,2023-03-01T18:51:35.542564,1685064,1389,1835,-504,-1174,-794,-297,-63,167,-275
19596,490,0,2023-03-01T18:51:35.547566,1685069,1387,1829,-499,-1172,-789,-295,-64,162,-272
19597,491,0,2023-03-01T18:51:35.552898,1685074,1387,1829,-499,-1172,-789,-295,-64,162,-272
19598,492,0,2023-03-01T18:51:35.558691,1685081,1387,1829,-499,-1172,-789,-295,-64,162,-272
19599,493,0,2023-03-01T18:51:35.563421,1685085,1387,1829,-499,-1172,-789,-295,-64,162,-272
