,Unnamed: 0,imu,server_time,arduino_time,ax,ay,az,gx,gy,gz,mx,my,mz
19600,494,0,2023-03-01T18:51:35.568870,1685091,1387,1836,-504,-1187,-793,-303,-64,162,-272
19601,495,0,2023-03-01T18:51:35.574245,1685096,1387,1836,-504,-1187,-793,-303,-64,162,-272
19602,496,0,2023-03-01T18:51:35.579701,1685101,1387,1836,-504,-1187,-793,-303,-64,162,-272
19603,497,0,2023-03-01T18:51:35.585027,1685106,1387,1836,-504,-1187,-793,-303,-64,162,-272
19604,498,0,2023-03-01T18:51:35.590789,1685112,1388,1834,-502,-1189,-798,-294,-64,162,-272
19605,499,0,2023-03-01T18:51:35.596262,1685117,1388,1834,-502,-1189,-798,-294,-64,162,-272
19606,500,0,2023-03-01T18:51:35.602106,1685124,1388,1834,-502,-1189,-798,-294,-64,162,-272
19607,501,0,2023-03-01T18:51:35.607861,1685130,1387,1834,-500,-1194,-804,-302,-64,162,-272
19608,502,0,2023-03-01T18:51:35.613334,1685135,1387,1834,-500,-1194,-804,-302,-64,162,-272
19609,503,0,2023-03-01T18:51:35.619088,1685141,1387,1834,-500,-1194,-804,-302,-64,162,-272
19610,504,0,2023-03-01T18:51:35.623979,1685146,1387,1834,-500,-1194,-804,-302,-64,162,-272
19611,505,0,2023-03-01T18:51:35.629649,1685151,1389,1836,-504,-1206,-810,-303,-64,162,-272
19612,506,0,2023-03-01T18:51:35.635378,1685157,1389,1836,-504,-1206,-810,-303,-64,162,-272
19613,507,0,2023-03-01T18:51:35.640434,1685161,1389,1836,-504,-1206,-810,-303,-64,162,-272
19614,508,0,2023-03-01T18:51:35.645878,1685168,1389,1836,-504,-1206,-810,-303,-64,162,-272
19615,509,0,2023-03-01T18:51:35.651060,1685173,1386,1832,-494,-1197,-791,-297,-64,162,-272
19616,510,0,2023-03-01T18:51:35.656351,1685178,1386,1832,-494,-1197,-791,-297,-64,162,-272
19617,511,0,2023-03-01T18:51:35.661974,1685184,1386,1832,-494,-1197,-791,-297,-64,162,-272
19618,512,0,2023-03-01T18:51:35.667577,1685189,1389,1837,-507,-1199,-789,-297,-64,162,-272
19619,513,0,2023-03-01T18:51:35.673301,1685195,1389,1837,-507,-1199,-789,-297,-64,162,-272
19620,514,0,2023-03-01T18:51:35.679010,1685200,1389,1837,-507,-1199,-789,-297,-64,162,-272
19621,515,0,2023-03-01T18:51:35.683827,1685206,1389,1837,-507,-1199,-789,-297,-64,162,-272
19622,516,0,2023-03-01T18:51:35.690500,1685211,1387,1836,-498,-1185,-794,-297,-62,166,-270
19623,517,0,2023-03-01T18:51:35.696987,1685219,1387,1836,-498,-1185,-794,-297,-62,166,-270
19624,518,0,2023-03-01T18:51:35.703109,1685225,1387,1836,-498,-1185,-794,-297,-62,166,-270
19625,519,0,2023-03-01T18:51:35.709016,1685231,1385,1832,-496,-1181,-794,-297,-62,166,-270
19626,520,0,2023-03-01T18:51:35.714514,1685236,1385,1832,-496,-1181,-794,-297,-62,166,-270
19627,521,0,2023-03-01T18:51:35.719536,1685241,1385,1832,-496,-1181,-794,-297,-62,166,-270
19628,522,0,2023-03-01T18:51:35.724748,1685246,1385,1832,-496,-1181,-794,-297,-62,166,-270
19629,523,0,2023-03-01T18:51:35.730308,1685252,1390,1838,-500,-1182,-787,-300,-62,166,-270
19630,524,0,2023-03-01T18:51:35.736620,1685258,1390,1838,-500,-1182,-787,-300,-62,166,-270
19631,525,0,2023-03-01T18:51:35.741925,1685264,1390,1838,-500,-1182,-787,-300,-62,166,-270
19632,526,0,2023-03-01T18:51:35.747466,1685269,1389,1835,-507,-1184,-780,-303,-62,166,-270
19633,527,0,2023-03-01T18:51:35.753057,1685275,1389,1835,-507,-1184,-780,-303,-62,166,-270
19634,528,0,2023-03-01T18:51:35.758650,1685280,1389,1835,-507,-1184,-780,-303,-62,166,-270
19635,529,0,2023-03-01T18:51:35.763274,1685285,1389,1835,-507,-1184,-780,-303,-62,166,-270
19636,530,0,2023-03-01T18:51:35.769123,1685291,1388,1832,-498,-1183,-776,-307,-62,166,-270
19637,531,0,2023-03-01T18:51:35.774675,1685296,1388,1832,-498,-1183,-776,-307,-62,166,-270
19638,532,0,2023-03-01T18:51:35.779166,1685301,1388,1832,-498,-1183,-776,-307,-62,166,-270
19639,533,0,2023-03-01T18:51:35.784527,1685306,1388,1832,-498,-1183,-776,-307,-62,166,-270
19640,534,0,2023-03-01T18:51:35.790127,1685312,1391,1835,-499,-1187,-782,-301,-62,166,-270
19641,535,0,2023-03-01T18:51:35.795894,1685317,1391,1835,-499,-1187,-782,-301,-62,166,-270
19642,536,0,2023-03-01T18:51:35.801124,1685323,1391,1835,-499,-1187,-782,-301,-62,166,-270
19643,537,0,2023-03-01T18:51:35.806787,1685328,1391,1835,-499,-1187,-782,-301,-62,166,-270
19644,538,0,2023-03-01T18:51:35.811399,1685334,1384,1835,-503,-1185,-783,-296,-65,165,-275
19645,539,0,2023-03-01T18:51:35.816967,1685339,1384,1835,-503,-1185,-783,-296,-65,165,-275
19646,540,0,2023-03-01T18:51:35.823159,1685345,1384,1835,-503,-1185,-783,-296,-65,165,-275
19647,541,0,2023-03-01T18:51:35.828987,1685351,1388,1835,-506,-1181,-783,-302,-65,165,-275
19648,542,0,2023-03-01T18:51:35.834319,1685356,1388,1835,-506,-1181,-783,-302,-65,165,-275
19649,543,0,2023-03-01T18:51:35.839024,1685361,1388,1835,-506,-1181,-783,-302,-65,165,-275
19650,544,0,2023-03-01T18:51:35.844272,1685365,1388,1835,-506,-1181,-783,-302,-65,165,-275
19651,545,0,2023-03-01T18:51:35.850422,1685372,1387,1837,-501,-1170,-765,-299,-65,165,-275
19652,546,0,2023-03-01T18:51:35.856055,1685378,1387,1837,-501,-1170,-765,-299,-65,165,-275
19653,547,0,2023-03-01T18:51:35.861857,1685383,1387,1837,-501,-1170,-765,-299,-65,165,-275
19654,548,0,2023-03-01T18:51:35.867249,1685389,1387,1837,-501,-1170,-765,-299,-65,165,-275
19655,549,0,2023-03-01T18:51:35.872488,1685394,1387,1836,-501,-1163,-778,-302,-65,165,-275
19656,550,0,2023-03-01T18:51:35.878138,1685400,1387,1836,-501,-1163,-778,-302,-65,165,-275
19657,551,0,2023-03-01T18:51:35.884141,1685406,1387,1836,-501,-1163,-778,-302,-65,165,-275
19658,552,0,2023-03-01T18:51:35.889531,1685411,1390,1836,-503,-1173,-776,-310,-65,165,-275
19659,553,0,2023-03-01T18:51:35.895403,1685416,1390,1836,-503,-1173,-776,-310,-65,165,-275
19660,554,0,2023-03-01T18:51:35.900288,1685422,1390,1836,-503,-1173,-776,-310,-65,165,-275
19661,555,0,2023-03-01T18:51:35.905600,1685428,1390,1836,-503,-1173,-776,-310,-65,165,-275
19662,556,0,2023-03-01T18:51:35.911412,1685432,1383,1837,-505,-1169,-759,-299,-65,165,-275
19663,557,0,2023-03-01T18:51:35.917301,1685439,1383,1837,-505,-1169,-759,-299,-65,165,-275
19664,558,0,2023-03-01T18:51:35.922139,1685444,1383,1837,-505,-1169,-759,-299,-65,165,-275
19665,559,0,2023-03-01T18:51:35.927692,1685449,1383,1837,-505,-1169,-759,-299,-65,165,-275
19666,560,0,2023-03-01T18:51:35.933178,1685454,1387,1837,-501,-1167,-753,-303,-65,165,-275
19667,561,0,2023-03-01T18:51:35.938794,1685460,1387,1837,-501,-1167,-753,-303,-65,165,-275
19668,562,0,2023-03-01T18:51:35.944386,1685466,1387,1837,-501,-1167,-753,-303,-65,165,-275
19669,563,0,2023-03-01T18:51:35.949882,1685472,1390,1837,-497,-1169,-762,-310,-59,163,-273
19670,564,0,2023-03-01T18:51:35.955925,1685478,1390,1837,-497,-1169,-762,-310,-59,163,-273
19671,565,0,2023-03-01T18:51:35.960551,1685482,1390,1837,-497,-1169,-762,-310,-59,163,-273
19672,566,0,2023-03-01T18:51:35.966275,1685488,1390,1837,-497,-1169,-762,-310,-59,163,-273
19673,567,0,2023-03-01T18:51:35.971508,1685493,1386,1832,-503,-1174,-769,-306,-59,163,-273
19674,568,0,2023-03-01T18:51:35.977241,1685498,1386,1832,-503,-1174,-769,-306,-59,163,-273
19675,569,0,2023-03-01T18:51:35.981732,1685504,1386,1832,-503,-1174,-769,-306,-59,163,-273
19676,570,0,2023-03-01T18:51:35.987283,1685509,1386,1832,-503,-1174,-769,-306,-59,163,-273
19677,571,0,2023-03-01T18:51:35.991979,1685514,1391,1836,-505,-1185,-782,-297,-59,163,-273
19678,572,0,2023-03-01T18:51:35.997401,1685519,1391,1836,-505,-1185,-782,-297,-59,163,-273
19679,573,0,2023-03-01T18:51:36.002059,1685524,1391,1836,-505,-1185,-782,-297,-59,163,-273
19680,574,0,2023-03-01T18:51:36.006988,1685528,1391,1836,-505,-1185,-782,-297,-59,163,-273
19681,575,0,2023-03-01T18:51:36.012110,1685534,1391,1833,-509,-1185,-785,-307,-59,163,-273
19682,576,0,2023-03-01T18:51:36.017756,1685539,1391,1833,-509,-1185,-785,-307,-59,163,-273
19683,577,0,2023-03-01T18:51:36.022422,1685544,1391,1833,-509,-1185,-785,-307,-59,163,-273
19684,578,0,2023-03-01T18:51:36.028184,1685550,1387,1831,-499,-1191,-784,-301,-59,163,-273
19685,579,0,2023-03-01T18:51:36.033855,1685556,1387,1831,-499,-1191,-784,-301,-59,163,-273
19686,580,0,2023-03-01T18:51:36.039612,1685561,1387,1831,-499,-1191,-784,-301,-59,163,-273
19687,581,0,2023-03-01T18:51:36.044200,1685566,1387,1831,-499,-1191,-784,-301,-59,163,-273
19688,582,0,2023-03-01T18:51:36.049253,1685571,1388,1836,-506,-1180,-792,-298,-59,163,-273
19689,583,0,2023-03-01T18:51:36.054772,1685576,1388,1836,-506,-1180,-792,-298,-59,163,-273
19690,584,0,2023-03-01T18:51:36.059544,1685581,1388,1836,-506,-1180,-792,-298,-59,163,-273
19691,585,0,2023-03-01T18:51:36.064395,1685586,1388,1836,-506,-1180,-792,-298,-59,163,-273
19692,586,0,2023-03-01T18:51:36.070129,1685592,1388,1834,-499,-1183,-791,-294,-65,161,-277
19693,587,0,2023-03-01T18:51:36.075322,1685597,1388,1834,-499,-1183,-791,-294,-65,161,-277
19694,588,0,2023-03-01T18:51:36.080336,1685602,1388,1834,-499,-1183,-791,-294,-65,161,-277
19695,589,0,2023-03-01T18:51:36.085693,1685607,1388,1834,-499,-1183,-791,-294,-65,161,-277
19696,590,0,2023-03-01T18:51:36.090776,1685612,1389,1836,-492,-1189,-796,-295,-65,161,-277
19697,591,0,2023-03-01T18:51:36.096301,1685618,1389,1836,-492,-1189,-796,-295,-65,161,-277
19698,592,0,2023-03-01T18:51:36.101051,1685622,1389,1836,-492,-1189,-796,-295,-65,161,-277
19699,593,0,2023-03-01T18:51:36.106323,1685628,1389,1836,-492,-1189,-796,-295,-65,161,-277
19700,594,0,2023-03-01T18:51:36.110938,1685633,1383,1836,-507,-1184,-798,-298,-65,161,-277
19701,595,0,2023-03-01T18:51:36.116182,1685638,1383,1836,-507,-1184,-798,-298,-65,161,-277
19702,596,0,2023-03-01T18:51:36.122667,1685645,1383,1836,-507,-1184,-798,-298,-65,161,-277
19703,597,0,2023-03-01T18:51:36.128401,1685650,1388,1830,-503,-1185,-794,-296,-65,161,-277
19704,598,0,2023-03-01T18:51:36.135312,1685657,1388,1830,-503,-1185,-794,-296,-65,161,-277
19705,599,0,2023-03-01T18:51:36.140602,1685662,1388,1830,-503,-1185,-794,-296,-65,161,-277
19706,600,0,2023-03-01T18:51:36.145981,1685667,1388,1830,-503,-1185,-794,-296,-65,161,-277
19707,601,0,2023-03-01T18:51:36.150969,1685672,1390,1835,-505,-1190,-792,-297,-65,161,-277
19708,602,0,2023-03-01T18:51:36.156507,1685679,1390,1835,-505,-1190,-792,-297,-65,161,-277
19709,603,0,2023-03-01T18:51:36.162106,1685684,1390,1835,-505,-1190,-792,-297,-65,161,-277
19710,604,0,2023-03-01T18:51:36.167198,1685689,1390,1835,-505,-1190,-792,-297,-65,161,-277
19711,605,0,2023-03-01T18:51:36.172060,1685694,1394,1837,-503,-1181,-779,-300,-65,161,-277
19712,606,0,2023-03-01T18:51:36.177888,1685699,1394,1837,-503,-1181,-779,-300,-65,161,-277
19713,607,0,2023-03-01T18:51:36.183253,1685705,1394,1837,-503,-1181,-779,-300,-65,161,-277
19714,608,0,2023-03-01T18:51:36.188558,1685710,1389,1831,-499,-1183,-774,-309,-65,161,-277
19715,609,0,2023-03-01T18:51:36.194099,1685715,1389,1831,-499,-1183,-774,-309,-65,161,-277
19716,610,0,2023-03-01T18:51:36.199411,1685721,1389,1831,-499,-1183,-774,-309,-65,161,-277
19717,611,0,2023-03-01T18:51:36.204360,1685726,1389,1831,-499,-1183,-774,-309,-65,161,-277
19718,612,0,2023-03-01T18:51:36.209481,1685732,1395,1837,-497,-1180,-781,-308,-65,161,-277
19719,613,0,2023-03-01T18:51:36.214903,1685737,1395,1837,-497,-1180,-781,-308,-65,161,-277
19720,614,0,2023-03-01T18:51:36.220052,1685742,1395,1837,-497,-1180,-781,-308,-65,161,-277
19721,615,0,2023-03-01T18:51:36.225673,1685747,1395,1837,-497,-1180,-781,-308,-65,161,-277
19722,616,0,2023-03-01T18:51:36.230580,1685752,1387,1833,-499,-1187,-787,-297,-65,161,-277
19723,617,0,2023-03-01T18:51:36.235906,1685757,1387,1833,-499,-1187,-787,-297,-65,161,-277
19724,618,0,2023-03-01T18:51:36.240719,1685763,1387,1833,-499,-1187,-787,-297,-65,161,-277
19725,619,0,2023-03-01T18:51:36.246368,1685768,1387,1833,-499,-1187,-787,-297,-65,161,-277
19726,620,0,2023-03-01T18:51:36.251726,1685774,1389,1833,-505,-1193,-784,-302,-65,161,-277
19727,621,0,2023-03-01T18:51:36.257302,1685779,1389,1833,-505,-1193,-784,-302,-65,161,-277
19728,622,0,2023-03-01T18:51:36.262169,1685784,1389,1833,-505,-1193,-784,-302,-65,161,-277
19729,623,0,2023-03-01T18:51:36.267694,1685789,1389,1833,-505,-1193,-784,-302,-65,161,-277
19730,624,0,2023-03-01T18:51:36.272453,1685794,1393,1835,-500,-1183,-790,-299,-65,161,-277
19731,625,0,2023-03-01T18:51:36.277986,1685799,1393,1835,-500,-1183,-790,-299,-65,161,-277
19732,626,0,2023-03-01T18:51:36.283196,1685805,1393,1835,-500,-1183,-790,-299,-65,161,-277
19733,627,0,2023-03-01T18:51:36.288354,1685811,1386,1833,-500,-1183,-797,-297,-65,161,-277
19734,628,0,2023-03-01T18:51:36.293780,1685816,1386,1833,-500,-1183,-797,-297,-65,161,-277
19735,629,0,2023-03-01T18:51:36.299465,1685821,1386,1833,-500,-1183,-797,-297,-65,161,-277
19736,630,0,2023-03-01T18:51:36.304063,1685826,1386,1833,-500,-1183,-797,-297,-65,161,-277
19737,631,0,2023-03-01T18:51:36.309692,1685831,1389,1837,-508,-1184,-794,-294,-65,161,-277
19738,632,0,2023-03-01T18:51:36.315621,1685837,1389,1837,-508,-1184,-794,-294,-65,161,-277
19739,633,0,2023-03-01T18:51:36.321418,1685843,1389,1837,-508,-1184,-794,-294,-65,161,-277
19740,634,0,2023-03-01T18:51:36.327041,1685849,1389,1837,-508,-1184,-794,-294,-65,161,-277
19741,635,0,2023-03-01T18:51:36.332162,1685854,1391,1836,-494,-1179,-790,-304,-71,167,-271
19742,636,0,2023-03-01T18:51:36.337595,1685859,1391,1836,-494,-1179,-790,-304,-71,167,-271
19743,637,0,2023-03-01T18:51:36.343089,1685865,1391,1836,-494,-1179,-790,-304,-71,167,-271
19744,638,0,2023-03-01T18:51:36.350077,1685872,1390,1833,-499,-1189,-792,-297,-71,167,-271
19745,639,0,2023-03-01T18:51:36.355526,1685877,1390,1833,-499,-1189,-792,-297,-71,167,-271
19746,640,0,2023-03-01T18:51:36.360770,1685882,1390,1833,-499,-1189,-792,-297,-71,167,-271
19747,641,0,2023-03-01T18:51:36.366501,1685889,1390,1833,-499,-1189,-792,-297,-71,167,-271
19748,642,0,2023-03-01T18:51:36.371057,1685893,1392,1838,-508,-1192,-802,-301,-71,167,-271
19749,643,0,2023-03-01T18:51:36.376664,1685898,1392,1838,-508,-1192,-802,-301,-71,167,-271
19750,644,0,2023-03-01T18:51:36.382271,1685904,1392,1838,-508,-1192,-802,-301,-71,167,-271
19751,645,0,2023-03-01T18:51:36.387628,1685909,1392,1838,-508,-1192,-802,-301,-71,167,-271
19752,646,0,2023-03-01T18:51:36.392951,1685914,1386,1832,-500,-1193,-792,-292,-71,167,-271
19753,647,0,2023-03-01T18:51:36.398518,1685920,1386,1832,-500,-1193,-792,-292,-71,167,-271
19754,648,0,2023-03-01T18:51:36.403159,1685925,1386,1832,-500,-1193,-792,-292,-71,167,-271
19755,649,0,2023-03-01T18:51:36.408391,1685931,1386,1834,-501,-1197,-795,-295,-71,167,-271
19756,650,0,2023-03-01T18:51:36.414158,1685936,1386,1834,-501,-1197,-795,-295,-71,167,-271
19757,651,0,2023-03-01T18:51:36.420253,1685942,1386,1834,-501,-1197,-795,-295,-71,167,-271
19758,652,0,2023-03-01T18:51:36.425833,1685948,1386,1834,-501,-1197,-795,-295,-71,167,-271
19759,653,0,2023-03-01T18:51:36.430847,1685953,1392,1837,-506,-1192,-806,-298,-71,167,-271
19760,654,0,2023-03-01T18:51:36.435889,1685958,1392,1837,-506,-1192,-806,-298,-71,167,-271
19761,655,0,2023-03-01T18:51:36.440764,1685962,1392,1837,-506,-1192,-806,-298,-71,167,-271
19762,656,0,2023-03-01T18:51:36.446357,1685968,1392,1837,-506,-1192,-806,-298,-71,167,-271
19763,657,0,2023-03-01T18:51:36.451387,1685974,1389,1833,-497,-1183,-800,-295,-73,163,-271
19764,658,0,2023-03-01T18:51:36.456998,1685979,1389,1833,-497,-1183,-800,-295,-73,163,-271
19765,659,0,2023-03-01T18:51:36.462813,1685985,1389,1833,-497,-1183,-800,-295,-73,163,-271
19766,660,0,2023-03-01T18:51:36.468130,1685990,1392,1837,-505,-1192,-795,-303,-73,163,-271
19767,661,0,2023-03-01T18:51:36.473511,1685995,1392,1837,-505,-1192,-795,-303,-73,163,-271
19768,662,0,2023-03-01T18:51:36.479835,1686001,1392,1837,-505,-1192,-795,-303,-73,163,-271
19769,663,0,2023-03-01T18:51:36.484533,1686006,1392,1837,-505,-1192,-795,-303,-73,163,-271
19770,664,0,2023-03-01T18:51:36.489933,1686011,1390,1830,-498,-1188,-794,-300,-73,163,-271
19771,665,0,2023-03-01T18:51:36.495432,1686018,1390,1830,-498,-1188,-794,-300,-73,163,-271
19772,666,0,2023-03-01T18:51:36.500287,1686022,1390,1830,-498,-1188,-794,-300,-73,163,-271
19773,667,0,2023-03-01T18:51:36.505064,1686027,1390,1830,-498,-1188,-794,-300,-73,163,-271
19774,668,0,2023-03-01T18:51:36.510982,1686033,1388,1828,-503,-1192,-796,-296,-73,163,-271
19775,669,0,2023-03-01T18:51:36.517027,1686038,1388,1828,-503,-1192,-796,-296,-73,163,-271
19776,670,0,2023-03-01T18:51:36.522086,1686044,1388,1828,-503,-1192,-796,-296,-73,163,-271
19777,671,0,2023-03-01T18:51:36.527645,1686049,1388,1828,-503,-1192,-796,-296,-73,163,-271
19778,672,0,2023-03-01T18:51:36.532568,1686054,1392,1835,-503,-1194,-802,-300,-73,163,-271
19779,673,0,2023-03-01T18:51:36.538082,1686060,1392,1835,-503,-1194,-802,-300,-73,163,-271
19780,674,0,2023-03-01T18:51:36.543370,1686065,1392,1835,-503,-1194,-802,-300,-73,163,-271
19781,675,0,2023-03-01T18:51:36.548798,1686071,1391,1831,-502,-1199,-810,-294,-73,163,-271
19782,676,0,2023-03-01T18:51:36.554447,1686076,1391,1831,-502,-1199,-810,-294,-73,163,-271
19783,677,0,2023-03-01T18:51:36.560139,1686082,1391,1831,-502,-1199,-810,-294,-73,163,-271
19784,678,0,2023-03-01T18:51:36.565230,1686087,1391,1831,-502,-1199,-810,-294,-73,163,-271
19785,679,0,2023-03-01T18:51:36.570600,1686092,1392,1834,-503,-1204,-803,-294,-73,163,-271
19786,680,0,2023-03-01T18:51:36.576030,1686097,1392,1834,-503,-1204,-803,-294,-73,163,-271
19787,681,0,2023-03-01T18:51:36.580727,1686103,1392,1834,-503,-1204,-803,-294,-73,163,-271
19788,682,0,2023-03-01T18:51:36.586005,1686108,1392,1834,-503,-1204,-803,-294,-73,163,-271
19789,683,0,2023-03-01T18:51:36.590965,1686113,1389,1835,-500,-1197,-804,-292,-66,170,-280
19790,684,0,2023-03-01T18:51:36.596636,1686118,1389,1835,-500,-1197,-804,-292,-66,170,-280
19791,685,0,2023-03-01T18:51:36.601332,1686123,1389,1835,-500,-1197,-804,-292,-66,170,-280
19792,686,0,2023-03-01T18:51:36.606847,1686128,1389,1835,-500,-1197,-804,-292,-66,170,-280
19793,687,0,2023-03-01T18:51:36.612169,1686133,1389,1830,-500,-1201,-795,-296,-66,170,-280
19794,688,0,2023-03-01T18:51:36.617891,1686139,1389,1830,-500,-1201,-795,-296,-66,170,-280
19795,689,0,2023-03-01T18:51:36.622726,1686145,1389,1830,-500,-1201,-795,-296,-66,170,-280
19796,690,0,2023-03-01T18:51:36.628350,1686150,1389,1830,-500,-1201,-795,-296,-66,170,-280
19797,691,0,2023-03-01T18:51:36.633162,1686155,1392,1837,-496,-1192,-797,-291,-66,170,-280
19798,692,0,2023-03-01T18:51:36.638510,1686160,1392,1837,-496,-1192,-797,-291,-66,170,-280
19799,693,0,2023-03-01T18:51:36.643260,1686165,1392,1837,-496,-1192,-797,-291,-66,170,-280
19800,694,0,2023-03-01T18:51:36.648898,1686171,1391,1832,-503,-1198,-804,-293,-66,170,-280
19801,695,0,2023-03-01T18:51:36.654695,1686176,1391,1832,-503,-1198,-804,-293,-66,170,-280
19802,696,0,2023-03-01T18:51:36.659182,1686181,1391,1832,-503,-1198,-804,-293,-66,170,-280
19803,697,0,2023-03-01T18:51:36.664316,1686185,1391,1832,-503,-1198,-804,-293,-66,170,-280
19804,698,0,2023-03-01T18:51:36.670119,1686192,1390,1833,-501,-1193,-806,-298,-66,170,-280
19805,699,0,2023-03-01T18:51:36.676082,1686198,1390,1833,-501,-1193,-806,-298,-66,170,-280
19806,700,0,2023-03-01T18:51:36.680711,1686203,1390,1833,-501,-1193,-806,-298,-66,170,-280
19807,701,0,2023-03-01T18:51:36.686016,1686208,1390,1833,-501,-1193,-806,-298,-66,170,-280
19808,702,0,2023-03-01T18:51:36.691345,1686213,1392,1833,-509,-1191,-805,-293,-66,170,-280
19809,703,0,2023-03-01T18:51:36.696977,1686218,1392,1833,-509,-1191,-805,-293,-66,170,-280
19810,704,0,2023-03-01T18:51:36.702917,1686224,1392,1833,-509,-1191,-805,-293,-66,170,-280
19811,705,0,2023-03-01T18:51:36.707821,1686230,1392,1833,-509,-1191,-805,-293,-66,170,-280
19812,706,0,2023-03-01T18:51:36.712268,1686235,1391,1829,-501,-1193,-799,-299,-73,169,-283
19813,707,0,2023-03-01T18:51:36.719381,1686240,1391,1829,-501,-1193,-799,-299,-73,169,-283
19814,708,0,2023-03-01T18:51:36.724121,1686246,1391,1829,-501,-1193,-799,-299,-73,169,-283
19815,709,0,2023-03-01T18:51:36.729761,1686251,1393,1834,-500,-1194,-794,-293,-73,169,-283
19816,710,0,2023-03-01T18:51:36.735500,1686257,1393,1834,-500,-1194,-794,-293,-73,169,-283
19817,711,0,2023-03-01T18:51:36.741202,1686263,1393,1834,-500,-1194,-794,-293,-73,169,-283
19818,712,0,2023-03-01T18:51:36.746725,1686268,1393,1834,-500,-1194,-794,-293,-73,169,-283
19819,713,0,2023-03-01T18:51:36.752084,1686274,1390,1833,-502,-1195,-790,-294,-73,169,-283
19820,714,0,2023-03-01T18:51:36.757809,1686280,1390,1833,-502,-1195,-790,-294,-73,169,-283
19821,715,0,2023-03-01T18:51:36.763621,1686286,1390,1833,-502,-1195,-790,-294,-73,169,-283
19822,716,0,2023-03-01T18:51:36.769263,1686291,1389,1834,-501,-1179,-792,-299,-73,169,-283
19823,717,0,2023-03-01T18:51:36.774548,1686296,1389,1834,-501,-1179,-792,-299,-73,169,-283
19824,718,0,2023-03-01T18:51:36.780120,1686301,1389,1834,-501,-1179,-792,-299,-73,169,-283
19825,719,0,2023-03-01T18:51:36.786060,1686307,1389,1834,-501,-1179,-792,-299,-73,169,-283
19826,720,0,2023-03-01T18:51:36.791609,1686313,1393,1837,-505,-1181,-792,-302,-73,169,-283
19827,721,0,2023-03-01T18:51:36.797180,1686319,1393,1837,-505,-1181,-792,-302,-73,169,-283
19828,722,0,2023-03-01T18:51:36.802006,1686324,1393,1837,-505,-1181,-792,-302,-73,169,-283
19829,723,0,2023-03-01T18:51:36.807839,1686330,1393,1837,-505,-1181,-792,-302,-73,169,-283
19830,724,0,2023-03-01T18:51:36.812852,1686335,1391,1832,-505,-1191,-799,-297,-73,169,-283
19831,725,0,2023-03-01T18:51:36.818798,1686340,1391,1832,-505,-1191,-799,-297,-73,169,-283
19832,726,0,2023-03-01T18:51:36.823648,1686345,1391,1832,-505,-1191,-799,-297,-73,169,-283
19833,727,0,2023-03-01T18:51:36.829147,1686351,1391,1833,-498,-1195,-801,-302,-73,169,-283
19834,728,0,2023-03-01T18:51:36.834745,1686356,1391,1833,-498,-1195,-801,-302,-73,169,-283
19835,729,0,2023-03-01T18:51:36.839942,1686362,1391,1833,-498,-1195,-801,-302,-73,169,-283
19836,730,0,2023-03-01T18:51:36.845357,1686367,1391,1833,-498,-1195,-801,-302,-73,169,-283
19837,731,0,2023-03-01T18:51:36.850707,1686372,1395,1835,-505,-1197,-799,-295,-61,161,-273
19838,732,0,2023-03-01T18:51:36.856097,1686378,1395,1835,-505,-1197,-799,-295,-61,161,-273
19839,733,0,2023-03-01T18:51:36.861043,1686383,1395,1835,-505,-1197,-799,-295,-61,161,-273
19840,734,0,2023-03-01T18:51:36.866679,1686388,1395,1835,-505,-1197,-799,-295,-61,161,-273
19841,735,0,2023-03-01T18:51:36.871709,1686393,1389,1833,-508,-1199,-801,-304,-61,161,-273
19842,736,0,2023-03-01T18:51:36.877518,1686400,1389,1833,-508,-1199,-801,-304,-61,161,-273
19843,737,0,2023-03-01T18:51:36.882362,1686404,1389,1833,-508,-1199,-801,-304,-61,161,-273
19844,738,0,2023-03-01T18:51:36.887671,1686410,1389,1833,-508,-1199,-801,-304,-61,161,-273
19845,739,0,2023-03-01T18:51:36.892647,1686414,1391,1837,-504,-1191,-796,-294,-61,161,-273
19846,740,0,2023-03-01T18:51:36.898839,1686420,1391,1837,-504,-1191,-796,-294,-61,161,-273
19847,741,0,2023-03-01T18:51:36.904721,1686426,1391,1837,-504,-1191,-796,-294,-61,161,-273
19848,742,0,2023-03-01T18:51:36.910553,1686432,1389,1836,-506,-1185,-802,-296,-61,161,-273
19849,743,0,2023-03-01T18:51:36.915825,1686437,1389,1836,-506,-1185,-802,-296,-61,161,-273
19850,744,0,2023-03-01T18:51:36.920582,1686443,1389,1836,-506,-1185,-802,-296,-61,161,-273
19851,745,0,2023-03-01T18:51:36.926204,1686448,1389,1836,-506,-1185,-802,-296,-61,161,-273
19852,746,0,2023-03-01T18:51:36.931367,1686453,1391,1834,-504,-1183,-799,-287,-61,161,-273
19853,747,0,2023-03-01T18:51:36.937291,1686459,1391,1834,-504,-1183,-799,-287,-61,161,-273
19854,748,0,2023-03-01T18:51:36.942913,1686465,1391,1834,-504,-1183,-799,-287,-61,161,-273
19855,749,0,2023-03-01T18:51:36.948347,1686470,1391,1834,-504,-1183,-799,-287,-61,161,-273
19856,750,0,2023-03-01T18:51:36.953269,1686475,1396,1836,-510,-1187,-800,-294,-61,161,-273
19857,751,0,2023-03-01T18:51:36.959242,1686480,1396,1836,-510,-1187,-800,-294,-61,161,-273
19858,752,0,2023-03-01T18:51:36.965143,1686488,1396,1836,-510,-1187,-800,-294,-61,161,-273
19859,753,0,2023-03-01T18:51:36.970610,1686493,1390,1833,-507,-1182,-786,-300,-66,160,-274
19860,754,0,2023-03-01T18:51:36.976439,1686498,1390,1833,-507,-1182,-786,-300,-66,160,-274
19861,755,0,2023-03-01T18:51:36.981271,1686503,1390,1833,-507,-1182,-786,-300,-66,160,-274
19862,756,0,2023-03-01T18:51:36.987660,1686509,1390,1833,-507,-1182,-786,-300,-66,160,-274
19863,757,0,2023-03-01T18:51:36.993028,1686514,1394,1835,-506,-1181,-786,-302,-66,160,-274
19864,758,0,2023-03-01T18:51:36.998380,1686520,1394,1835,-506,-1181,-786,-302,-66,160,-274
19865,759,0,2023-03-01T18:51:37.003277,1686524,1394,1835,-506,-1181,-786,-302,-66,160,-274
19866,760,0,2023-03-01T18:51:37.008638,1686531,1394,1835,-506,-1181,-786,-302,-66,160,-274
19867,761,0,2023-03-01T18:51:37.013860,1686536,1390,1835,-505,-1189,-793,-300,-66,160,-274
19868,762,0,2023-03-01T18:51:37.019506,1686542,1390,1835,-505,-1189,-793,-300,-66,160,-274
19869,763,0,2023-03-01T18:51:37.025047,1686547,1390,1835,-505,-1189,-793,-300,-66,160,-274
19870,764,0,2023-03-01T18:51:37.030288,1686552,1390,1832,-500,-1188,-795,-306,-66,160,-274
19871,765,0,2023-03-01T18:51:37.035523,1686557,1390,1832,-500,-1188,-795,-306,-66,160,-274
19872,766,0,2023-03-01T18:51:37.040473,1686562,1390,1832,-500,-1188,-795,-306,-66,160,-274
19873,767,0,2023-03-01T18:51:37.045818,1686567,1390,1832,-500,-1188,-795,-306,-66,160,-274
19874,768,0,2023-03-01T18:51:37.050590,1686573,1390,1836,-507,-1190,-792,-293,-66,160,-274
19875,769,0,2023-03-01T18:51:37.056324,1686578,1390,1836,-507,-1190,-792,-293,-66,160,-274
19876,770,0,2023-03-01T18:51:37.061442,1686584,1390,1836,-507,-1190,-792,-293,-66,160,-274
19877,771,0,2023-03-01T18:51:37.067109,1686589,1390,1836,-507,-1190,-792,-293,-66,160,-274
19878,772,0,2023-03-01T18:51:37.072075,1686594,1388,1831,-499,-1196,-788,-296,-66,160,-274
19879,773,0,2023-03-01T18:51:37.077866,1686599,1388,1831,-499,-1196,-788,-296,-66,160,-274
19880,774,0,2023-03-01T18:51:37.082402,1686604,1388,1831,-499,-1196,-788,-296,-66,160,-274
19881,775,0,2023-03-01T18:51:37.087573,1686609,1388,1831,-499,-1196,-788,-296,-66,160,-274
19882,776,0,2023-03-01T18:51:37.092764,1686615,1393,1831,-507,-1192,-800,-305,-62,162,-274
19883,777,0,2023-03-01T18:51:37.098268,1686620,1393,1831,-507,-1192,-800,-305,-62,162,-274
19884,778,0,2023-03-01T18:51:37.103226,1686625,1393,1831,-507,-1192,-800,-305,-62,162,-274
19885,779,0,2023-03-01T18:51:37.109470,1686631,1393,1831,-507,-1192,-800,-305,-62,162,-274
19886,780,0,2023-03-01T18:51:37.113893,1686636,1392,1837,-502,-1186,-789,-300,-62,162,-274
19887,781,0,2023-03-01T18:51:37.120332,1686642,1392,1837,-502,-1186,-789,-300,-62,162,-274
19888,782,0,2023-03-01T18:51:37.124932,1686647,1392,1837,-502,-1186,-789,-300,-62,162,-274
19889,783,0,2023-03-01T18:51:37.130249,1686651,1393,1830,-499,-1185,-796,-297,-62,162,-274
19890,784,0,2023-03-01T18:51:37.135880,1686658,1393,1830,-499,-1185,-796,-297,-62,162,-274
19891,785,0,2023-03-01T18:51:37.140539,1686663,1393,1830,-499,-1185,-796,-297,-62,162,-274
19892,786,0,2023-03-01T18:51:37.146149,1686668,1393,1830,-499,-1185,-796,-297,-62,162,-274
19893,787,0,2023-03-01T18:51:37.150932,1686673,1392,1834,-512,-1189,-809,-298,-62,162,-274
19894,788,0,2023-03-01T18:51:37.156357,1686678,1392,1834,-512,-1189,-809,-298,-62,162,-274
19895,789,0,2023-03-01T18:51:37.162189,1686684,1392,1834,-512,-1189,-809,-298,-62,162,-274
19896,790,0,2023-03-01T18:51:37.167653,1686689,1392,1834,-512,-1189,-809,-298,-62,162,-274
19897,791,0,2023-03-01T18:51:37.172460,1686694,1392,1834,-505,-1192,-807,-294,-62,162,-274
19898,792,0,2023-03-01T18:51:37.178136,1686700,1392,1834,-505,-1192,-807,-294,-62,162,-274
19899,793,0,2023-03-01T18:51:37.183884,1686706,1392,1834,-505,-1192,-807,-294,-62,162,-274
19900,794,0,2023-03-01T18:51:37.188719,1686711,1392,1834,-505,-1192,-807,-294,-62,162,-274
19901,795,0,2023-03-01T18:51:37.193583,1686715,1389,1828,-506,-1190,-795,-296,-62,162,-274
19902,796,0,2023-03-01T18:51:37.198797,1686721,1389,1828,-506,-1190,-795,-296,-62,162,-274
19903,797,0,2023-03-01T18:51:37.203692,1686725,1389,1828,-506,-1190,-795,-296,-62,162,-274
19904,798,0,2023-03-01T18:51:37.208928,1686730,1389,1828,-506,-1190,-795,-296,-62,162,-274
19905,799,0,2023-03-01T18:51:37.214189,1686735,1395,1833,-509,-1206,-796,-301,-62,162,-274
19906,800,0,2023-03-01T18:51:37.219637,1686742,1395,1833,-509,-1206,-796,-301,-62,162,-274
19907,801,0,2023-03-01T18:51:37.225135,1686747,1395,1833,-509,-1206,-796,-301,-62,162,-274
19908,802,0,2023-03-01T18:51:37.230808,1686753,1389,1831,-499,-1194,-791,-293,-66,166,-274
19909,803,0,2023-03-01T18:51:37.236064,1686758,1389,1831,-499,-1194,-791,-293,-66,166,-274
19910,804,0,2023-03-01T18:51:37.241456,1686763,1389,1831,-499,-1194,-791,-293,-66,166,-274
19911,805,0,2023-03-01T18:51:37.246534,1686768,1389,1831,-499,-1194,-791,-293,-66,166,-274
19912,806,0,2023-03-01T18:51:37.251064,1686773,1390,1832,-504,-1189,-788,-301,-66,166,-274
19913,807,0,2023-03-01T18:51:37.256281,1686778,1390,1832,-504,-1189,-788,-301,-66,166,-274
19914,808,0,2023-03-01T18:51:37.261557,1686784,1390,1832,-504,-1189,-788,-301,-66,166,-274
19915,809,0,2023-03-01T18:51:37.267279,1686789,1390,1832,-504,-1189,-788,-301,-66,166,-274
19916,810,0,2023-03-01T18:51:37.272268,1686794,1394,1833,-505,-1183,-792,-305,-66,166,-274
19917,811,0,2023-03-01T18:51:37.278422,1686800,1394,1833,-505,-1183,-792,-305,-66,166,-274
19918,812,0,2023-03-01T18:51:37.283533,1686805,1394,1833,-505,-1183,-792,-305,-66,166,-274
19919,813,0,2023-03-01T18:51:37.289090,1686811,1394,1833,-505,-1183,-792,-305,-66,166,-274
19920,814,0,2023-03-01T18:51:37.294115,1686816,1393,1828,-507,-1179,-797,-304,-66,166,-274
19921,815,0,2023-03-01T18:51:37.299872,1686821,1393,1828,-507,-1179,-797,-304,-66,166,-274
19922,816,0,2023-03-01T18:51:37.305522,1686828,1393,1828,-507,-1179,-797,-304,-66,166,-274
19923,817,0,2023-03-01T18:51:37.310862,1686833,1393,1834,-504,-1192,-801,-298,-66,166,-274
19924,818,0,2023-03-01T18:51:37.316136,1686838,1393,1834,-504,-1192,-801,-298,-66,166,-274
19925,819,0,2023-03-01T18:51:37.321862,1686844,1393,1834,-504,-1192,-801,-298,-66,166,-274
19926,820,0,2023-03-01T18:51:37.327000,1686849,1393,1834,-504,-1192,-801,-298,-66,166,-274
19927,821,0,2023-03-01T18:51:37.331856,1686853,1393,1828,-505,-1187,-795,-298,-66,166,-274
19928,822,0,2023-03-01T18:51:37.338547,1686860,1393,1828,-505,-1187,-795,-298,-66,166,-274
19929,823,0,2023-03-01T18:51:37.344229,1686865,1393,1828,-505,-1187,-795,-298,-66,166,-274
19930,824,0,2023-03-01T18:51:37.349987,1686872,1393,1831,-505,-1196,-797,-301,-66,170,-274
19931,825,0,2023-03-01T18:51:37.355552,1686878,1393,1831,-505,-1196,-797,-301,-66,170,-274
19932,826,0,2023-03-01T18:51:37.360195,1686882,1393,1831,-505,-1196,-797,-301,-66,170,-274
19933,827,0,2023-03-01T18:51:37.365371,1686887,1393,1831,-505,-1196,-797,-301,-66,170,-274
19934,828,0,2023-03-01T18:51:37.370395,1686892,1392,1833,-501,-1193,-796,-294,-66,170,-274
19935,829,0,2023-03-01T18:51:37.375921,1686897,1392,1833,-501,-1193,-796,-294,-66,170,-274
19936,830,0,2023-03-01T18:51:37.380650,1686902,1392,1833,-501,-1193,-796,-294,-66,170,-274
19937,831,0,2023-03-01T18:51:37.386300,1686908,1392,1833,-501,-1193,-796,-294,-66,170,-274
19938,832,0,2023-03-01T18:51:37.391156,1686913,1389,1835,-498,-1188,-784,-296,-66,170,-274
19939,833,0,2023-03-01T18:51:37.397337,1686919,1389,1835,-498,-1188,-784,-296,-66,170,-274
19940,834,0,2023-03-01T18:51:37.402420,1686924,1389,1835,-498,-1188,-784,-296,-66,170,-274
19941,835,0,2023-03-01T18:51:37.407954,1686930,1389,1835,-498,-1188,-784,-296,-66,170,-274
19942,836,0,2023-03-01T18:51:37.412891,1686935,1390,1832,-504,-1189,-787,-301,-66,170,-274
19943,837,0,2023-03-01T18:51:37.418598,1686940,1390,1832,-504,-1189,-787,-301,-66,170,-274
19944,838,0,2023-03-01T18:51:37.423401,1686945,1390,1832,-504,-1189,-787,-301,-66,170,-274
19945,839,0,2023-03-01T18:51:37.428679,1686950,1390,1832,-504,-1189,-787,-301,-66,170,-274
19946,840,0,2023-03-01T18:51:37.434114,1686956,1390,1831,-507,-1179,-780,-304,-66,170,-274
19947,841,0,2023-03-01T18:51:37.439811,1686962,1390,1831,-507,-1179,-780,-304,-66,170,-274
19948,842,0,2023-03-01T18:51:37.445779,1686967,1390,1831,-507,-1179,-780,-304,-66,170,-274
19949,843,0,2023-03-01T18:51:37.451807,1686974,1390,1830,-505,-1179,-785,-303,-66,170,-274
19950,844,0,2023-03-01T18:51:37.457445,1686979,1390,1830,-505,-1179,-785,-303,-66,170,-274
19951,845,0,2023-03-01T18:51:37.462672,1686984,1390,1830,-505,-1179,-785,-303,-66,170,-274
19952,846,0,2023-03-01T18:51:37.468366,1686990,1390,1830,-505,-1179,-785,-303,-66,170,-274
19953,847,0,2023-03-01T18:51:37.472878,1686994,1393,1835,-508,-1182,-788,-298,-66,170,-274
19954,848,0,2023-03-01T18:51:37.478146,1687001,1393,1835,-508,-1182,-788,-298,-66,170,-274
19955,849,0,2023-03-01T18:51:37.483085,1687005,1393,1835,-508,-1182,-788,-298,-66,170,-274
19956,850,0,2023-03-01T18:51:37.487991,1687010,1393,1835,-508,-1182,-788,-298,-66,170,-274
19957,851,0,2023-03-01T18:51:37.493584,1687015,1394,1831,-497,-1193,-789,-305,-71,163,-275
19958,852,0,2023-03-01T18:51:37.499400,1687021,1394,1831,-497,-1193,-789,-305,-71,163,-275
19959,853,0,2023-03-01T18:51:37.504897,1687026,1394,1831,-497,-1193,-789,-305,-71,163,-275
19960,854,0,2023-03-01T18:51:37.510630,1687032,1395,1833,-503,-1185,-785,-306,-71,163,-275
19961,855,0,2023-03-01T18:51:37.515871,1687037,1395,1833,-503,-1185,-785,-306,-71,163,-275
19962,856,0,2023-03-01T18:51:37.521244,1687043,1395,1833,-503,-1185,-785,-306,-71,163,-275
19963,857,0,2023-03-01T18:51:37.526598,1687049,1395,1833,-503,-1185,-785,-306,-71,163,-275
19964,858,0,2023-03-01T18:51:37.531328,1687053,1395,1831,-503,-1179,-782,-298,-71,163,-275
19965,859,0,2023-03-01T18:51:37.536819,1687059,1395,1831,-503,-1179,-782,-298,-71,163,-275
19966,860,0,2023-03-01T18:51:37.541701,1687064,1395,1831,-503,-1179,-782,-298,-71,163,-275
19967,861,0,2023-03-01T18:51:37.547223,1687069,1395,1831,-503,-1179,-782,-298,-71,163,-275
19968,862,0,2023-03-01T18:51:37.552349,1687074,1391,1829,-509,-1173,-783,-292,-71,163,-275
19969,863,0,2023-03-01T18:51:37.558078,1687079,1391,1829,-509,-1173,-783,-292,-71,163,-275
19970,864,0,2023-03-01T18:51:37.563668,1687086,1391,1829,-509,-1173,-783,-292,-71,163,-275
19971,865,0,2023-03-01T18:51:37.569558,1687091,1391,1829,-509,-1173,-783,-292,-71,163,-275
19972,866,0,2023-03-01T18:51:37.574442,1687096,1391,1831,-512,-1175,-784,-299,-71,163,-275
19973,867,0,2023-03-01T18:51:37.579966,1687102,1391,1831,-512,-1175,-784,-299,-71,163,-275
19974,868,0,2023-03-01T18:51:37.585049,1687107,1391,1831,-512,-1175,-784,-299,-71,163,-275
19975,869,0,2023-03-01T18:51:37.590010,1687112,1386,1831,-504,-1180,-776,-304,-71,163,-275
19976,870,0,2023-03-01T18:51:37.595572,1687117,1386,1831,-504,-1180,-776,-304,-71,163,-275
19977,871,0,2023-03-01T18:51:37.601088,1687123,1386,1831,-504,-1180,-776,-304,-71,163,-275
19978,872,0,2023-03-01T18:51:37.606468,1687129,1386,1831,-504,-1180,-776,-304,-71,163,-275
19979,873,0,2023-03-01T18:51:37.611504,1687134,1393,1831,-500,-1193,-782,-303,-59,163,-279
19980,874,0,2023-03-01T18:51:37.616774,1687139,1393,1831,-500,-1193,-782,-303,-59,163,-279
19981,875,0,2023-03-01T18:51:37.622329,1687144,1393,1831,-500,-1193,-782,-303,-59,163,-279
19982,876,0,2023-03-01T18:51:37.627168,1687149,1393,1831,-500,-1193,-782,-303,-59,163,-279
19983,877,0,2023-03-01T18:51:37.632276,1687154,1392,1832,-505,-1182,-781,-302,-59,163,-279
19984,878,0,2023-03-01T18:51:37.637449,1687159,1392,1832,-505,-1182,-781,-302,-59,163,-279
19985,879,0,2023-03-01T18:51:37.642636,1687164,1392,1832,-505,-1182,-781,-302,-59,163,-279
19986,880,0,2023-03-01T18:51:37.648291,1687170,1392,1832,-505,-1182,-781,-302,-59,163,-279
19987,881,0,2023-03-01T18:51:37.653124,1687175,1390,1831,-505,-1176,-780,-303,-59,163,-279
19988,882,0,2023-03-01T18:51:37.658488,1687181,1390,1831,-505,-1176,-780,-303,-59,163,-279
19989,883,0,2023-03-01T18:51:37.663781,1687185,1390,1831,-505,-1176,-780,-303,-59,163,-279
19990,884,0,2023-03-01T18:51:37.669562,1687191,1393,1836,-505,-1179,-773,-300,-59,163,-279
19991,885,0,2023-03-01T18:51:37.674601,1687196,1393,1836,-505,-1179,-773,-300,-59,163,-279
19992,886,0,2023-03-01T18:51:37.679549,1687201,1393,1836,-505,-1179,-773,-300,-59,163,-279
19993,887,0,2023-03-01T18:51:37.684477,1687206,1393,1836,-505,-1179,-773,-300,-59,163,-279
19994,888,0,2023-03-01T18:51:37.690077,1687212,1393,1833,-509,-1186,-771,-303,-59,163,-279
19995,889,0,2023-03-01T18:51:37.695502,1687218,1393,1833,-509,-1186,-771,-303,-59,163,-279
19996,890,0,2023-03-01T18:51:37.700439,1687223,1393,1833,-509,-1186,-771,-303,-59,163,-279
19997,891,0,2023-03-01T18:51:37.705534,1687228,1393,1833,-509,-1186,-771,-303,-59,163,-279
19998,892,0,2023-03-01T18:51:37.710064,1687232,1390,1828,-506,-1177,-768,-301,-59,163,-279
19999,893,0,2023-03-01T18:51:37.715337,1687237,1390,1828,-506,-1177,-768,-301,-59,163,-279
20000,894,0,2023-03-01T18:51:37.720794,1687242,1390,1828,-506,-1177,-768,-301,-59,163,-279
20001,895,0,2023-03-01T18:51:37.726300,1687248,1390,1828,-506,-1177,-768,-301,-59,163,-279
20002,896,0,2023-03-01T18:51:37.731074,1687252,1393,1834,-510,-1168,-762,-306,-59,163,-279
20003,897,0,2023-03-01T18:51:37.736593,1687259,1393,1834,-510,-1168,-762,-306,-59,163,-279
20004,898,0,2023-03-01T18:51:37.741151,1687263,1393,1834,-510,-1168,-762,-306,-59,163,-279
20005,899,0,2023-03-01T18:51:37.746516,1687269,1393,1834,-510,-1168,-762,-306,-59,163,-279
20006,900,0,2023-03-01T18:51:37.751521,1687273,1388,1830,-504,-1165,-760,-306,-65,169,-269
20007,901,0,2023-03-01T18:51:37.757419,1687279,1388,1830,-504,-1165,-760,-306,-65,169,-269
20008,902,0,2023-03-01T18:51:37.763791,1687285,1388,1830,-504,-1165,-760,-306,-65,169,-269
20009,903,0,2023-03-01T18:51:37.769227,1687290,1388,1830,-504,-1165,-760,-306,-65,169,-269
20010,904,0,2023-03-01T18:51:37.774294,1687296,1393,1831,-501,-1165,-763,-296,-65,169,-269
20011,905,0,2023-03-01T18:51:37.779779,1687302,1393,1831,-501,-1165,-763,-296,-65,169,-269
20012,906,0,2023-03-01T18:51:37.785118,1687307,1393,1831,-501,-1165,-763,-296,-65,169,-269
20013,907,0,2023-03-01T18:51:37.790110,1687312,1390,1832,-502,-1164,-759,-304,-65,169,-269
20014,908,0,2023-03-01T18:51:37.795516,1687317,1390,1832,-502,-1164,-759,-304,-65,169,-269
20015,909,0,2023-03-01T18:51:37.800643,1687322,1390,1832,-502,-1164,-759,-304,-65,169,-269
20016,910,0,2023-03-01T18:51:37.805913,1687327,1390,1832,-502,-1164,-759,-304,-65,169,-269
20017,911,0,2023-03-01T18:51:37.810861,1687332,1392,1829,-503,-1164,-751,-308,-65,169,-269
20018,912,0,2023-03-01T18:51:37.816347,1687339,1392,1829,-503,-1164,-751,-308,-65,169,-269
20019,913,0,2023-03-01T18:51:37.821281,1687343,1392,1829,-503,-1164,-751,-308,-65,169,-269
20020,914,0,2023-03-01T18:51:37.826571,1687349,1392,1829,-503,-1164,-751,-308,-65,169,-269
20021,915,0,2023-03-01T18:51:37.831283,1687353,1394,1835,-507,-1171,-764,-309,-65,169,-269
20022,916,0,2023-03-01T18:51:37.836559,1687358,1394,1835,-507,-1171,-764,-309,-65,169,-269
20023,917,0,2023-03-01T18:51:37.841303,1687363,1394,1835,-507,-1171,-764,-309,-65,169,-269
20024,918,0,2023-03-01T18:51:37.846668,1687368,1394,1835,-507,-1171,-764,-309,-65,169,-269
20025,919,0,2023-03-01T18:51:37.851534,1687373,1390,1831,-505,-1177,-767,-307,-65,169,-269
20026,920,0,2023-03-01T18:51:37.857843,1687379,1390,1831,-505,-1177,-767,-307,-65,169,-269
20027,921,0,2023-03-01T18:51:37.863531,1687386,1390,1831,-505,-1177,-767,-307,-65,169,-269
20028,922,0,2023-03-01T18:51:37.868849,1687391,1390,1831,-505,-1177,-767,-307,-65,169,-269
20029,923,0,2023-03-01T18:51:37.873479,1687396,1389,1829,-500,-1181,-777,-311,-60,160,-276
20030,924,0,2023-03-01T18:51:37.879035,1687401,1389,1829,-500,-1181,-777,-311,-60,160,-276
20031,925,0,2023-03-01T18:51:37.884157,1687406,1389,1829,-500,-1181,-777,-311,-60,160,-276
20032,926,0,2023-03-01T18:51:37.890183,1687412,1393,1838,-508,-1183,-785,-304,-60,160,-276
20033,927,0,2023-03-01T18:51:37.895700,1687417,1393,1838,-508,-1183,-785,-304,-60,160,-276
20034,928,0,2023-03-01T18:51:37.901168,1687424,1393,1838,-508,-1183,-785,-304,-60,160,-276
20035,929,0,2023-03-01T18:51:37.906533,1687429,1393,1838,-508,-1183,-785,-304,-60,160,-276
20036,930,0,2023-03-01T18:51:37.911317,1687434,1391,1833,-510,-1185,-782,-304,-60,160,-276
20037,931,0,2023-03-01T18:51:37.916570,1687438,1391,1833,-510,-1185,-782,-304,-60,160,-276
20038,932,0,2023-03-01T18:51:37.922428,1687444,1391,1833,-510,-1185,-782,-304,-60,160,-276
20039,933,0,2023-03-01T18:51:37.927867,1687450,1391,1833,-510,-1185,-782,-304,-60,160,-276
20040,934,0,2023-03-01T18:51:37.932691,1687454,1394,1830,-508,-1193,-789,-295,-60,160,-276
20041,935,0,2023-03-01T18:51:37.938278,1687459,1394,1830,-508,-1193,-789,-295,-60,160,-276
20042,936,0,2023-03-01T18:51:37.943233,1687464,1394,1830,-508,-1193,-789,-295,-60,160,-276
20043,937,0,2023-03-01T18:51:37.948896,1687471,1394,1830,-508,-1193,-789,-295,-60,160,-276
20044,938,0,2023-03-01T18:51:37.953617,1687476,1393,1833,-505,-1190,-782,-307,-60,160,-276
20045,939,0,2023-03-01T18:51:37.959252,1687481,1393,1833,-505,-1190,-782,-307,-60,160,-276
20046,940,0,2023-03-01T18:51:37.965262,1687487,1393,1833,-505,-1190,-782,-307,-60,160,-276
20047,941,0,2023-03-01T18:51:37.971083,1687492,1393,1830,-507,-1180,-772,-297,-60,160,-276
20048,942,0,2023-03-01T18:51:37.976654,1687498,1393,1830,-507,-1180,-772,-297,-60,160,-276
20049,943,0,2023-03-01T18:51:37.981172,1687503,1393,1830,-507,-1180,-772,-297,-60,160,-276
20050,944,0,2023-03-01T18:51:37.986472,1687508,1393,1830,-507,-1180,-772,-297,-60,160,-276
20051,945,0,2023-03-01T18:51:37.991953,1687513,1393,1834,-506,-1181,-772,-304,-62,166,-274
20052,946,0,2023-03-01T18:51:37.998009,1687520,1393,1834,-506,-1181,-772,-304,-62,166,-274
20053,947,0,2023-03-01T18:51:38.003025,1687525,1393,1834,-506,-1181,-772,-304,-62,166,-274
20054,948,0,2023-03-01T18:51:38.008314,1687530,1393,1834,-506,-1181,-772,-304,-62,166,-274
20055,949,0,2023-03-01T18:51:38.012993,1687535,1393,1834,-506,-1181,-772,-304,-62,166,-274
20056,950,0,2023-03-01T18:51:38.017604,1687539,1393,1834,-506,-1181,-772,-304,-62,166,-274
20057,951,0,2023-03-01T18:51:38.022086,1687544,1393,1834,-506,-1181,-772,-304,-62,166,-274
20058,952,0,2023-03-01T18:51:38.027385,1687549,1393,1834,-506,-1181,-772,-304,-62,166,-274
20059,953,0,2023-03-01T18:51:38.032326,1687554,1393,1834,-499,-1170,-772,-302,-62,166,-274
20060,954,0,2023-03-01T18:51:38.037812,1687560,1393,1834,-499,-1170,-772,-302,-62,166,-274
20061,955,0,2023-03-01T18:51:38.042981,1687565,1393,1834,-499,-1170,-772,-302,-62,166,-274
20062,956,0,2023-03-01T18:51:38.048441,1687570,1393,1834,-499,-1170,-772,-302,-62,166,-274
20063,957,0,2023-03-01T18:51:38.053587,1687575,1394,1831,-509,-1182,-790,-299,-62,166,-274
20064,958,0,2023-03-01T18:51:38.059202,1687581,1394,1831,-509,-1182,-790,-299,-62,166,-274
20065,959,0,2023-03-01T18:51:38.064477,1687586,1394,1831,-509,-1182,-790,-299,-62,166,-274
20066,960,0,2023-03-01T18:51:38.069321,1687591,1394,1831,-509,-1182,-790,-299,-62,166,-274
20067,961,0,2023-03-01T18:51:38.074413,1687596,1394,1828,-504,-1173,-779,-298,-62,166,-274
20068,962,0,2023-03-01T18:51:38.080008,1687602,1394,1828,-504,-1173,-779,-298,-62,166,-274
20069,963,0,2023-03-01T18:51:38.084767,1687607,1394,1828,-504,-1173,-779,-298,-62,166,-274
20070,964,0,2023-03-01T18:51:38.089957,1687612,1394,1828,-504,-1173,-779,-298,-62,166,-274
20071,965,0,2023-03-01T18:51:38.095221,1687617,1394,1834,-509,-1176,-772,-304,-62,166,-274
20072,966,0,2023-03-01T18:51:38.101582,1687623,1394,1834,-509,-1176,-772,-304,-62,166,-274
20073,967,0,2023-03-01T18:51:38.108927,1687630,1394,1834,-509,-1176,-772,-304,-62,166,-274
20074,968,0,2023-03-01T18:51:38.113893,1687635,1392,1836,-509,-1174,-774,-312,-62,166,-274
20075,969,0,2023-03-01T18:51:38.118908,1687641,1392,1836,-509,-1174,-774,-312,-62,166,-274
20076,970,0,2023-03-01T18:51:38.124452,1687646,1392,1836,-509,-1174,-774,-312,-62,166,-274
20077,971,0,2023-03-01T18:51:38.129619,1687652,1392,1836,-509,-1174,-774,-312,-62,166,-274
20078,972,0,2023-03-01T18:51:38.134354,1687656,1391,1825,-499,-1176,-779,-299,-59,163,-267
20079,973,0,2023-03-01T18:51:38.139466,1687661,1391,1825,-499,-1176,-779,-299,-59,163,-267
20080,974,0,2023-03-01T18:51:38.143975,1687666,1391,1825,-499,-1176,-779,-299,-59,163,-267
20081,975,0,2023-03-01T18:51:38.149230,1687671,1391,1825,-499,-1176,-779,-299,-59,163,-267
20082,976,0,2023-03-01T18:51:38.154319,1687676,1396,1835,-507,-1182,-786,-303,-59,163,-267
20083,977,0,2023-03-01T18:51:38.159986,1687682,1396,1835,-507,-1182,-786,-303,-59,163,-267
20084,978,0,2023-03-01T18:51:38.165095,1687687,1396,1835,-507,-1182,-786,-303,-59,163,-267
20085,979,0,2023-03-01T18:51:38.170656,1687693,1393,1832,-508,-1177,-779,-296,-59,163,-267
20086,980,0,2023-03-01T18:51:38.175949,1687698,1393,1832,-508,-1177,-779,-296,-59,163,-267
20087,981,0,2023-03-01T18:51:38.181361,1687703,1393,1832,-508,-1177,-779,-296,-59,163,-267
20088,982,0,2023-03-01T18:51:38.186270,1687708,1393,1832,-508,-1177,-779,-296,-59,163,-267
20089,983,0,2023-03-01T18:51:38.191275,1687713,1394,1829,-512,-1186,-783,-298,-59,163,-267
20090,984,0,2023-03-01T18:51:38.196634,1687718,1394,1829,-512,-1186,-783,-298,-59,163,-267
20091,985,0,2023-03-01T18:51:38.201757,1687724,1394,1829,-512,-1186,-783,-298,-59,163,-267
20092,986,0,2023-03-01T18:51:38.207185,1687729,1394,1829,-512,-1186,-783,-298,-59,163,-267
20093,987,0,2023-03-01T18:51:38.212319,1687734,1394,1831,-512,-1192,-790,-302,-59,163,-267
20094,988,0,2023-03-01T18:51:38.218278,1687740,1394,1831,-512,-1192,-790,-302,-59,163,-267
20095,989,0,2023-03-01T18:51:38.222845,1687745,1394,1831,-512,-1192,-790,-302,-59,163,-267
20096,990,0,2023-03-01T18:51:38.228222,1687750,1394,1831,-512,-1192,-790,-302,-59,163,-267
20097,991,0,2023-03-01T18:51:38.233068,1687755,1392,1832,-505,-1182,-779,-299,-59,163,-267
20098,992,0,2023-03-01T18:51:38.239684,1687760,1392,1832,-505,-1182,-779,-299,-59,163,-267
20099,993,0,2023-03-01T18:51:38.245792,1687768,1392,1832,-505,-1182,-779,-299,-59,163,-267
20100,994,0,2023-03-01T18:51:38.251296,1687774,1396,1835,-506,-1183,-785,-300,-68,170,-270
20101,995,0,2023-03-01T18:51:38.256971,1687779,1396,1835,-506,-1183,-785,-300,-68,170,-270
20102,996,0,2023-03-01T18:51:38.261889,1687784,1396,1835,-506,-1183,-785,-300,-68,170,-270
20103,997,0,2023-03-01T18:51:38.267326,1687789,1396,1835,-506,-1183,-785,-300,-68,170,-270
20104,998,0,2023-03-01T18:51:38.272298,1687794,1393,1830,-504,-1181,-781,-304,-68,170,-270
20105,999,0,2023-03-01T18:51:38.277875,1687800,1393,1830,-504,-1181,-781,-304,-68,170,-270
20106,1000,0,2023-03-01T18:51:38.283030,1687804,1393,1830,-504,-1181,-781,-304,-68,170,-270
20107,1001,0,2023-03-01T18:51:38.288712,1687811,1393,1830,-504,-1181,-781,-304,-68,170,-270
20108,1002,0,2023-03-01T18:51:38.293869,1687816,1394,1829,-496,-1182,-782,-298,-68,170,-270
20109,1003,0,2023-03-01T18:51:38.299341,1687821,1394,1829,-496,-1182,-782,-298,-68,170,-270
20110,1004,0,2023-03-01T18:51:38.304641,1687826,1394,1829,-496,-1182,-782,-298,-68,170,-270
20111,1005,0,2023-03-01T18:51:38.309773,1687832,1394,1829,-496,-1182,-782,-298,-68,170,-270
20112,1006,0,2023-03-01T18:51:38.314592,1687836,1395,1832,-505,-1181,-787,-292,-68,170,-270
20113,1007,0,2023-03-01T18:51:38.320293,1687842,1395,1832,-505,-1181,-787,-292,-68,170,-270
20114,1008,0,2023-03-01T18:51:38.325339,1687847,1395,1832,-505,-1181,-787,-292,-68,170,-270
20115,1009,0,2023-03-01T18:51:38.332374,1687854,1391,1831,-514,-1180,-787,-297,-68,170,-270
20116,1010,0,2023-03-01T18:51:38.338092,1687860,1391,1831,-514,-1180,-787,-297,-68,170,-270
20117,1011,0,2023-03-01T18:51:38.343228,1687865,1391,1831,-514,-1180,-787,-297,-68,170,-270
20118,1012,0,2023-03-01T18:51:38.348875,1687870,1391,1831,-514,-1180,-787,-297,-68,170,-270
20119,1013,0,2023-03-01T18:51:38.354306,1687876,1399,1832,-506,-1178,-783,-302,-68,170,-270
20120,1014,0,2023-03-01T18:51:38.359741,1687881,1399,1832,-506,-1178,-783,-302,-68,170,-270
20121,1015,0,2023-03-01T18:51:38.364420,1687886,1399,1832,-506,-1178,-783,-302,-68,170,-270
20122,1016,0,2023-03-01T18:51:38.370454,1687891,1399,1832,-506,-1178,-783,-302,-68,170,-270
20123,1017,0,2023-03-01T18:51:38.375351,1687897,1394,1833,-511,-1171,-788,-300,-68,170,-270
20124,1018,0,2023-03-01T18:51:38.381957,1687904,1394,1833,-511,-1171,-788,-300,-68,170,-270
20125,1019,0,2023-03-01T18:51:38.388029,1687910,1394,1833,-511,-1171,-788,-300,-68,170,-270
20126,1020,0,2023-03-01T18:51:38.393781,1687915,1393,1827,-502,-1180,-780,-311,-69,163,-265
20127,1021,0,2023-03-01T18:51:38.399453,1687921,1393,1827,-502,-1180,-780,-311,-69,163,-265
20128,1022,0,2023-03-01T18:51:38.405039,1687927,1393,1827,-502,-1180,-780,-311,-69,163,-265
20129,1023,0,2023-03-01T18:51:38.410552,1687932,1393,1827,-502,-1180,-780,-311,-69,163,-265
20130,1024,0,2023-03-01T18:51:38.415617,1687938,1393,1827,-502,-1180,-780,-311,-69,163,-265
20131,1025,0,2023-03-01T18:51:38.421468,1687943,1393,1827,-502,-1180,-780,-311,-69,163,-265
20132,1026,0,2023-03-01T18:51:38.427699,1687949,1393,1827,-502,-1180,-780,-311,-69,163,-265
20133,1027,0,2023-03-01T18:51:38.433742,1687956,1397,1832,-508,-1194,-790,-297,-69,163,-265
20134,1028,0,2023-03-01T18:51:38.439519,1687961,1397,1832,-508,-1194,-790,-297,-69,163,-265
20135,1029,0,2023-03-01T18:51:38.444561,1687966,1397,1832,-508,-1194,-790,-297,-69,163,-265
20136,1030,0,2023-03-01T18:51:38.450286,1687972,1397,1832,-508,-1194,-790,-297,-69,163,-265
20137,1031,0,2023-03-01T18:51:38.455650,1687977,1393,1825,-506,-1178,-780,-305,-69,163,-265
20138,1032,0,2023-03-01T18:51:38.462147,1687984,1393,1825,-506,-1178,-780,-305,-69,163,-265
20139,1033,0,2023-03-01T18:51:38.468573,1687990,1393,1825,-506,-1178,-780,-305,-69,163,-265
20140,1034,0,2023-03-01T18:51:38.473535,1687995,1396,1832,-508,-1175,-777,-306,-69,163,-265
20141,1035,0,2023-03-01T18:51:38.479207,1688001,1396,1832,-508,-1175,-777,-306,-69,163,-265
20142,1036,0,2023-03-01T18:51:38.485516,1688007,1396,1832,-508,-1175,-777,-306,-69,163,-265
20143,1037,0,2023-03-01T18:51:38.491417,1688013,1393,1823,-502,-1178,-775,-299,-69,163,-265
20144,1038,0,2023-03-01T18:51:38.497413,1688019,1393,1823,-502,-1178,-775,-299,-69,163,-265
20145,1039,0,2023-03-01T18:51:38.502218,1688024,1393,1823,-502,-1178,-775,-299,-69,163,-265
20146,1040,0,2023-03-01T18:51:38.507300,1688030,1393,1823,-502,-1178,-775,-299,-69,163,-265
20147,1041,0,2023-03-01T18:51:38.512315,1688034,1399,1830,-503,-1181,-778,-306,-70,164,-272
20148,1042,0,2023-03-01T18:51:38.517480,1688039,1399,1830,-503,-1181,-778,-306,-70,164,-272
20149,1043,0,2023-03-01T18:51:38.523601,1688045,1399,1830,-503,-1181,-778,-306,-70,164,-272
20150,1044,0,2023-03-01T18:51:38.529141,1688051,1399,1830,-503,-1181,-778,-306,-70,164,-272
20151,1045,0,2023-03-01T18:51:38.533614,1688055,1395,1832,-507,-1187,-784,-311,-70,164,-272
20152,1046,0,2023-03-01T18:51:38.539736,1688061,1395,1832,-507,-1187,-784,-311,-70,164,-272
20153,1047,0,2023-03-01T18:51:38.546064,1688068,1395,1832,-507,-1187,-784,-311,-70,164,-272
20154,1048,0,2023-03-01T18:51:38.551904,1688074,1392,1828,-507,-1182,-790,-298,-70,164,-272
20155,1049,0,2023-03-01T18:51:38.557356,1688079,1392,1828,-507,-1182,-790,-298,-70,164,-272
20156,1050,0,2023-03-01T18:51:38.562645,1688085,1392,1828,-507,-1182,-790,-298,-70,164,-272
20157,1051,0,2023-03-01T18:51:38.568179,1688090,1392,1828,-507,-1182,-790,-298,-70,164,-272
20158,1052,0,2023-03-01T18:51:38.573007,1688095,1397,1833,-513,-1186,-778,-300,-70,164,-272
20159,1053,0,2023-03-01T18:51:38.578739,1688100,1397,1833,-513,-1186,-778,-300,-70,164,-272
20160,1054,0,2023-03-01T18:51:38.584170,1688105,1397,1833,-513,-1186,-778,-300,-70,164,-272
20161,1055,0,2023-03-01T18:51:38.589918,1688112,1397,1833,-513,-1186,-778,-300,-70,164,-272
20162,1056,0,2023-03-01T18:51:38.595318,1688117,1394,1831,-510,-1176,-777,-297,-70,164,-272
20163,1057,0,2023-03-01T18:51:38.602010,1688123,1394,1831,-510,-1176,-777,-297,-70,164,-272
20164,1058,0,2023-03-01T18:51:38.610005,1688130,1394,1831,-510,-1176,-777,-297,-70,164,-272
20165,1059,0,2023-03-01T18:51:38.615521,1688137,1392,1828,-506,-1180,-780,-302,-70,164,-272
20166,1060,0,2023-03-01T18:51:38.621887,1688143,1392,1828,-506,-1180,-780,-302,-70,164,-272
20167,1061,0,2023-03-01T18:51:38.627447,1688150,1392,1828,-506,-1180,-780,-302,-70,164,-272
20168,1062,0,2023-03-01T18:51:38.632599,1688155,1396,1832,-502,-1181,-778,-304,-70,164,-272
20169,1063,0,2023-03-01T18:51:38.638891,1688161,1396,1832,-502,-1181,-778,-304,-70,164,-272
20170,1064,0,2023-03-01T18:51:38.644634,1688167,1396,1832,-502,-1181,-778,-304,-70,164,-272
20171,1065,0,2023-03-01T18:51:38.650760,1688172,1396,1832,-502,-1181,-778,-304,-70,164,-272
20172,1066,0,2023-03-01T18:51:38.655766,1688177,1391,1829,-501,-1189,-785,-299,-71,163,-271
20173,1067,0,2023-03-01T18:51:38.662123,1688184,1391,1829,-501,-1189,-785,-299,-71,163,-271
20174,1068,0,2023-03-01T18:51:38.668715,1688189,1391,1829,-501,-1189,-785,-299,-71,163,-271
20175,1069,0,2023-03-01T18:51:38.673861,1688196,1395,1835,-508,-1186,-788,-301,-71,163,-271
20176,1070,0,2023-03-01T18:51:38.679134,1688201,1395,1835,-508,-1186,-788,-301,-71,163,-271
20177,1071,0,2023-03-01T18:51:38.684816,1688206,1395,1835,-508,-1186,-788,-301,-71,163,-271
20178,1072,0,2023-03-01T18:51:38.690551,1688212,1395,1835,-508,-1186,-788,-301,-71,163,-271
20179,1073,0,2023-03-01T18:51:38.695356,1688217,1394,1830,-508,-1183,-787,-296,-71,163,-271
20180,1074,0,2023-03-01T18:51:38.701221,1688223,1394,1830,-508,-1183,-787,-296,-71,163,-271
20181,1075,0,2023-03-01T18:51:38.706831,1688228,1394,1830,-508,-1183,-787,-296,-71,163,-271
20182,1076,0,2023-03-01T18:51:38.712244,1688233,1392,1831,-508,-1177,-792,-306,-71,163,-271
20183,1077,0,2023-03-01T18:51:38.717913,1688240,1392,1831,-508,-1177,-792,-306,-71,163,-271
20184,1078,0,2023-03-01T18:51:38.723201,1688245,1392,1831,-508,-1177,-792,-306,-71,163,-271
20185,1079,0,2023-03-01T18:51:38.728702,1688251,1392,1831,-508,-1177,-792,-306,-71,163,-271
20186,1080,0,2023-03-01T18:51:38.733411,1688255,1392,1830,-517,-1176,-795,-302,-71,163,-271
20187,1081,0,2023-03-01T18:51:38.738733,1688261,1392,1830,-517,-1176,-795,-302,-71,163,-271
20188,1082,0,2023-03-01T18:51:38.743812,1688265,1392,1830,-517,-1176,-795,-302,-71,163,-271
20189,1083,0,2023-03-01T18:51:38.750380,1688271,1392,1830,-517,-1176,-795,-302,-71,163,-271
20190,1084,0,2023-03-01T18:51:38.755158,1688278,1394,1829,-504,-1183,-790,-296,-71,163,-271
20191,1085,0,2023-03-01T18:51:38.760832,1688283,1394,1829,-504,-1183,-790,-296,-71,163,-271
20192,1086,0,2023-03-01T18:51:38.766613,1688289,1394,1829,-504,-1183,-790,-296,-71,163,-271
20193,1087,0,2023-03-01T18:51:38.772051,1688294,1393,1826,-508,-1177,-794,-302,-66,162,-278
20194,1088,0,2023-03-01T18:51:38.779074,1688301,1393,1826,-508,-1177,-794,-302,-66,162,-278
20195,1089,0,2023-03-01T18:51:38.785142,1688307,1393,1826,-508,-1177,-794,-302,-66,162,-278
20196,1090,0,2023-03-01T18:51:38.791042,1688312,1393,1826,-508,-1177,-794,-302,-66,162,-278
20197,1091,0,2023-03-01T18:51:38.796791,1688317,1396,1831,-505,-1182,-793,-305,-66,162,-278
20198,1092,0,2023-03-01T18:51:38.803184,1688325,1396,1831,-505,-1182,-793,-305,-66,162,-278
20199,1093,0,2023-03-01T18:51:38.809185,1688331,1396,1831,-505,-1182,-793,-305,-66,162,-278
20200,1094,0,2023-03-01T18:51:38.814054,1688336,1391,1828,-510,-1182,-798,-298,-66,162,-278
20201,1095,0,2023-03-01T18:51:38.819727,1688342,1391,1828,-510,-1182,-798,-298,-66,162,-278
20202,1096,0,2023-03-01T18:51:38.824424,1688346,1391,1828,-510,-1182,-798,-298,-66,162,-278
20203,1097,0,2023-03-01T18:51:38.829856,1688351,1391,1828,-510,-1182,-798,-298,-66,162,-278
20204,1098,0,2023-03-01T18:51:38.835018,1688356,1395,1833,-514,-1193,-797,-302,-66,162,-278
20205,1099,0,2023-03-01T18:51:38.840783,1688363,1395,1833,-514,-1193,-797,-302,-66,162,-278
20206,1100,0,2023-03-01T18:51:38.846385,1688369,1395,1833,-514,-1193,-797,-302,-66,162,-278
20207,1101,0,2023-03-01T18:51:38.851489,1688373,1396,1824,-514,-1190,-795,-297,-66,162,-278
20208,1102,0,2023-03-01T18:51:38.857410,1688379,1396,1824,-514,-1190,-795,-297,-66,162,-278
20209,1103,0,2023-03-01T18:51:38.862706,1688384,1396,1824,-514,-1190,-795,-297,-66,162,-278
20210,1104,0,2023-03-01T18:51:38.868105,1688390,1396,1824,-514,-1190,-795,-297,-66,162,-278
20211,1105,0,2023-03-01T18:51:38.872841,1688394,1394,1829,-508,-1192,-788,-302,-66,162,-278
20212,1106,0,2023-03-01T18:51:38.879252,1688401,1394,1829,-508,-1192,-788,-302,-66,162,-278
20213,1107,0,2023-03-01T18:51:38.884998,1688407,1394,1829,-508,-1192,-788,-302,-66,162,-278
20214,1108,0,2023-03-01T18:51:38.890227,1688413,1394,1829,-508,-1192,-788,-302,-66,162,-278
20215,1109,0,2023-03-01T18:51:38.894993,1688417,1396,1830,-511,-1184,-776,-302,-66,166,-266
20216,1110,0,2023-03-01T18:51:38.900555,1688423,1396,1830,-511,-1184,-776,-302,-66,166,-266
20217,1111,0,2023-03-01T18:51:38.906028,1688428,1396,1830,-511,-1184,-776,-302,-66,166,-266
20218,1112,0,2023-03-01T18:51:38.911632,1688433,1394,1830,-508,-1169,-770,-307,-66,166,-266
20219,1113,0,2023-03-01T18:51:38.917484,1688439,1394,1830,-508,-1169,-770,-307,-66,166,-266
20220,1114,0,2023-03-01T18:51:38.922057,1688444,1394,1830,-508,-1169,-770,-307,-66,166,-266
20221,1115,0,2023-03-01T18:51:38.927618,1688450,1394,1830,-508,-1169,-770,-307,-66,166,-266
20222,1116,0,2023-03-01T18:51:38.932419,1688455,1394,1831,-507,-1170,-777,-304,-66,166,-266
20223,1117,0,2023-03-01T18:51:38.937665,1688460,1394,1831,-507,-1170,-777,-304,-66,166,-266
20224,1118,0,2023-03-01T18:51:38.942303,1688464,1394,1831,-507,-1170,-777,-304,-66,166,-266
20225,1119,0,2023-03-01T18:51:38.947146,1688469,1394,1831,-507,-1170,-777,-304,-66,166,-266
20226,1120,0,2023-03-01T18:51:38.951797,1688474,1394,1828,-514,-1164,-766,-302,-66,166,-266
20227,1121,0,2023-03-01T18:51:38.957274,1688479,1394,1828,-514,-1164,-766,-302,-66,166,-266
20228,1122,0,2023-03-01T18:51:38.962035,1688484,1394,1828,-514,-1164,-766,-302,-66,166,-266
20229,1123,0,2023-03-01T18:51:38.967583,1688489,1394,1828,-514,-1164,-766,-302,-66,166,-266
20230,1124,0,2023-03-01T18:51:38.972522,1688495,1395,1825,-509,-1178,-769,-305,-66,166,-266
20231,1125,0,2023-03-01T18:51:38.978097,1688500,1395,1825,-509,-1178,-769,-305,-66,166,-266
20232,1126,0,2023-03-01T18:51:38.982661,1688505,1395,1825,-509,-1178,-769,-305,-66,166,-266
20233,1127,0,2023-03-01T18:51:38.988424,1688510,1395,1825,-509,-1178,-769,-305,-66,166,-266
20234,1128,0,2023-03-01T18:51:38.993463,1688515,1397,1829,-511,-1181,-772,-303,-66,166,-266
20235,1129,0,2023-03-01T18:51:38.999148,1688521,1397,1829,-511,-1181,-772,-303,-66,166,-266
20236,1130,0,2023-03-01T18:51:39.004478,1688526,1397,1829,-511,-1181,-772,-303,-66,166,-266
20237,1131,0,2023-03-01T18:51:39.010059,1688531,1397,1829,-511,-1181,-772,-303,-66,166,-266
20238,1132,0,2023-03-01T18:51:39.014894,1688537,1393,1830,-509,-1182,-772,-305,-66,166,-266
20239,1133,0,2023-03-01T18:51:39.020196,1688542,1393,1830,-509,-1182,-772,-305,-66,166,-266
20240,1134,0,2023-03-01T18:51:39.025508,1688548,1393,1830,-509,-1182,-772,-305,-66,166,-266
20241,1135,0,2023-03-01T18:51:39.031165,1688553,1393,1830,-509,-1182,-772,-305,-66,166,-266
20242,1136,0,2023-03-01T18:51:39.035872,1688558,1392,1830,-506,-1170,-772,-311,-71,161,-269
20243,1137,0,2023-03-01T18:51:39.041650,1688563,1392,1830,-506,-1170,-772,-311,-71,161,-269
20244,1138,0,2023-03-01T18:51:39.047587,1688569,1392,1830,-506,-1170,-772,-311,-71,161,-269
20245,1139,0,2023-03-01T18:51:39.052579,1688574,1394,1832,-504,-1162,-767,-314,-71,161,-269
20246,1140,0,2023-03-01T18:51:39.057919,1688580,1394,1832,-504,-1162,-767,-314,-71,161,-269
20247,1141,0,2023-03-01T18:51:39.062617,1688585,1394,1832,-504,-1162,-767,-314,-71,161,-269
20248,1142,0,2023-03-01T18:51:39.068368,1688590,1394,1832,-504,-1162,-767,-314,-71,161,-269
20249,1143,0,2023-03-01T18:51:39.073086,1688595,1392,1826,-505,-1176,-772,-298,-71,161,-269
20250,1144,0,2023-03-01T18:51:39.079095,1688601,1392,1826,-505,-1176,-772,-298,-71,161,-269
20251,1145,0,2023-03-01T18:51:39.083731,1688605,1392,1826,-505,-1176,-772,-298,-71,161,-269
20252,1146,0,2023-03-01T18:51:39.088866,1688611,1392,1826,-505,-1176,-772,-298,-71,161,-269
20253,1147,0,2023-03-01T18:51:39.093492,1688615,1395,1832,-515,-1176,-776,-301,-71,161,-269
20254,1148,0,2023-03-01T18:51:39.099575,1688622,1395,1832,-515,-1176,-776,-301,-71,161,-269
20255,1149,0,2023-03-01T18:51:39.104460,1688627,1395,1832,-515,-1176,-776,-301,-71,161,-269
20256,1150,0,2023-03-01T18:51:39.109844,1688632,1395,1832,-515,-1176,-776,-301,-71,161,-269
20257,1151,0,2023-03-01T18:51:39.114623,1688637,1393,1827,-510,-1166,-769,-297,-71,161,-269
20258,1152,0,2023-03-01T18:51:39.119985,1688642,1393,1827,-510,-1166,-769,-297,-71,161,-269
20259,1153,0,2023-03-01T18:51:39.125288,1688647,1393,1827,-510,-1166,-769,-297,-71,161,-269
20260,1154,0,2023-03-01T18:51:39.130536,1688652,1393,1827,-510,-1166,-769,-297,-71,161,-269
20261,1155,0,2023-03-01T18:51:39.135399,1688657,1394,1830,-506,-1170,-764,-296,-71,161,-269
20262,1156,0,2023-03-01T18:51:39.140637,1688663,1394,1830,-506,-1170,-764,-296,-71,161,-269
20263,1157,0,2023-03-01T18:51:39.145341,1688668,1394,1830,-506,-1170,-764,-296,-71,161,-269
20264,1158,0,2023-03-01T18:51:39.151107,1688673,1394,1830,-506,-1170,-764,-296,-71,161,-269
20265,1159,0,2023-03-01T18:51:39.155862,1688678,1399,1829,-509,-1179,-768,-299,-67,161,-275
20266,1160,0,2023-03-01T18:51:39.161985,1688684,1399,1829,-509,-1179,-768,-299,-67,161,-275
20267,1161,0,2023-03-01T18:51:39.167488,1688689,1399,1829,-509,-1179,-768,-299,-67,161,-275
20268,1162,0,2023-03-01T18:51:39.171934,1688694,1395,1830,-508,-1175,-772,-301,-67,161,-275
20269,1163,0,2023-03-01T18:51:39.177611,1688699,1395,1830,-508,-1175,-772,-301,-67,161,-275
20270,1164,0,2023-03-01T18:51:39.182694,1688705,1395,1830,-508,-1175,-772,-301,-67,161,-275
20271,1165,0,2023-03-01T18:51:39.187927,1688710,1395,1830,-508,-1175,-772,-301,-67,161,-275
20272,1166,0,2023-03-01T18:51:39.192750,1688715,1394,1832,-511,-1172,-764,-304,-67,161,-275
20273,1167,0,2023-03-01T18:51:39.198264,1688720,1394,1832,-511,-1172,-764,-304,-67,161,-275
20274,1168,0,2023-03-01T18:51:39.202931,1688725,1394,1832,-511,-1172,-764,-304,-67,161,-275
20275,1169,0,2023-03-01T18:51:39.208648,1688730,1394,1832,-511,-1172,-764,-304,-67,161,-275
20276,1170,0,2023-03-01T18:51:39.213413,1688735,1394,1829,-506,-1156,-764,-302,-67,161,-275
20277,1171,0,2023-03-01T18:51:39.219341,1688741,1394,1829,-506,-1156,-764,-302,-67,161,-275
20278,1172,0,2023-03-01T18:51:39.224863,1688747,1394,1829,-506,-1156,-764,-302,-67,161,-275
20279,1173,0,2023-03-01T18:51:39.229626,1688752,1394,1829,-506,-1156,-764,-302,-67,161,-275
20280,1174,0,2023-03-01T18:51:39.234564,1688757,1392,1830,-512,-1159,-771,-302,-67,161,-275
20281,1175,0,2023-03-01T18:51:39.240099,1688762,1392,1830,-512,-1159,-771,-302,-67,161,-275
20282,1176,0,2023-03-01T18:51:39.245791,1688768,1392,1830,-512,-1159,-771,-302,-67,161,-275
20283,1177,0,2023-03-01T18:51:39.251614,1688773,1392,1830,-512,-1159,-771,-302,-67,161,-275
20284,1178,0,2023-03-01T18:51:39.256464,1688778,1395,1831,-509,-1173,-777,-309,-67,161,-275
20285,1179,0,2023-03-01T18:51:39.262677,1688784,1395,1831,-509,-1173,-777,-309,-67,161,-275
20286,1180,0,2023-03-01T18:51:39.268123,1688790,1395,1831,-509,-1173,-777,-309,-67,161,-275
20287,1181,0,2023-03-01T18:51:39.273089,1688795,1393,1825,-510,-1171,-775,-296,-67,161,-275
20288,1182,0,2023-03-01T18:51:39.278480,1688801,1393,1825,-510,-1171,-775,-296,-67,161,-275
20289,1183,0,2023-03-01T18:51:39.283613,1688805,1393,1825,-510,-1171,-775,-296,-67,161,-275
20290,1184,0,2023-03-01T18:51:39.289111,1688811,1393,1825,-510,-1171,-775,-296,-67,161,-275
20291,1185,0,2023-03-01T18:51:39.294812,1688816,1396,1829,-502,-1185,-778,-304,-66,160,-262
20292,1186,0,2023-03-01T18:51:39.300635,1688822,1396,1829,-502,-1185,-778,-304,-66,160,-262
20293,1187,0,2023-03-01T18:51:39.306188,1688828,1396,1829,-502,-1185,-778,-304,-66,160,-262
20294,1188,0,2023-03-01T18:51:39.312154,1688834,1393,1832,-512,-1193,-788,-300,-66,160,-262
20295,1189,0,2023-03-01T18:51:39.317693,1688840,1393,1832,-512,-1193,-788,-300,-66,160,-262
20296,1190,0,2023-03-01T18:51:39.323066,1688845,1393,1832,-512,-1193,-788,-300,-66,160,-262
20297,1191,0,2023-03-01T18:51:39.328895,1688851,1393,1832,-512,-1193,-788,-300,-66,160,-262
20298,1192,0,2023-03-01T18:51:39.333472,1688855,1395,1826,-512,-1184,-779,-298,-66,160,-262
20299,1193,0,2023-03-01T18:51:39.339883,1688862,1395,1826,-512,-1184,-779,-298,-66,160,-262
