,Unnamed: 0,imu,server_time,arduino_time,ax,ay,az,gx,gy,gz,mx,my,mz
20300,1194,0,2023-03-01T18:51:39.344443,1688866,1395,1826,-512,-1184,-779,-298,-66,160,-262
20301,1195,0,2023-03-01T18:51:39.349974,1688871,1395,1826,-512,-1184,-779,-298,-66,160,-262
20302,1196,0,2023-03-01T18:51:39.354983,1688877,1394,1830,-509,-1178,-783,-308,-66,160,-262
20303,1197,0,2023-03-01T18:51:39.360667,1688883,1394,1830,-509,-1178,-783,-308,-66,160,-262
20304,1198,0,2023-03-01T18:51:39.365555,1688888,1394,1830,-509,-1178,-783,-308,-66,160,-262
20305,1199,0,2023-03-01T18:51:39.371275,1688893,1394,1830,-509,-1178,-783,-308,-66,160,-262
20306,1200,0,2023-03-01T18:51:39.376392,1688898,1390,1827,-506,-1179,-791,-298,-66,160,-262
20307,1201,0,2023-03-01T18:51:39.382967,1688905,1390,1827,-506,-1179,-791,-298,-66,160,-262
20308,1202,0,2023-03-01T18:51:39.388720,1688910,1390,1827,-506,-1179,-791,-298,-66,160,-262
20309,1203,0,2023-03-01T18:51:39.393813,1688915,1393,1828,-508,-1178,-788,-296,-66,160,-262
20310,1204,0,2023-03-01T18:51:39.399374,1688922,1393,1828,-508,-1178,-788,-296,-66,160,-262
20311,1205,0,2023-03-01T18:51:39.404375,1688926,1393,1828,-508,-1178,-788,-296,-66,160,-262
20312,1206,0,2023-03-01T18:51:39.410317,1688932,1393,1828,-508,-1178,-788,-296,-66,160,-262
20313,1207,0,2023-03-01T18:51:39.415189,1688937,1396,1834,-511,-1186,-791,-299,-60,160,-272
20314,1208,0,2023-03-01T18:51:39.421253,1688943,1396,1834,-511,-1186,-791,-299,-60,160,-272
20315,1209,0,2023-03-01T18:51:39.427129,1688949,1396,1834,-511,-1186,-791,-299,-60,160,-272
20316,1210,0,2023-03-01T18:51:39.432586,1688954,1394,1826,-507,-1192,-797,-292,-60,160,-272
20317,1211,0,2023-03-01T18:51:39.438161,1688961,1394,1826,-507,-1192,-797,-292,-60,160,-272
20318,1212,0,2023-03-01T18:51:39.443222,1688966,1394,1826,-507,-1192,-797,-292,-60,160,-272
20319,1213,0,2023-03-01T18:51:39.448519,1688971,1394,1826,-507,-1192,-797,-292,-60,160,-272
20320,1214,0,2023-03-01T18:51:39.453637,1688976,1394,1830,-514,-1196,-792,-296,-60,160,-272
20321,1215,0,2023-03-01T18:51:39.458896,1688981,1394,1830,-514,-1196,-792,-296,-60,160,-272
20322,1216,0,2023-03-01T18:51:39.463971,1688985,1394,1830,-514,-1196,-792,-296,-60,160,-272
20323,1217,0,2023-03-01T18:51:39.469689,1688991,1394,1830,-514,-1196,-792,-296,-60,160,-272
20324,1218,0,2023-03-01T18:51:39.474365,1688996,1398,1831,-506,-1194,-790,-304,-60,160,-272
20325,1219,0,2023-03-01T18:51:39.480150,1689003,1398,1831,-506,-1194,-790,-304,-60,160,-272
20326,1220,0,2023-03-01T18:51:39.485400,1689008,1398,1831,-506,-1194,-790,-304,-60,160,-272
20327,1221,0,2023-03-01T18:51:39.490979,1689013,1398,1831,-506,-1194,-790,-304,-60,160,-272
20328,1222,0,2023-03-01T18:51:39.496018,1689018,1393,1831,-511,-1185,-792,-296,-60,160,-272
20329,1223,0,2023-03-01T18:51:39.501620,1689024,1393,1831,-511,-1185,-792,-296,-60,160,-272
20330,1224,0,2023-03-01T18:51:39.507311,1689029,1393,1831,-511,-1185,-792,-296,-60,160,-272
20331,1225,0,2023-03-01T18:51:39.512101,1689034,1395,1828,-513,-1191,-799,-308,-60,160,-272
20332,1226,0,2023-03-01T18:51:39.517923,1689039,1395,1828,-513,-1191,-799,-308,-60,160,-272
20333,1227,0,2023-03-01T18:51:39.522227,1689044,1395,1828,-513,-1191,-799,-308,-60,160,-272
20334,1228,0,2023-03-01T18:51:39.527400,1689050,1395,1828,-513,-1191,-799,-308,-60,160,-272
20335,1229,0,2023-03-01T18:51:39.532263,1689054,1395,1826,-512,-1179,-788,-297,-60,160,-272
20336,1230,0,2023-03-01T18:51:39.537476,1689060,1395,1826,-512,-1179,-788,-297,-60,160,-272
20337,1231,0,2023-03-01T18:51:39.541849,1689064,1395,1826,-512,-1179,-788,-297,-60,160,-272
20338,1232,0,2023-03-01T18:51:39.547206,1689069,1395,1826,-512,-1179,-788,-297,-60,160,-272
20339,1233,0,2023-03-01T18:51:39.552135,1689074,1397,1830,-511,-1184,-790,-292,-60,160,-272
20340,1234,0,2023-03-01T18:51:39.557947,1689079,1397,1830,-511,-1184,-790,-292,-68,164,-270
20341,1235,0,2023-03-01T18:51:39.562901,1689084,1397,1830,-511,-1184,-790,-292,-68,164,-270
20342,1236,0,2023-03-01T18:51:39.568531,1689091,1397,1830,-511,-1184,-790,-292,-68,164,-270
20343,1237,0,2023-03-01T18:51:39.573581,1689096,1400,1829,-513,-1185,-793,-307,-68,164,-270
20344,1238,0,2023-03-01T18:51:39.579182,1689101,1400,1829,-513,-1185,-793,-307,-68,164,-270
20345,1239,0,2023-03-01T18:51:39.584069,1689106,1400,1829,-513,-1185,-793,-307,-68,164,-270
20346,1240,0,2023-03-01T18:51:39.589333,1689111,1400,1829,-513,-1185,-793,-307,-68,164,-270
20347,1241,0,2023-03-01T18:51:39.594500,1689116,1395,1826,-507,-1198,-794,-292,-68,164,-270
20348,1242,0,2023-03-01T18:51:39.600141,1689121,1395,1826,-507,-1198,-794,-292,-68,164,-270
20349,1243,0,2023-03-01T18:51:39.605054,1689127,1395,1826,-507,-1198,-794,-292,-68,164,-270
20350,1244,0,2023-03-01T18:51:39.610233,1689133,1395,1826,-507,-1198,-794,-292,-68,164,-270
20351,1245,0,2023-03-01T18:51:39.615409,1689137,1395,1832,-509,-1199,-801,-299,-68,164,-270
20352,1246,0,2023-03-01T18:51:39.620651,1689143,1395,1832,-509,-1199,-801,-299,-68,164,-270
20353,1247,0,2023-03-01T18:51:39.626059,1689148,1395,1832,-509,-1199,-801,-299,-68,164,-270
20354,1248,0,2023-03-01T18:51:39.631384,1689153,1395,1832,-509,-1199,-801,-299,-68,164,-270
20355,1249,0,2023-03-01T18:51:39.636706,1689158,1395,1827,-508,-1198,-794,-290,-68,164,-270
20356,1250,0,2023-03-01T18:51:39.642584,1689164,1395,1827,-508,-1198,-794,-290,-68,164,-270
20357,1251,0,2023-03-01T18:51:39.648000,1689169,1395,1827,-508,-1198,-794,-290,-68,164,-270
20358,1252,0,2023-03-01T18:51:39.653004,1689175,1394,1825,-513,-1197,-800,-295,-68,164,-270
20359,1253,0,2023-03-01T18:51:39.658448,1689181,1394,1825,-513,-1197,-800,-295,-68,164,-270
20360,1254,0,2023-03-01T18:51:39.663999,1689186,1394,1825,-513,-1197,-800,-295,-68,164,-270
20361,1255,0,2023-03-01T18:51:39.669373,1689191,1394,1825,-513,-1197,-800,-295,-68,164,-270
20362,1256,0,2023-03-01T18:51:39.674304,1689196,1397,1833,-512,-1202,-803,-297,-68,166,-272
20363,1257,0,2023-03-01T18:51:39.679962,1689202,1397,1833,-512,-1202,-803,-297,-68,166,-272
20364,1258,0,2023-03-01T18:51:39.684942,1689206,1397,1833,-512,-1202,-803,-297,-68,166,-272
20365,1259,0,2023-03-01T18:51:39.690566,1689212,1397,1833,-512,-1202,-803,-297,-68,166,-272
20366,1260,0,2023-03-01T18:51:39.695568,1689218,1393,1828,-513,-1192,-801,-296,-68,166,-272
20367,1261,0,2023-03-01T18:51:39.701421,1689224,1393,1828,-513,-1192,-801,-296,-68,166,-272
20368,1262,0,2023-03-01T18:51:39.707641,1689230,1393,1828,-513,-1192,-801,-296,-68,166,-272
20369,1263,0,2023-03-01T18:51:39.712789,1689235,1395,1830,-511,-1186,-785,-290,-68,166,-272
20370,1264,0,2023-03-01T18:51:39.718234,1689240,1395,1830,-511,-1186,-785,-290,-68,166,-272
20371,1265,0,2023-03-01T18:51:39.723038,1689245,1395,1830,-511,-1186,-785,-290,-68,166,-272
20372,1266,0,2023-03-01T18:51:39.728448,1689250,1395,1830,-511,-1186,-785,-290,-68,166,-272
20373,1267,0,2023-03-01T18:51:39.733197,1689255,1396,1829,-506,-1191,-789,-300,-68,166,-272
20374,1268,0,2023-03-01T18:51:39.738886,1689261,1396,1829,-506,-1191,-789,-300,-68,166,-272
20375,1269,0,2023-03-01T18:51:39.744691,1689267,1396,1829,-506,-1191,-789,-300,-68,166,-272
20376,1270,0,2023-03-01T18:51:39.750383,1689273,1396,1829,-506,-1191,-789,-300,-68,166,-272
20377,1271,0,2023-03-01T18:51:39.755347,1689277,1397,1824,-517,-1190,-798,-302,-68,166,-272
20378,1272,0,2023-03-01T18:51:39.760906,1689283,1397,1824,-517,-1190,-798,-302,-68,166,-272
20379,1273,0,2023-03-01T18:51:39.766647,1689288,1397,1824,-517,-1190,-798,-302,-68,166,-272
20380,1274,0,2023-03-01T18:51:39.772556,1689294,1395,1828,-518,-1184,-796,-297,-68,166,-272
20381,1275,0,2023-03-01T18:51:39.778570,1689300,1395,1828,-518,-1184,-796,-297,-68,166,-272
20382,1276,0,2023-03-01T18:51:39.783570,1689306,1395,1828,-518,-1184,-796,-297,-68,166,-272
20383,1277,0,2023-03-01T18:51:39.788695,1689311,1395,1828,-518,-1184,-796,-297,-68,166,-272
20384,1278,0,2023-03-01T18:51:39.794126,1689316,1396,1830,-511,-1200,-787,-294,-66,162,-270
20385,1279,0,2023-03-01T18:51:39.800121,1689322,1396,1830,-511,-1200,-787,-294,-66,162,-270
20386,1280,0,2023-03-01T18:51:39.805977,1689327,1396,1830,-511,-1200,-787,-294,-66,162,-270
20387,1281,0,2023-03-01T18:51:39.811859,1689333,1396,1830,-511,-1200,-787,-294,-66,162,-270
20388,1282,0,2023-03-01T18:51:39.817145,1689338,1396,1828,-511,-1190,-789,-288,-66,162,-270
20389,1283,0,2023-03-01T18:51:39.823376,1689346,1396,1828,-511,-1190,-789,-288,-66,162,-270
20390,1284,0,2023-03-01T18:51:39.829098,1689351,1396,1828,-511,-1190,-789,-288,-66,162,-270
20391,1285,0,2023-03-01T18:51:39.833975,1689356,1402,1836,-517,-1190,-790,-296,-66,162,-270
20392,1286,0,2023-03-01T18:51:39.839603,1689361,1402,1836,-517,-1190,-790,-296,-66,162,-270
20393,1287,0,2023-03-01T18:51:39.844502,1689366,1402,1836,-517,-1190,-790,-296,-66,162,-270
20394,1288,0,2023-03-01T18:51:39.850255,1689372,1402,1836,-517,-1190,-790,-296,-66,162,-270
20395,1289,0,2023-03-01T18:51:39.856663,1689378,1394,1829,-506,-1191,-795,-301,-66,162,-270
20396,1290,0,2023-03-01T18:51:39.863033,1689384,1394,1829,-506,-1191,-795,-301,-66,162,-270
20397,1291,0,2023-03-01T18:51:39.868722,1689391,1394,1829,-506,-1191,-795,-301,-66,162,-270
20398,1292,0,2023-03-01T18:51:39.874019,1689396,1394,1830,-514,-1190,-788,-298,-66,162,-270
20399,1293,0,2023-03-01T18:51:39.880225,1689402,1394,1830,-514,-1190,-788,-298,-66,162,-270
20400,1294,0,2023-03-01T18:51:39.885816,1689408,1394,1830,-514,-1190,-788,-298,-66,162,-270
20401,1295,0,2023-03-01T18:51:39.891612,1689413,1394,1830,-514,-1190,-788,-298,-66,162,-270
20402,1296,0,2023-03-01T18:51:39.896951,1689419,1402,1832,-518,-1187,-784,-295,-66,162,-270
20403,1297,0,2023-03-01T18:51:39.903116,1689424,1402,1832,-518,-1187,-784,-295,-66,162,-270
20404,1298,0,2023-03-01T18:51:39.908818,1689431,1402,1832,-518,-1187,-784,-295,-66,162,-270
20405,1299,0,2023-03-01T18:51:39.913851,1689436,1394,1828,-511,-1182,-783,-297,-66,162,-270
20406,1300,0,2023-03-01T18:51:39.919291,1689442,1394,1828,-511,-1182,-783,-297,-66,162,-270
20407,1301,0,2023-03-01T18:51:39.924402,1689446,1394,1828,-511,-1182,-783,-297,-66,162,-270
20408,1302,0,2023-03-01T18:51:39.929644,1689452,1394,1828,-511,-1182,-783,-297,-66,162,-270
20409,1303,0,2023-03-01T18:51:39.934491,1689456,1398,1831,-511,-1186,-788,-297,-62,168,-264
20410,1304,0,2023-03-01T18:51:39.940101,1689462,1398,1831,-511,-1186,-788,-297,-62,168,-264
20411,1305,0,2023-03-01T18:51:39.945741,1689467,1398,1831,-511,-1186,-788,-297,-62,168,-264
20412,1306,0,2023-03-01T18:51:39.950975,1689473,1398,1831,-511,-1186,-788,-297,-62,168,-264
20413,1307,0,2023-03-01T18:51:39.956045,1689478,1398,1829,-513,-1180,-780,-299,-62,168,-264
20414,1308,0,2023-03-01T18:51:39.961494,1689484,1398,1829,-513,-1180,-780,-299,-62,168,-264
20415,1309,0,2023-03-01T18:51:39.967029,1689489,1398,1829,-513,-1180,-780,-299,-62,168,-264
20416,1310,0,2023-03-01T18:51:39.971523,1689494,1398,1829,-513,-1180,-780,-299,-62,168,-264
20417,1311,0,2023-03-01T18:51:39.976167,1689498,1395,1824,-511,-1185,-777,-296,-62,168,-264
20418,1312,0,2023-03-01T18:51:39.981566,1689503,1395,1824,-511,-1185,-777,-296,-62,168,-264
20419,1313,0,2023-03-01T18:51:39.987927,1689509,1395,1824,-511,-1185,-777,-296,-62,168,-264
20420,1314,0,2023-03-01T18:51:39.992590,1689515,1396,1831,-511,-1184,-782,-306,-62,168,-264
20421,1315,0,2023-03-01T18:51:39.997866,1689520,1396,1831,-511,-1184,-782,-306,-62,168,-264
20422,1316,0,2023-03-01T18:51:40.002548,1689525,1396,1831,-511,-1184,-782,-306,-62,168,-264
20423,1317,0,2023-03-01T18:51:40.007483,1689530,1396,1831,-511,-1184,-782,-306,-62,168,-264
20424,1318,0,2023-03-01T18:51:40.012401,1689534,1396,1831,-511,-1184,-782,-306,-62,168,-264
20425,1319,0,2023-03-01T18:51:40.017269,1689539,1396,1830,-516,-1167,-771,-298,-62,168,-264
20426,1320,0,2023-03-01T18:51:40.023957,1689546,1396,1830,-516,-1167,-771,-298,-62,168,-264
20427,1321,0,2023-03-01T18:51:40.029662,1689551,1396,1830,-516,-1167,-771,-298,-62,168,-264
20428,1322,0,2023-03-01T18:51:40.034552,1689556,1394,1827,-509,-1168,-775,-302,-62,168,-264
20429,1323,0,2023-03-01T18:51:40.040005,1689562,1394,1827,-509,-1168,-775,-302,-62,168,-264
20430,1324,0,2023-03-01T18:51:40.045119,1689567,1394,1827,-509,-1168,-775,-302,-62,168,-264
20431,1325,0,2023-03-01T18:51:40.050580,1689573,1394,1827,-509,-1168,-775,-302,-62,168,-264
20432,1326,0,2023-03-01T18:51:40.056614,1689578,1395,1830,-510,-1173,-769,-297,-58,166,-262
20433,1327,0,2023-03-01T18:51:40.062205,1689584,1395,1830,-510,-1173,-769,-297,-58,166,-262
20434,1328,0,2023-03-01T18:51:40.067884,1689590,1395,1830,-510,-1173,-769,-297,-58,166,-262
20435,1329,0,2023-03-01T18:51:40.072671,1689594,1396,1827,-512,-1161,-766,-303,-58,166,-262
20436,1330,0,2023-03-01T18:51:40.078670,1689601,1396,1827,-512,-1161,-766,-303,-58,166,-262
20437,1331,0,2023-03-01T18:51:40.083279,1689606,1396,1827,-512,-1161,-766,-303,-58,166,-262
20438,1332,0,2023-03-01T18:51:40.088786,1689611,1396,1827,-512,-1161,-766,-303,-58,166,-262
20439,1333,0,2023-03-01T18:51:40.093916,1689616,1399,1827,-515,-1160,-751,-305,-58,166,-262
20440,1334,0,2023-03-01T18:51:40.099159,1689621,1399,1827,-515,-1160,-751,-305,-58,166,-262
20441,1335,0,2023-03-01T18:51:40.104117,1689626,1399,1827,-515,-1160,-751,-305,-58,166,-262
20442,1336,0,2023-03-01T18:51:40.109700,1689631,1399,1827,-515,-1160,-751,-305,-58,166,-262
20443,1337,0,2023-03-01T18:51:40.114133,1689636,1392,1830,-512,-1161,-752,-309,-58,166,-262
20444,1338,0,2023-03-01T18:51:40.119421,1689641,1392,1830,-512,-1161,-752,-309,-58,166,-262
20445,1339,0,2023-03-01T18:51:40.124339,1689646,1392,1830,-512,-1161,-752,-309,-58,166,-262
20446,1340,0,2023-03-01T18:51:40.130048,1689652,1392,1830,-512,-1161,-752,-309,-58,166,-262
20447,1341,0,2023-03-01T18:51:40.135122,1689657,1397,1824,-508,-1167,-762,-294,-58,166,-262
20448,1342,0,2023-03-01T18:51:40.140874,1689663,1397,1824,-508,-1167,-762,-294,-58,166,-262
20449,1343,0,2023-03-01T18:51:40.146219,1689668,1397,1824,-508,-1167,-762,-294,-58,166,-262
20450,1344,0,2023-03-01T18:51:40.151720,1689674,1397,1824,-508,-1167,-762,-294,-58,166,-262
20451,1345,0,2023-03-01T18:51:40.156773,1689678,1397,1828,-517,-1178,-777,-298,-58,166,-262
20452,1346,0,2023-03-01T18:51:40.162235,1689684,1397,1828,-517,-1178,-777,-298,-58,166,-262
20453,1347,0,2023-03-01T18:51:40.167776,1689690,1397,1828,-517,-1178,-777,-298,-58,166,-262
20454,1348,0,2023-03-01T18:51:40.172356,1689695,1397,1828,-517,-1178,-777,-298,-58,166,-262
20455,1349,0,2023-03-01T18:51:40.176960,1689699,1394,1828,-509,-1177,-774,-294,-58,166,-262
20456,1350,0,2023-03-01T18:51:40.183270,1689705,1394,1828,-509,-1177,-774,-294,-58,166,-262
20457,1351,0,2023-03-01T18:51:40.189056,1689711,1394,1828,-509,-1177,-774,-294,-58,166,-262
20458,1352,0,2023-03-01T18:51:40.194106,1689716,1399,1827,-510,-1180,-790,-298,-71,153,-265
20459,1353,0,2023-03-01T18:51:40.199582,1689721,1399,1827,-510,-1180,-790,-298,-71,153,-265
20460,1354,0,2023-03-01T18:51:40.205532,1689728,1399,1827,-510,-1180,-790,-298,-71,153,-265
20461,1355,0,2023-03-01T18:51:40.210357,1689733,1399,1827,-510,-1180,-790,-298,-71,153,-265
20462,1356,0,2023-03-01T18:51:40.215491,1689738,1397,1831,-511,-1188,-796,-300,-71,153,-265
20463,1357,0,2023-03-01T18:51:40.221444,1689743,1397,1831,-511,-1188,-796,-300,-71,153,-265
20464,1358,0,2023-03-01T18:51:40.226179,1689748,1397,1831,-511,-1188,-796,-300,-71,153,-265
20465,1359,0,2023-03-01T18:51:40.231325,1689753,1397,1831,-511,-1188,-796,-300,-71,153,-265
20466,1360,0,2023-03-01T18:51:40.235790,1689758,1396,1822,-513,-1196,-796,-300,-71,153,-265
20467,1361,0,2023-03-01T18:51:40.241630,1689763,1396,1822,-513,-1196,-796,-300,-71,153,-265
20468,1362,0,2023-03-01T18:51:40.247747,1689769,1396,1822,-513,-1196,-796,-300,-71,153,-265
20469,1363,0,2023-03-01T18:51:40.252485,1689775,1396,1822,-513,-1196,-796,-300,-71,153,-265
20470,1364,0,2023-03-01T18:51:40.257220,1689780,1399,1829,-514,-1199,-795,-299,-71,153,-265
20471,1365,0,2023-03-01T18:51:40.263078,1689785,1399,1829,-514,-1199,-795,-299,-71,153,-265
20472,1366,0,2023-03-01T18:51:40.267882,1689790,1399,1829,-514,-1199,-795,-299,-71,153,-265
20473,1367,0,2023-03-01T18:51:40.272730,1689795,1399,1829,-514,-1199,-795,-299,-71,153,-265
20474,1368,0,2023-03-01T18:51:40.277686,1689799,1398,1828,-518,-1194,-787,-301,-71,153,-265
20475,1369,0,2023-03-01T18:51:40.283264,1689805,1398,1828,-518,-1194,-787,-301,-71,153,-265
20476,1370,0,2023-03-01T18:51:40.288614,1689810,1398,1828,-518,-1194,-787,-301,-71,153,-265
20477,1371,0,2023-03-01T18:51:40.293926,1689816,1395,1829,-506,-1181,-787,-303,-71,153,-265
20478,1372,0,2023-03-01T18:51:40.300006,1689822,1395,1829,-506,-1181,-787,-303,-71,153,-265
20479,1373,0,2023-03-01T18:51:40.305696,1689828,1395,1829,-506,-1181,-787,-303,-71,153,-265
20480,1374,0,2023-03-01T18:51:40.311454,1689833,1395,1829,-506,-1181,-787,-303,-71,153,-265
20481,1375,0,2023-03-01T18:51:40.316976,1689838,1400,1831,-513,-1183,-787,-299,-65,167,-271
20482,1376,0,2023-03-01T18:51:40.322624,1689844,1400,1831,-513,-1183,-787,-299,-65,167,-271
20483,1377,0,2023-03-01T18:51:40.329645,1689851,1400,1831,-513,-1183,-787,-299,-65,167,-271
20484,1378,0,2023-03-01T18:51:40.334323,1689857,1394,1827,-514,-1184,-792,-299,-65,167,-271
20485,1379,0,2023-03-01T18:51:40.339982,1689862,1394,1827,-514,-1184,-792,-299,-65,167,-271
20486,1380,0,2023-03-01T18:51:40.344737,1689867,1394,1827,-514,-1184,-792,-299,-65,167,-271
20487,1381,0,2023-03-01T18:51:40.350141,1689872,1394,1827,-514,-1184,-792,-299,-65,167,-271
20488,1382,0,2023-03-01T18:51:40.355354,1689877,1397,1828,-514,-1178,-786,-299,-65,167,-271
20489,1383,0,2023-03-01T18:51:40.360965,1689883,1397,1828,-514,-1178,-786,-299,-65,167,-271
20490,1384,0,2023-03-01T18:51:40.366417,1689888,1397,1828,-514,-1178,-786,-299,-65,167,-271
20491,1385,0,2023-03-01T18:51:40.371947,1689893,1397,1828,-514,-1178,-786,-299,-65,167,-271
20492,1386,0,2023-03-01T18:51:40.377184,1689899,1399,1828,-514,-1179,-787,-305,-65,167,-271
20493,1387,0,2023-03-01T18:51:40.383580,1689906,1399,1828,-514,-1179,-787,-305,-65,167,-271
20494,1388,0,2023-03-01T18:51:40.388946,1689911,1399,1828,-514,-1179,-787,-305,-65,167,-271
20495,1389,0,2023-03-01T18:51:40.394172,1689916,1397,1823,-511,-1189,-796,-297,-65,167,-271
20496,1390,0,2023-03-01T18:51:40.399479,1689922,1397,1823,-511,-1189,-796,-297,-65,167,-271
20497,1391,0,2023-03-01T18:51:40.404570,1689926,1397,1823,-511,-1189,-796,-297,-65,167,-271
20498,1392,0,2023-03-01T18:51:40.410885,1689932,1397,1823,-511,-1189,-796,-297,-65,167,-271
20499,1393,0,2023-03-01T18:51:40.416510,1689937,1399,1828,-510,-1199,-799,-289,-65,167,-271
20500,1394,0,2023-03-01T18:51:40.421976,1689944,1399,1828,-510,-1199,-799,-289,-65,167,-271
20501,1395,0,2023-03-01T18:51:40.426940,1689949,1399,1828,-510,-1199,-799,-289,-65,167,-271
20502,1396,0,2023-03-01T18:51:40.432128,1689954,1399,1828,-510,-1199,-799,-289,-65,167,-271
20503,1397,0,2023-03-01T18:51:40.436701,1689959,1397,1827,-513,-1194,-801,-294,-65,167,-271
20504,1398,0,2023-03-01T18:51:40.442674,1689964,1397,1827,-513,-1194,-801,-294,-65,167,-271
20505,1399,0,2023-03-01T18:51:40.448699,1689970,1397,1827,-513,-1194,-801,-294,-65,167,-271
20506,1400,0,2023-03-01T18:51:40.453482,1689975,1394,1829,-510,-1192,-796,-301,-62,167,-271
20507,1401,0,2023-03-01T18:51:40.459283,1689981,1394,1829,-510,-1192,-796,-301,-62,170,-266
20508,1402,0,2023-03-01T18:51:40.464596,1689987,1394,1829,-510,-1192,-796,-301,-62,170,-266
20509,1403,0,2023-03-01T18:51:40.469843,1689992,1394,1829,-510,-1192,-796,-301,-62,170,-266
20510,1404,0,2023-03-01T18:51:40.475598,1689998,1399,1827,-515,-1194,-794,-293,-62,170,-266
20511,1405,0,2023-03-01T18:51:40.480774,1690003,1399,1827,-515,-1194,-794,-293,-62,170,-266
20512,1406,0,2023-03-01T18:51:40.486237,1690008,1399,1827,-515,-1194,-794,-293,-62,170,-266
20513,1407,0,2023-03-01T18:51:40.491828,1690014,1399,1827,-515,-1194,-794,-293,-62,170,-266
20514,1408,0,2023-03-01T18:51:40.496541,1690018,1396,1825,-511,-1182,-792,-295,-62,170,-266
20515,1409,0,2023-03-01T18:51:40.502278,1690024,1396,1825,-511,-1182,-792,-295,-62,170,-266
20516,1410,0,2023-03-01T18:51:40.507813,1690030,1396,1825,-511,-1182,-792,-295,-62,170,-266
20517,1411,0,2023-03-01T18:51:40.512638,1690035,1396,1825,-511,-1182,-792,-295,-62,170,-266
20518,1412,0,2023-03-01T18:51:40.518340,1690040,1400,1829,-511,-1186,-792,-295,-62,170,-266
20519,1413,0,2023-03-01T18:51:40.524652,1690047,1400,1829,-511,-1186,-792,-295,-62,170,-266
20520,1414,0,2023-03-01T18:51:40.530266,1690052,1400,1829,-511,-1186,-792,-295,-62,170,-266
20521,1415,0,2023-03-01T18:51:40.535446,1690057,1400,1831,-511,-1189,-790,-307,-62,170,-266
20522,1416,0,2023-03-01T18:51:40.540744,1690062,1400,1831,-511,-1189,-790,-307,-62,170,-266
20523,1417,0,2023-03-01T18:51:40.545745,1690067,1400,1831,-511,-1189,-790,-307,-62,170,-266
20524,1418,0,2023-03-01T18:51:40.551446,1690074,1400,1831,-511,-1189,-790,-307,-62,170,-266
20525,1419,0,2023-03-01T18:51:40.555879,1690078,1398,1823,-521,-1193,-792,-297,-62,170,-266
20526,1420,0,2023-03-01T18:51:40.561401,1690084,1398,1823,-521,-1193,-792,-297,-62,170,-266
20527,1421,0,2023-03-01T18:51:40.567329,1690089,1398,1823,-521,-1193,-792,-297,-62,170,-266
20528,1422,0,2023-03-01T18:51:40.572546,1690094,1398,1823,-521,-1193,-792,-297,-62,170,-266
20529,1423,0,2023-03-01T18:51:40.577637,1690099,1398,1830,-517,-1191,-802,-299,-64,160,-270
20530,1424,0,2023-03-01T18:51:40.583905,1690106,1398,1830,-517,-1191,-802,-299,-64,160,-270
20531,1425,0,2023-03-01T18:51:40.589050,1690112,1398,1830,-517,-1191,-802,-299,-64,160,-270
20532,1426,0,2023-03-01T18:51:40.594031,1690116,1396,1827,-512,-1191,-795,-304,-64,160,-270
20533,1427,0,2023-03-01T18:51:40.599628,1690122,1396,1827,-512,-1191,-795,-304,-64,160,-270
20534,1428,0,2023-03-01T18:51:40.604077,1690126,1396,1827,-512,-1191,-795,-304,-64,160,-270
20535,1429,0,2023-03-01T18:51:40.609875,1690132,1396,1827,-512,-1191,-795,-304,-64,160,-270
20536,1430,0,2023-03-01T18:51:40.614695,1690137,1393,1829,-516,-1195,-793,-294,-64,160,-270
20537,1431,0,2023-03-01T18:51:40.620128,1690142,1393,1829,-516,-1195,-793,-294,-64,160,-270
20538,1432,0,2023-03-01T18:51:40.624760,1690147,1393,1829,-516,-1195,-793,-294,-64,160,-270
20539,1433,0,2023-03-01T18:51:40.630551,1690152,1393,1829,-516,-1195,-793,-294,-64,160,-270
20540,1434,0,2023-03-01T18:51:40.635727,1690158,1400,1825,-516,-1184,-795,-298,-64,160,-270
20541,1435,0,2023-03-01T18:51:40.641143,1690163,1400,1825,-516,-1184,-795,-298,-64,160,-270
20542,1436,0,2023-03-01T18:51:40.645973,1690168,1400,1825,-516,-1184,-795,-298,-64,160,-270
20543,1437,0,2023-03-01T18:51:40.651252,1690173,1400,1825,-516,-1184,-795,-298,-64,160,-270
20544,1438,0,2023-03-01T18:51:40.656159,1690178,1399,1823,-510,-1178,-790,-299,-64,160,-270
20545,1439,0,2023-03-01T18:51:40.662030,1690184,1399,1823,-510,-1178,-790,-299,-64,160,-270
20546,1440,0,2023-03-01T18:51:40.667932,1690190,1399,1823,-510,-1178,-790,-299,-64,160,-270
20547,1441,0,2023-03-01T18:51:40.672676,1690194,1399,1823,-510,-1178,-790,-299,-64,160,-270
20548,1442,0,2023-03-01T18:51:40.677568,1690200,1402,1829,-512,-1184,-795,-301,-64,160,-270
20549,1443,0,2023-03-01T18:51:40.684307,1690206,1402,1829,-512,-1184,-795,-301,-64,160,-270
20550,1444,0,2023-03-01T18:51:40.689350,1690211,1402,1829,-512,-1184,-795,-301,-64,160,-270
20551,1445,0,2023-03-01T18:51:40.694846,1690217,1397,1830,-511,-1191,-796,-301,-67,165,-269
20552,1446,0,2023-03-01T18:51:40.700248,1690222,1397,1830,-511,-1191,-796,-301,-67,165,-269
20553,1447,0,2023-03-01T18:51:40.705169,1690227,1397,1830,-511,-1191,-796,-301,-67,165,-269
20554,1448,0,2023-03-01T18:51:40.710457,1690232,1397,1830,-511,-1191,-796,-301,-67,165,-269
20555,1449,0,2023-03-01T18:51:40.715315,1690237,1398,1826,-505,-1193,-799,-305,-67,165,-269
20556,1450,0,2023-03-01T18:51:40.720905,1690243,1398,1826,-505,-1193,-799,-305,-67,165,-269
20557,1451,0,2023-03-01T18:51:40.725681,1690248,1398,1826,-505,-1193,-799,-305,-67,165,-269
20558,1452,0,2023-03-01T18:51:40.731334,1690253,1398,1826,-505,-1193,-799,-305,-67,165,-269
20559,1453,0,2023-03-01T18:51:40.736410,1690258,1402,1828,-512,-1188,-797,-295,-67,165,-269
20560,1454,0,2023-03-01T18:51:40.742268,1690264,1402,1828,-512,-1188,-797,-295,-67,165,-269
20561,1455,0,2023-03-01T18:51:40.748601,1690270,1402,1828,-512,-1188,-797,-295,-67,165,-269
20562,1456,0,2023-03-01T18:51:40.753278,1690275,1399,1827,-518,-1197,-801,-296,-67,165,-269
20563,1457,0,2023-03-01T18:51:40.758609,1690280,1399,1827,-518,-1197,-801,-296,-67,165,-269
20564,1458,0,2023-03-01T18:51:40.763381,1690286,1399,1827,-518,-1197,-801,-296,-67,165,-269
20565,1459,0,2023-03-01T18:51:40.769156,1690291,1399,1827,-518,-1197,-801,-296,-67,165,-269
20566,1460,0,2023-03-01T18:51:40.774043,1690296,1398,1828,-516,-1193,-805,-299,-67,165,-269
20567,1461,0,2023-03-01T18:51:40.779411,1690301,1398,1828,-516,-1193,-805,-299,-67,165,-269
20568,1462,0,2023-03-01T18:51:40.784237,1690306,1398,1828,-516,-1193,-805,-299,-67,165,-269
20569,1463,0,2023-03-01T18:51:40.789574,1690312,1398,1828,-516,-1193,-805,-299,-67,165,-269
20570,1464,0,2023-03-01T18:51:40.795056,1690316,1402,1825,-517,-1181,-799,-303,-67,165,-269
20571,1465,0,2023-03-01T18:51:40.800738,1690322,1402,1825,-517,-1181,-799,-303,-67,165,-269
20572,1466,0,2023-03-01T18:51:40.805997,1690328,1402,1825,-517,-1181,-799,-303,-67,165,-269
20573,1467,0,2023-03-01T18:51:40.811545,1690334,1402,1825,-517,-1181,-799,-303,-67,165,-269
20574,1468,0,2023-03-01T18:51:40.816405,1690338,1401,1825,-513,-1179,-795,-296,-67,165,-269
20575,1469,0,2023-03-01T18:51:40.822359,1690344,1401,1825,-513,-1179,-795,-296,-67,165,-269
20576,1470,0,2023-03-01T18:51:40.828423,1690350,1401,1825,-513,-1179,-795,-296,-67,165,-269
20577,1471,0,2023-03-01T18:51:40.833959,1690355,1401,1829,-518,-1196,-797,-305,-67,165,-269
20578,1472,0,2023-03-01T18:51:40.840057,1690362,1401,1829,-518,-1196,-797,-305,-66,164,-272
20579,1473,0,2023-03-01T18:51:40.845675,1690368,1401,1829,-518,-1196,-797,-305,-66,164,-272
20580,1474,0,2023-03-01T18:51:40.851515,1690374,1401,1829,-518,-1196,-797,-305,-66,164,-272
20581,1475,0,2023-03-01T18:51:40.856278,1690378,1396,1821,-517,-1184,-799,-299,-66,164,-272
20582,1476,0,2023-03-01T18:51:40.861829,1690384,1396,1821,-517,-1184,-799,-299,-66,164,-272
20583,1477,0,2023-03-01T18:51:40.867651,1690389,1396,1821,-517,-1184,-799,-299,-66,164,-272
20584,1478,0,2023-03-01T18:51:40.872540,1690395,1396,1821,-517,-1184,-799,-299,-66,164,-272
20585,1479,0,2023-03-01T18:51:40.877074,1690399,1397,1826,-517,-1189,-795,-303,-66,164,-272
20586,1480,0,2023-03-01T18:51:40.882693,1690404,1397,1826,-517,-1189,-795,-303,-66,164,-272
20587,1481,0,2023-03-01T18:51:40.889149,1690411,1397,1826,-517,-1189,-795,-303,-66,164,-272
20588,1482,0,2023-03-01T18:51:40.894792,1690417,1401,1826,-516,-1191,-791,-298,-66,164,-272
20589,1483,0,2023-03-01T18:51:40.900415,1690422,1401,1826,-516,-1191,-791,-298,-66,164,-272
20590,1484,0,2023-03-01T18:51:40.905319,1690427,1401,1826,-516,-1191,-791,-298,-66,164,-272
20591,1485,0,2023-03-01T18:51:40.910697,1690433,1401,1826,-516,-1191,-791,-298,-66,164,-272
20592,1486,0,2023-03-01T18:51:40.915397,1690437,1396,1824,-509,-1186,-801,-293,-66,164,-272
20593,1487,0,2023-03-01T18:51:40.921174,1690443,1396,1824,-509,-1186,-801,-293,-66,164,-272
20594,1488,0,2023-03-01T18:51:40.926371,1690448,1396,1824,-509,-1186,-801,-293,-66,164,-272
20595,1489,0,2023-03-01T18:51:40.932860,1690455,1396,1824,-509,-1186,-801,-293,-66,164,-272
20596,1490,0,2023-03-01T18:51:40.937588,1690460,1398,1827,-521,-1197,-811,-299,-66,164,-272
20597,1491,0,2023-03-01T18:51:40.943417,1690466,1398,1827,-521,-1197,-811,-299,-66,164,-272
20598,1492,0,2023-03-01T18:51:40.949113,1690471,1398,1827,-521,-1197,-811,-299,-66,164,-272
20599,1493,0,2023-03-01T18:51:40.954775,1690476,1396,1829,-513,-1185,-797,-305,-65,164,-272
20600,1494,0,2023-03-01T18:51:40.960308,1690482,1396,1829,-513,-1185,-797,-305,-65,161,-273
20601,1495,0,2023-03-01T18:51:40.964628,1690487,1396,1829,-513,-1185,-797,-305,-65,161,-273
20602,1496,0,2023-03-01T18:51:40.969988,1690491,1396,1829,-513,-1185,-797,-305,-65,161,-273
20603,1497,0,2023-03-01T18:51:40.974608,1690497,1396,1824,-512,-1176,-783,-302,-65,161,-273
20604,1498,0,2023-03-01T18:51:40.980240,1690502,1396,1824,-512,-1176,-783,-302,-65,161,-273
20605,1499,0,2023-03-01T18:51:40.986256,1690508,1396,1824,-512,-1176,-783,-302,-65,161,-273
20606,1500,0,2023-03-01T18:51:40.991759,1690514,1396,1824,-512,-1176,-783,-302,-65,161,-273
20607,1501,0,2023-03-01T18:51:40.996529,1690518,1399,1828,-514,-1190,-791,-301,-65,161,-273
20608,1502,0,2023-03-01T18:51:41.002130,1690524,1399,1828,-514,-1190,-791,-301,-65,161,-273
20609,1503,0,2023-03-01T18:51:41.008576,1690530,1399,1828,-514,-1190,-791,-301,-65,161,-273
20610,1504,0,2023-03-01T18:51:41.013315,1690535,1399,1828,-514,-1190,-791,-301,-65,161,-273
20611,1505,0,2023-03-01T18:51:41.018433,1690541,1396,1826,-515,-1185,-793,-295,-65,161,-273
20612,1506,0,2023-03-01T18:51:41.024441,1690547,1396,1826,-515,-1185,-793,-295,-65,161,-273
20613,1507,0,2023-03-01T18:51:41.029835,1690552,1396,1826,-515,-1185,-793,-295,-65,161,-273
20614,1508,0,2023-03-01T18:51:41.034535,1690557,1403,1825,-513,-1187,-793,-300,-65,161,-273
20615,1509,0,2023-03-01T18:51:41.040269,1690562,1403,1825,-513,-1187,-793,-300,-65,161,-273
20616,1510,0,2023-03-01T18:51:41.045913,1690568,1403,1825,-513,-1187,-793,-300,-65,161,-273
20617,1511,0,2023-03-01T18:51:41.051374,1690573,1403,1825,-513,-1187,-793,-300,-65,161,-273
20618,1512,0,2023-03-01T18:51:41.056112,1690578,1401,1826,-516,-1192,-800,-295,-65,161,-273
20619,1513,0,2023-03-01T18:51:41.061341,1690584,1401,1826,-516,-1192,-800,-295,-65,161,-273
20620,1514,0,2023-03-01T18:51:41.069323,1690591,1401,1826,-516,-1192,-800,-295,-65,161,-273
20621,1515,0,2023-03-01T18:51:41.074144,1690596,1398,1822,-525,-1196,-796,-299,-65,161,-273
20622,1516,0,2023-03-01T18:51:41.079560,1690602,1398,1822,-525,-1196,-796,-299,-65,161,-273
20623,1517,0,2023-03-01T18:51:41.085775,1690607,1398,1822,-525,-1196,-796,-299,-65,161,-273
20624,1518,0,2023-03-01T18:51:41.091277,1690613,1398,1822,-525,-1196,-796,-299,-65,161,-273
20625,1519,0,2023-03-01T18:51:41.096508,1690618,1398,1827,-510,-1202,-797,-304,-61,169,-263
20626,1520,0,2023-03-01T18:51:41.101968,1690624,1398,1827,-510,-1202,-797,-304,-61,169,-263
20627,1521,0,2023-03-01T18:51:41.107778,1690630,1398,1827,-510,-1202,-797,-304,-61,169,-263
20628,1522,0,2023-03-01T18:51:41.112611,1690635,1398,1827,-510,-1202,-797,-304,-61,169,-263
20629,1523,0,2023-03-01T18:51:41.117944,1690640,1401,1824,-509,-1192,-796,-294,-61,169,-263
20630,1524,0,2023-03-01T18:51:41.124204,1690646,1401,1824,-509,-1192,-796,-294,-61,169,-263
20631,1525,0,2023-03-01T18:51:41.130356,1690652,1401,1824,-509,-1192,-796,-294,-61,169,-263
20632,1526,0,2023-03-01T18:51:41.135456,1690657,1398,1826,-511,-1192,-806,-296,-61,169,-263
20633,1527,0,2023-03-01T18:51:41.142125,1690663,1398,1826,-511,-1192,-806,-296,-61,169,-263
20634,1528,0,2023-03-01T18:51:41.148015,1690670,1398,1826,-511,-1192,-806,-296,-61,169,-263
20635,1529,0,2023-03-01T18:51:41.153004,1690675,1398,1826,-511,-1192,-806,-296,-61,169,-263
20636,1530,0,2023-03-01T18:51:41.158238,1690680,1398,1824,-519,-1186,-801,-293,-61,169,-263
20637,1531,0,2023-03-01T18:51:41.164344,1690686,1398,1824,-519,-1186,-801,-293,-61,169,-263
20638,1532,0,2023-03-01T18:51:41.169601,1690691,1398,1824,-519,-1186,-801,-293,-61,169,-263
20639,1533,0,2023-03-01T18:51:41.175058,1690696,1401,1824,-517,-1171,-788,-290,-61,169,-263
20640,1534,0,2023-03-01T18:51:41.180619,1690702,1401,1824,-517,-1171,-788,-290,-61,169,-263
20641,1535,0,2023-03-01T18:51:41.186382,1690708,1401,1824,-517,-1171,-788,-290,-61,169,-263
20642,1536,0,2023-03-01T18:51:41.191762,1690714,1401,1824,-517,-1171,-788,-290,-61,169,-263
20643,1537,0,2023-03-01T18:51:41.196864,1690719,1398,1829,-513,-1191,-799,-295,-61,169,-263
20644,1538,0,2023-03-01T18:51:41.202762,1690725,1398,1829,-513,-1191,-799,-295,-61,169,-263
20645,1539,0,2023-03-01T18:51:41.209124,1690731,1398,1829,-513,-1191,-799,-295,-61,169,-263
20646,1540,0,2023-03-01T18:51:41.214395,1690736,1398,1826,-516,-1193,-794,-296,-68,176,-264
20647,1541,0,2023-03-01T18:51:41.220007,1690742,1398,1826,-516,-1193,-794,-296,-68,176,-264
20648,1542,0,2023-03-01T18:51:41.225354,1690747,1398,1826,-516,-1193,-794,-296,-68,176,-264
20649,1543,0,2023-03-01T18:51:41.230777,1690753,1398,1826,-516,-1193,-794,-296,-68,176,-264
20650,1544,0,2023-03-01T18:51:41.235502,1690758,1398,1823,-512,-1191,-794,-303,-68,176,-264
20651,1545,0,2023-03-01T18:51:41.240759,1690763,1398,1823,-512,-1191,-794,-303,-68,176,-264
20652,1546,0,2023-03-01T18:51:41.245608,1690768,1398,1823,-512,-1191,-794,-303,-68,176,-264
20653,1547,0,2023-03-01T18:51:41.251011,1690773,1398,1823,-512,-1191,-794,-303,-68,176,-264
20654,1548,0,2023-03-01T18:51:41.255782,1690778,1399,1830,-509,-1191,-805,-308,-68,176,-264
20655,1549,0,2023-03-01T18:51:41.261139,1690783,1399,1830,-509,-1191,-805,-308,-68,176,-264
20656,1550,0,2023-03-01T18:51:41.265858,1690788,1399,1830,-509,-1191,-805,-308,-68,176,-264
20657,1551,0,2023-03-01T18:51:41.271450,1690793,1399,1830,-509,-1191,-805,-308,-68,176,-264
20658,1552,0,2023-03-01T18:51:41.276177,1690799,1396,1824,-516,-1191,-794,-303,-68,176,-264
20659,1553,0,2023-03-01T18:51:41.281461,1690804,1396,1824,-516,-1191,-794,-303,-68,176,-264
20660,1554,0,2023-03-01T18:51:41.288714,1690811,1396,1824,-516,-1191,-794,-303,-68,176,-264
20661,1555,0,2023-03-01T18:51:41.293819,1690816,1396,1824,-516,-1191,-794,-303,-68,176,-264
20662,1556,0,2023-03-01T18:51:41.298400,1690821,1402,1822,-519,-1187,-798,-301,-68,176,-264
20663,1557,0,2023-03-01T18:51:41.303845,1690826,1402,1822,-519,-1187,-798,-301,-68,176,-264
20664,1558,0,2023-03-01T18:51:41.309305,1690831,1402,1822,-519,-1187,-798,-301,-68,176,-264
20665,1559,0,2023-03-01T18:51:41.314332,1690836,1402,1822,-519,-1187,-798,-301,-68,176,-264
20666,1560,0,2023-03-01T18:51:41.319138,1690841,1397,1829,-520,-1187,-791,-300,-68,176,-264
20667,1561,0,2023-03-01T18:51:41.325174,1690848,1397,1829,-520,-1187,-791,-300,-68,176,-264
20668,1562,0,2023-03-01T18:51:41.330509,1690853,1397,1829,-520,-1187,-791,-300,-68,176,-264
20669,1563,0,2023-03-01T18:51:41.335253,1690857,1401,1824,-516,-1190,-793,-297,-66,160,-264
20670,1564,0,2023-03-01T18:51:41.340661,1690863,1401,1824,-516,-1190,-793,-297,-66,160,-264
20671,1565,0,2023-03-01T18:51:41.345403,1690867,1401,1824,-516,-1190,-793,-297,-66,160,-264
20672,1566,0,2023-03-01T18:51:41.351152,1690873,1401,1824,-516,-1190,-793,-297,-66,160,-264
20673,1567,0,2023-03-01T18:51:41.356026,1690878,1401,1824,-513,-1196,-791,-299,-66,160,-264
20674,1568,0,2023-03-01T18:51:41.361245,1690884,1401,1824,-513,-1196,-791,-299,-66,160,-264
20675,1569,0,2023-03-01T18:51:41.366321,1690888,1401,1824,-513,-1196,-791,-299,-66,160,-264
20676,1570,0,2023-03-01T18:51:41.372038,1690894,1401,1824,-513,-1196,-791,-299,-66,160,-264
20677,1571,0,2023-03-01T18:51:41.377099,1690899,1400,1827,-513,-1188,-793,-295,-66,160,-264
20678,1572,0,2023-03-01T18:51:41.382596,1690904,1400,1827,-513,-1188,-793,-295,-66,160,-264
20679,1573,0,2023-03-01T18:51:41.388661,1690911,1400,1827,-513,-1188,-793,-295,-66,160,-264
20680,1574,0,2023-03-01T18:51:41.394606,1690915,1400,1827,-513,-1188,-793,-295,-66,160,-264
20681,1575,0,2023-03-01T18:51:41.401447,1690923,1401,1822,-513,-1200,-801,-301,-66,160,-264
20682,1576,0,2023-03-01T18:51:41.408476,1690931,1401,1822,-513,-1200,-801,-301,-66,160,-264
20683,1577,0,2023-03-01T18:51:41.414152,1690936,1401,1822,-513,-1200,-801,-301,-66,160,-264
20684,1578,0,2023-03-01T18:51:41.419024,1690941,1401,1825,-518,-1197,-802,-296,-66,160,-264
20685,1579,0,2023-03-01T18:51:41.425200,1690947,1401,1825,-518,-1197,-802,-296,-66,160,-264
20686,1580,0,2023-03-01T18:51:41.431168,1690953,1401,1825,-518,-1197,-802,-296,-66,160,-264
20687,1581,0,2023-03-01T18:51:41.435864,1690958,1400,1826,-517,-1188,-794,-294,-66,160,-264
20688,1582,0,2023-03-01T18:51:41.441287,1690963,1400,1826,-517,-1188,-794,-294,-66,160,-264
20689,1583,0,2023-03-01T18:51:41.447028,1690969,1400,1826,-517,-1188,-794,-294,-66,160,-264
20690,1584,0,2023-03-01T18:51:41.452529,1690975,1400,1826,-517,-1188,-794,-294,-66,160,-264
20691,1585,0,2023-03-01T18:51:41.457811,1690979,1398,1829,-511,-1198,-802,-295,-66,160,-264
20692,1586,0,2023-03-01T18:51:41.464980,1690986,1398,1829,-511,-1198,-802,-295,-66,160,-264
20693,1587,0,2023-03-01T18:51:41.471328,1690993,1398,1829,-511,-1198,-802,-295,-66,160,-264
20694,1588,0,2023-03-01T18:51:41.476441,1690998,1401,1827,-508,-1199,-794,-296,-56,158,-268
20695,1589,0,2023-03-01T18:51:41.482167,1691004,1401,1827,-508,-1199,-794,-296,-56,158,-268
20696,1590,0,2023-03-01T18:51:41.488599,1691011,1401,1827,-508,-1199,-794,-296,-56,158,-268
20697,1591,0,2023-03-01T18:51:41.493302,1691016,1401,1827,-508,-1199,-794,-296,-56,158,-268
20698,1592,0,2023-03-01T18:51:41.498444,1691021,1398,1823,-517,-1189,-796,-292,-56,158,-268
20699,1593,0,2023-03-01T18:51:41.504272,1691026,1398,1823,-517,-1189,-796,-292,-56,158,-268
20700,1594,0,2023-03-01T18:51:41.512361,1691034,1398,1823,-517,-1189,-796,-292,-56,158,-268
20701,1595,0,2023-03-01T18:51:41.517300,1691039,1401,1827,-515,-1189,-799,-304,-56,158,-268
20702,1596,0,2023-03-01T18:51:41.522814,1691044,1401,1827,-515,-1189,-799,-304,-56,158,-268
20703,1597,0,2023-03-01T18:51:41.528602,1691051,1401,1827,-515,-1189,-799,-304,-56,158,-268
20704,1598,0,2023-03-01T18:51:41.533866,1691056,1401,1827,-515,-1189,-799,-304,-56,158,-268
20705,1599,0,2023-03-01T18:51:41.538743,1691061,1401,1825,-512,-1194,-792,-302,-56,158,-268
20706,1600,0,2023-03-01T18:51:41.544997,1691067,1401,1825,-512,-1194,-792,-302,-56,158,-268
20707,1601,0,2023-03-01T18:51:41.550888,1691073,1401,1825,-512,-1194,-792,-302,-56,158,-268
20708,1602,0,2023-03-01T18:51:41.555740,1691078,1403,1824,-515,-1181,-784,-300,-56,158,-268
20709,1603,0,2023-03-01T18:51:41.560845,1691083,1403,1824,-515,-1181,-784,-300,-56,158,-268
20710,1604,0,2023-03-01T18:51:41.565710,1691087,1403,1824,-515,-1181,-784,-300,-56,158,-268
20711,1605,0,2023-03-01T18:51:41.571176,1691094,1403,1824,-515,-1181,-784,-300,-56,158,-268
20712,1606,0,2023-03-01T18:51:41.575944,1691098,1404,1826,-523,-1194,-788,-299,-56,158,-268
20713,1607,0,2023-03-01T18:51:41.581346,1691104,1404,1826,-523,-1194,-788,-299,-56,158,-268
20714,1608,0,2023-03-01T18:51:41.586913,1691109,1404,1826,-523,-1194,-788,-299,-56,158,-268
20715,1609,0,2023-03-01T18:51:41.592201,1691114,1404,1826,-523,-1194,-788,-299,-56,158,-268
20716,1610,0,2023-03-01T18:51:41.597036,1691119,1402,1820,-510,-1192,-786,-301,-68,160,-266
20717,1611,0,2023-03-01T18:51:41.602613,1691124,1402,1820,-510,-1192,-786,-301,-68,160,-266
20718,1612,0,2023-03-01T18:51:41.608140,1691130,1402,1820,-510,-1192,-786,-301,-68,160,-266
20719,1613,0,2023-03-01T18:51:41.612953,1691134,1402,1820,-510,-1192,-786,-301,-68,160,-266
20720,1614,0,2023-03-01T18:51:41.617643,1691140,1397,1825,-516,-1180,-789,-300,-68,160,-266
20721,1615,0,2023-03-01T18:51:41.622962,1691145,1397,1825,-516,-1180,-789,-300,-68,160,-266
20722,1616,0,2023-03-01T18:51:41.629267,1691151,1397,1825,-516,-1180,-789,-300,-68,160,-266
20723,1617,0,2023-03-01T18:51:41.634357,1691156,1397,1825,-516,-1180,-789,-300,-68,160,-266
20724,1618,0,2023-03-01T18:51:41.639444,1691161,1401,1826,-515,-1175,-780,-303,-68,160,-266
20725,1619,0,2023-03-01T18:51:41.645023,1691167,1401,1826,-515,-1175,-780,-303,-68,160,-266
20726,1620,0,2023-03-01T18:51:41.650225,1691172,1401,1826,-515,-1175,-780,-303,-68,160,-266
20727,1621,0,2023-03-01T18:51:41.655791,1691177,1399,1823,-515,-1180,-781,-301,-68,160,-266
20728,1622,0,2023-03-01T18:51:41.660721,1691183,1399,1823,-515,-1180,-781,-301,-68,160,-266
20729,1623,0,2023-03-01T18:51:41.666240,1691189,1399,1823,-515,-1180,-781,-301,-68,160,-266
20730,1624,0,2023-03-01T18:51:41.671716,1691194,1399,1823,-515,-1180,-781,-301,-68,160,-266
20731,1625,0,2023-03-01T18:51:41.676387,1691199,1403,1830,-518,-1182,-787,-302,-68,160,-266
20732,1626,0,2023-03-01T18:51:41.682069,1691204,1403,1830,-518,-1182,-787,-302,-68,160,-266
20733,1627,0,2023-03-01T18:51:41.688637,1691210,1403,1830,-518,-1182,-787,-302,-68,160,-266
20734,1628,0,2023-03-01T18:51:41.693465,1691215,1403,1830,-518,-1182,-787,-302,-68,160,-266
20735,1629,0,2023-03-01T18:51:41.698156,1691220,1399,1823,-516,-1191,-786,-305,-68,160,-266
20736,1630,0,2023-03-01T18:51:41.704145,1691227,1399,1823,-516,-1191,-786,-305,-68,160,-266
20737,1631,0,2023-03-01T18:51:41.709429,1691232,1399,1823,-516,-1191,-786,-305,-68,160,-266
20738,1632,0,2023-03-01T18:51:41.714293,1691236,1399,1823,-516,-1191,-786,-305,-68,160,-266
20739,1633,0,2023-03-01T18:51:41.719292,1691241,1402,1826,-518,-1183,-789,-300,-68,160,-266
20740,1634,0,2023-03-01T18:51:41.725596,1691247,1402,1826,-518,-1183,-789,-300,-68,160,-266
20741,1635,0,2023-03-01T18:51:41.730962,1691253,1402,1826,-518,-1183,-789,-300,-68,160,-266
20742,1636,0,2023-03-01T18:51:41.736234,1691258,1400,1824,-512,-1184,-787,-304,-65,165,-273
20743,1637,0,2023-03-01T18:51:41.742039,1691265,1400,1824,-512,-1184,-787,-304,-65,165,-273
20744,1638,0,2023-03-01T18:51:41.747691,1691270,1400,1824,-512,-1184,-787,-304,-65,165,-273
20745,1639,0,2023-03-01T18:51:41.752693,1691275,1400,1824,-512,-1184,-787,-304,-65,165,-273
20746,1640,0,2023-03-01T18:51:41.757670,1691280,1399,1822,-511,-1182,-782,-295,-65,165,-273
20747,1641,0,2023-03-01T18:51:41.762935,1691285,1399,1822,-511,-1182,-782,-295,-65,165,-273
20748,1642,0,2023-03-01T18:51:41.769195,1691291,1399,1822,-511,-1182,-782,-295,-65,165,-273
20749,1643,0,2023-03-01T18:51:41.773886,1691296,1399,1822,-511,-1182,-782,-295,-65,165,-273
20750,1644,0,2023-03-01T18:51:41.778716,1691300,1400,1827,-515,-1180,-773,-301,-65,165,-273
20751,1645,0,2023-03-01T18:51:41.784674,1691307,1400,1827,-515,-1180,-773,-301,-65,165,-273
20752,1646,0,2023-03-01T18:51:41.790410,1691312,1400,1827,-515,-1180,-773,-301,-65,165,-273
20753,1647,0,2023-03-01T18:51:41.795796,1691318,1401,1825,-514,-1180,-767,-296,-65,165,-273
20754,1648,0,2023-03-01T18:51:41.801264,1691324,1401,1825,-514,-1180,-767,-296,-65,165,-273
20755,1649,0,2023-03-01T18:51:41.805678,1691328,1401,1825,-514,-1180,-767,-296,-65,165,-273
20756,1650,0,2023-03-01T18:51:41.810161,1691332,1401,1825,-514,-1180,-767,-296,-65,165,-273
20757,1651,0,2023-03-01T18:51:41.814801,1691337,1401,1824,-512,-1169,-766,-296,-65,165,-273
20758,1652,0,2023-03-01T18:51:41.820268,1691342,1401,1824,-512,-1169,-766,-296,-65,165,-273
20759,1653,0,2023-03-01T18:51:41.825088,1691347,1401,1824,-512,-1169,-766,-296,-65,165,-273
20760,1654,0,2023-03-01T18:51:41.830843,1691353,1401,1824,-512,-1169,-766,-296,-65,165,-273
20761,1655,0,2023-03-01T18:51:41.836126,1691358,1400,1829,-523,-1171,-770,-302,-65,165,-273
20762,1656,0,2023-03-01T18:51:41.841957,1691364,1400,1829,-523,-1171,-770,-302,-65,165,-273
20763,1657,0,2023-03-01T18:51:41.847461,1691370,1400,1829,-523,-1171,-770,-302,-65,165,-273
20764,1658,0,2023-03-01T18:51:41.852691,1691374,1400,1829,-523,-1171,-770,-302,-65,165,-273
20765,1659,0,2023-03-01T18:51:41.857773,1691379,1400,1826,-511,-1170,-765,-296,-64,152,-264
20766,1660,0,2023-03-01T18:51:41.863068,1691385,1400,1826,-511,-1170,-765,-296,-64,152,-264
20767,1661,0,2023-03-01T18:51:41.869971,1691392,1400,1826,-511,-1170,-765,-296,-64,152,-264
20768,1662,0,2023-03-01T18:51:41.874812,1691397,1401,1826,-517,-1173,-771,-300,-64,152,-264
20769,1663,0,2023-03-01T18:51:41.880430,1691403,1401,1826,-517,-1173,-771,-300,-64,152,-264
20770,1664,0,2023-03-01T18:51:41.886421,1691408,1401,1826,-517,-1173,-771,-300,-64,152,-264
20771,1665,0,2023-03-01T18:51:41.892444,1691414,1401,1826,-517,-1173,-771,-300,-64,152,-264
20772,1666,0,2023-03-01T18:51:41.897472,1691419,1404,1828,-521,-1168,-767,-306,-64,152,-264
20773,1667,0,2023-03-01T18:51:41.903307,1691425,1404,1828,-521,-1168,-767,-306,-64,152,-264
20774,1668,0,2023-03-01T18:51:41.908997,1691431,1404,1828,-521,-1168,-767,-306,-64,152,-264
20775,1669,0,2023-03-01T18:51:41.913737,1691436,1404,1828,-521,-1168,-767,-306,-64,152,-264
20776,1670,0,2023-03-01T18:51:41.918930,1691441,1401,1824,-519,-1169,-763,-306,-64,152,-264
20777,1671,0,2023-03-01T18:51:41.924769,1691447,1401,1824,-519,-1169,-763,-306,-64,152,-264
20778,1672,0,2023-03-01T18:51:41.930662,1691453,1401,1824,-519,-1169,-763,-306,-64,152,-264
20779,1673,0,2023-03-01T18:51:41.935788,1691458,1402,1827,-511,-1167,-773,-299,-64,152,-264
20780,1674,0,2023-03-01T18:51:41.941863,1691464,1402,1827,-511,-1167,-773,-299,-64,152,-264
20781,1675,0,2023-03-01T18:51:41.949398,1691471,1402,1827,-511,-1167,-773,-299,-64,152,-264
20782,1676,0,2023-03-01T18:51:41.955272,1691476,1402,1827,-511,-1167,-773,-299,-64,152,-264
20783,1677,0,2023-03-01T18:51:41.960813,1691483,1400,1826,-517,-1163,-763,-297,-64,152,-264
20784,1678,0,2023-03-01T18:51:41.967155,1691489,1400,1826,-517,-1163,-763,-297,-64,152,-264
20785,1679,0,2023-03-01T18:51:41.972796,1691495,1400,1826,-517,-1163,-763,-297,-64,152,-264
20786,1680,0,2023-03-01T18:51:41.977442,1691499,1399,1822,-516,-1164,-761,-301,-64,152,-264
20787,1681,0,2023-03-01T18:51:41.982966,1691505,1399,1822,-516,-1164,-761,-301,-64,152,-264
20788,1682,0,2023-03-01T18:51:41.988676,1691511,1399,1822,-516,-1164,-761,-301,-64,152,-264
20789,1683,0,2023-03-01T18:51:41.993407,1691515,1399,1822,-516,-1164,-761,-301,-64,152,-264
20790,1684,0,2023-03-01T18:51:41.998646,1691521,1401,1826,-512,-1181,-764,-311,-69,169,-265
20791,1685,0,2023-03-01T18:51:42.004543,1691527,1401,1826,-512,-1181,-764,-311,-69,169,-265
20792,1686,0,2023-03-01T18:51:42.010004,1691532,1401,1826,-512,-1181,-764,-311,-69,169,-265
20793,1687,0,2023-03-01T18:51:42.015101,1691537,1401,1826,-512,-1181,-764,-311,-69,169,-265
20794,1688,0,2023-03-01T18:51:42.020164,1691542,1400,1818,-516,-1175,-769,-301,-69,169,-265
20795,1689,0,2023-03-01T18:51:42.025987,1691548,1400,1818,-516,-1175,-769,-301,-69,169,-265
20796,1690,0,2023-03-01T18:51:42.031425,1691553,1400,1818,-516,-1175,-769,-301,-69,169,-265
20797,1691,0,2023-03-01T18:51:42.036064,1691558,1404,1823,-512,-1179,-782,-307,-69,169,-265
20798,1692,0,2023-03-01T18:51:42.041222,1691564,1404,1823,-512,-1179,-782,-307,-69,169,-265
20799,1693,0,2023-03-01T18:51:42.046009,1691568,1404,1823,-512,-1179,-782,-307,-69,169,-265
20800,1694,0,2023-03-01T18:51:42.051439,1691573,1404,1823,-512,-1179,-782,-307,-69,169,-265
20801,1695,0,2023-03-01T18:51:42.057507,1691580,1404,1828,-522,-1183,-789,-299,-69,169,-265
20802,1696,0,2023-03-01T18:51:42.063133,1691585,1404,1828,-522,-1183,-789,-299,-69,169,-265
20803,1697,0,2023-03-01T18:51:42.067855,1691590,1404,1828,-522,-1183,-789,-299,-69,169,-265
20804,1698,0,2023-03-01T18:51:42.072880,1691595,1404,1828,-522,-1183,-789,-299,-69,169,-265
20805,1699,0,2023-03-01T18:51:42.078024,1691600,1398,1822,-517,-1188,-788,-293,-69,169,-265
20806,1700,0,2023-03-01T18:51:42.083477,1691606,1398,1822,-517,-1188,-788,-293,-69,169,-265
20807,1701,0,2023-03-01T18:51:42.089364,1691612,1398,1822,-517,-1188,-788,-293,-69,169,-265
20808,1702,0,2023-03-01T18:51:42.094252,1691616,1398,1822,-517,-1188,-788,-293,-69,169,-265
20809,1703,0,2023-03-01T18:51:42.099150,1691621,1401,1823,-518,-1190,-785,-301,-69,169,-265
20810,1704,0,2023-03-01T18:51:42.105131,1691627,1401,1823,-518,-1190,-785,-301,-69,169,-265
20811,1705,0,2023-03-01T18:51:42.110602,1691633,1401,1823,-518,-1190,-785,-301,-69,169,-265
20812,1706,0,2023-03-01T18:51:42.115383,1691637,1401,1825,-509,-1183,-787,-299,-69,169,-265
20813,1707,0,2023-03-01T18:51:42.120597,1691642,1401,1825,-509,-1183,-787,-299,-62,162,-272
20814,1708,0,2023-03-01T18:51:42.125516,1691648,1401,1825,-509,-1183,-787,-299,-62,162,-272
20815,1709,0,2023-03-01T18:51:42.130997,1691653,1401,1825,-509,-1183,-787,-299,-62,162,-272
20816,1710,0,2023-03-01T18:51:42.136017,1691658,1398,1823,-511,-1184,-784,-301,-62,162,-272
20817,1711,0,2023-03-01T18:51:42.141262,1691664,1398,1823,-511,-1184,-784,-301,-62,162,-272
20818,1712,0,2023-03-01T18:51:42.146164,1691668,1398,1823,-511,-1184,-784,-301,-62,162,-272
20819,1713,0,2023-03-01T18:51:42.151254,1691673,1398,1823,-511,-1184,-784,-301,-62,162,-272
20820,1714,0,2023-03-01T18:51:42.156013,1691678,1401,1824,-518,-1176,-775,-300,-62,162,-272
20821,1715,0,2023-03-01T18:51:42.161842,1691683,1401,1824,-518,-1176,-775,-300,-62,162,-272
20822,1716,0,2023-03-01T18:51:42.167511,1691689,1401,1824,-518,-1176,-775,-300,-62,162,-272
20823,1717,0,2023-03-01T18:51:42.172129,1691695,1401,1824,-518,-1176,-775,-300,-62,162,-272
20824,1718,0,2023-03-01T18:51:42.176951,1691699,1400,1822,-513,-1173,-773,-294,-62,162,-272
20825,1719,0,2023-03-01T18:51:42.182582,1691705,1400,1822,-513,-1173,-773,-294,-62,162,-272
20826,1720,0,2023-03-01T18:51:42.188602,1691711,1400,1822,-513,-1173,-773,-294,-62,162,-272
20827,1721,0,2023-03-01T18:51:42.193723,1691716,1400,1822,-513,-1173,-773,-294,-62,162,-272
20828,1722,0,2023-03-01T18:51:42.198654,1691721,1402,1823,-522,-1177,-784,-303,-62,162,-272
20829,1723,0,2023-03-01T18:51:42.204712,1691726,1402,1823,-522,-1177,-784,-303,-62,162,-272
20830,1724,0,2023-03-01T18:51:42.210454,1691732,1402,1823,-522,-1177,-784,-303,-62,162,-272
20831,1725,0,2023-03-01T18:51:42.215248,1691738,1402,1823,-522,-1177,-784,-303,-62,162,-272
20832,1726,0,2023-03-01T18:51:42.220264,1691742,1403,1825,-515,-1184,-775,-308,-62,162,-272
20833,1727,0,2023-03-01T18:51:42.226259,1691749,1403,1825,-515,-1184,-775,-308,-62,162,-272
20834,1728,0,2023-03-01T18:51:42.232337,1691754,1403,1825,-515,-1184,-775,-308,-62,162,-272
20835,1729,0,2023-03-01T18:51:42.237110,1691759,1402,1822,-516,-1177,-777,-297,-65,161,-275
20836,1730,0,2023-03-01T18:51:42.242869,1691765,1402,1822,-516,-1177,-777,-297,-65,161,-275
20837,1731,0,2023-03-01T18:51:42.248687,1691771,1402,1822,-516,-1177,-777,-297,-65,161,-275
20838,1732,0,2023-03-01T18:51:42.253518,1691776,1402,1822,-516,-1177,-777,-297,-65,161,-275
20839,1733,0,2023-03-01T18:51:42.258777,1691781,1401,1830,-514,-1183,-782,-304,-65,161,-275
20840,1734,0,2023-03-01T18:51:42.265031,1691787,1401,1830,-514,-1183,-782,-304,-65,161,-275
20841,1735,0,2023-03-01T18:51:42.270866,1691793,1401,1830,-514,-1183,-782,-304,-65,161,-275
20842,1736,0,2023-03-01T18:51:42.275814,1691798,1398,1824,-519,-1169,-778,-297,-65,161,-275
20843,1737,0,2023-03-01T18:51:42.281668,1691804,1398,1824,-519,-1169,-778,-297,-65,161,-275
20844,1738,0,2023-03-01T18:51:42.286532,1691808,1398,1824,-519,-1169,-778,-297,-65,161,-275
20845,1739,0,2023-03-01T18:51:42.292131,1691814,1398,1824,-519,-1169,-778,-297,-65,161,-275
20846,1740,0,2023-03-01T18:51:42.297052,1691820,1399,1824,-518,-1162,-772,-293,-65,161,-275
20847,1741,0,2023-03-01T18:51:42.303345,1691826,1399,1824,-518,-1162,-772,-293,-65,161,-275
20848,1742,0,2023-03-01T18:51:42.309288,1691832,1399,1824,-518,-1162,-772,-293,-65,161,-275
20849,1743,0,2023-03-01T18:51:42.314087,1691836,1399,1824,-518,-1162,-772,-293,-65,161,-275
20850,1744,0,2023-03-01T18:51:42.319130,1691841,1402,1826,-517,-1178,-772,-295,-65,161,-275
20851,1745,0,2023-03-01T18:51:42.325487,1691847,1402,1826,-517,-1178,-772,-295,-65,161,-275
20852,1746,0,2023-03-01T18:51:42.331142,1691853,1402,1826,-517,-1178,-772,-295,-65,161,-275
20853,1747,0,2023-03-01T18:51:42.336154,1691858,1399,1821,-523,-1184,-776,-291,-65,161,-275
20854,1748,0,2023-03-01T18:51:42.342094,1691864,1399,1821,-523,-1184,-776,-291,-65,161,-275
20855,1749,0,2023-03-01T18:51:42.348387,1691870,1399,1821,-523,-1184,-776,-291,-65,161,-275
20856,1750,0,2023-03-01T18:51:42.353183,1691875,1399,1821,-523,-1184,-776,-291,-65,161,-275
20857,1751,0,2023-03-01T18:51:42.358219,1691880,1403,1822,-518,-1177,-778,-303,-65,161,-275
20858,1752,0,2023-03-01T18:51:42.363850,1691886,1403,1822,-518,-1177,-778,-303,-65,161,-275
20859,1753,0,2023-03-01T18:51:42.369886,1691892,1403,1822,-518,-1177,-778,-303,-65,161,-275
20860,1754,0,2023-03-01T18:51:42.374715,1691896,1403,1822,-518,-1177,-778,-303,-65,161,-275
20861,1755,0,2023-03-01T18:51:42.379562,1691901,1402,1823,-516,-1168,-779,-304,-70,154,-268
20862,1756,0,2023-03-01T18:51:42.385654,1691908,1402,1823,-516,-1168,-779,-304,-70,154,-268
20863,1757,0,2023-03-01T18:51:42.391566,1691914,1402,1823,-516,-1168,-779,-304,-70,154,-268
20864,1758,0,2023-03-01T18:51:42.396374,1691919,1401,1826,-511,-1171,-774,-297,-70,154,-268
20865,1759,0,2023-03-01T18:51:42.402006,1691924,1401,1826,-511,-1171,-774,-297,-70,154,-268
20866,1760,0,2023-03-01T18:51:42.408249,1691930,1401,1826,-511,-1171,-774,-297,-70,154,-268
20867,1761,0,2023-03-01T18:51:42.413362,1691935,1401,1826,-511,-1171,-774,-297,-70,154,-268
20868,1762,0,2023-03-01T18:51:42.418051,1691940,1402,1827,-521,-1179,-779,-301,-70,154,-268
20869,1763,0,2023-03-01T18:51:42.423387,1691945,1402,1827,-521,-1179,-779,-301,-70,154,-268
20870,1764,0,2023-03-01T18:51:42.429176,1691952,1402,1827,-521,-1179,-779,-301,-70,154,-268
20871,1765,0,2023-03-01T18:51:42.434163,1691956,1402,1827,-521,-1179,-779,-301,-70,154,-268
20872,1766,0,2023-03-01T18:51:42.439389,1691961,1402,1822,-515,-1181,-784,-293,-70,154,-268
20873,1767,0,2023-03-01T18:51:42.446092,1691968,1402,1822,-515,-1181,-784,-293,-70,154,-268
20874,1768,0,2023-03-01T18:51:42.451826,1691974,1402,1822,-515,-1181,-784,-293,-70,154,-268
20875,1769,0,2023-03-01T18:51:42.456519,1691978,1402,1822,-515,-1181,-784,-293,-70,154,-268
20876,1770,0,2023-03-01T18:51:42.461340,1691983,1402,1822,-515,-1181,-784,-293,-70,154,-268
20877,1771,0,2023-03-01T18:51:42.466995,1691988,1402,1822,-515,-1181,-784,-293,-70,154,-268
20878,1772,0,2023-03-01T18:51:42.472488,1691995,1402,1822,-515,-1181,-784,-293,-70,154,-268
20879,1773,0,2023-03-01T18:51:42.477594,1692000,1400,1824,-521,-1180,-776,-301,-70,154,-268
20880,1774,0,2023-03-01T18:51:42.482831,1692005,1400,1824,-521,-1180,-776,-301,-70,154,-268
20881,1775,0,2023-03-01T18:51:42.489291,1692011,1400,1824,-521,-1180,-776,-301,-70,154,-268
20882,1776,0,2023-03-01T18:51:42.494582,1692016,1400,1824,-521,-1180,-776,-301,-70,154,-268
20883,1777,0,2023-03-01T18:51:42.499694,1692021,1402,1820,-515,-1173,-775,-295,-61,167,-263
20884,1778,0,2023-03-01T18:51:42.504891,1692027,1402,1820,-515,-1173,-775,-295,-61,167,-263
20885,1779,0,2023-03-01T18:51:42.510449,1692033,1402,1820,-515,-1173,-775,-295,-61,167,-263
20886,1780,0,2023-03-01T18:51:42.515555,1692038,1402,1824,-518,-1182,-783,-296,-61,167,-263
20887,1781,0,2023-03-01T18:51:42.521289,1692044,1402,1824,-518,-1182,-783,-296,-61,167,-263
20888,1782,0,2023-03-01T18:51:42.527185,1692049,1402,1824,-518,-1182,-783,-296,-61,167,-263
20889,1783,0,2023-03-01T18:51:42.532943,1692055,1402,1824,-518,-1182,-783,-296,-61,167,-263
20890,1784,0,2023-03-01T18:51:42.538328,1692060,1400,1822,-518,-1182,-786,-296,-61,167,-263
20891,1785,0,2023-03-01T18:51:42.544068,1692066,1400,1822,-518,-1182,-786,-296,-61,167,-263
20892,1786,0,2023-03-01T18:51:42.549893,1692072,1400,1822,-518,-1182,-786,-296,-61,167,-263
20893,1787,0,2023-03-01T18:51:42.555431,1692077,1400,1822,-518,-1182,-786,-296,-61,167,-263
20894,1788,0,2023-03-01T18:51:42.560693,1692083,1403,1824,-518,-1175,-776,-302,-61,167,-263
20895,1789,0,2023-03-01T18:51:42.566752,1692089,1403,1824,-518,-1175,-776,-302,-61,167,-263
20896,1790,0,2023-03-01T18:51:42.572939,1692095,1403,1824,-518,-1175,-776,-302,-61,167,-263
20897,1791,0,2023-03-01T18:51:42.578191,1692100,1403,1828,-515,-1182,-761,-304,-61,167,-263
20898,1792,0,2023-03-01T18:51:42.583717,1692106,1403,1828,-515,-1182,-761,-304,-61,167,-263
20899,1793,0,2023-03-01T18:51:42.589698,1692111,1403,1828,-515,-1182,-761,-304,-61,167,-263
20900,1794,0,2023-03-01T18:51:42.595744,1692118,1403,1828,-515,-1182,-761,-304,-61,167,-263
20901,1795,0,2023-03-01T18:51:42.600695,1692123,1400,1822,-521,-1181,-777,-304,-61,167,-263
20902,1796,0,2023-03-01T18:51:42.607171,1692129,1400,1822,-521,-1181,-777,-304,-61,167,-263
20903,1797,0,2023-03-01T18:51:42.612268,1692135,1400,1822,-521,-1181,-777,-304,-61,167,-263
20904,1798,0,2023-03-01T18:51:42.616860,1692139,1401,1822,-521,-1166,-773,-300,-61,167,-263
20905,1799,0,2023-03-01T18:51:42.622474,1692144,1401,1822,-521,-1166,-773,-300,-61,167,-263
20906,1800,0,2023-03-01T18:51:42.628592,1692150,1401,1822,-521,-1166,-773,-300,-61,167,-263
20907,1801,0,2023-03-01T18:51:42.633698,1692155,1401,1822,-521,-1166,-773,-300,-61,167,-263
20908,1802,0,2023-03-01T18:51:42.639082,1692162,1403,1824,-520,-1165,-771,-304,-68,162,-268
20909,1803,0,2023-03-01T18:51:42.644920,1692167,1403,1824,-520,-1165,-771,-304,-68,162,-268
20910,1804,0,2023-03-01T18:51:42.650412,1692173,1403,1824,-520,-1165,-771,-304,-68,162,-268
20911,1805,0,2023-03-01T18:51:42.655304,1692177,1403,1824,-520,-1165,-771,-304,-68,162,-268
20912,1806,0,2023-03-01T18:51:42.660473,1692182,1404,1821,-512,-1183,-781,-301,-68,162,-268
20913,1807,0,2023-03-01T18:51:42.666051,1692188,1404,1821,-512,-1183,-781,-301,-68,162,-268
20914,1808,0,2023-03-01T18:51:42.671535,1692193,1404,1821,-512,-1183,-781,-301,-68,162,-268
20915,1809,0,2023-03-01T18:51:42.676508,1692198,1406,1823,-522,-1190,-781,-305,-68,162,-268
20916,1810,0,2023-03-01T18:51:42.682317,1692205,1406,1823,-522,-1190,-781,-305,-68,162,-268
20917,1811,0,2023-03-01T18:51:42.688558,1692211,1406,1823,-522,-1190,-781,-305,-68,162,-268
20918,1812,0,2023-03-01T18:51:42.693341,1692216,1406,1823,-522,-1190,-781,-305,-68,162,-268
20919,1813,0,2023-03-01T18:51:42.697939,1692220,1404,1825,-525,-1184,-778,-298,-68,162,-268
20920,1814,0,2023-03-01T18:51:42.703389,1692225,1404,1825,-525,-1184,-778,-298,-68,162,-268
20921,1815,0,2023-03-01T18:51:42.709106,1692231,1404,1825,-525,-1184,-778,-298,-68,162,-268
20922,1816,0,2023-03-01T18:51:42.714538,1692236,1404,1825,-525,-1184,-778,-298,-68,162,-268
20923,1817,0,2023-03-01T18:51:42.719450,1692241,1400,1821,-516,-1175,-770,-296,-68,162,-268
20924,1818,0,2023-03-01T18:51:42.725219,1692248,1400,1821,-516,-1175,-770,-296,-68,162,-268
20925,1819,0,2023-03-01T18:51:42.730369,1692253,1400,1821,-516,-1175,-770,-296,-68,162,-268
20926,1820,0,2023-03-01T18:51:42.735271,1692258,1400,1821,-516,-1175,-770,-296,-68,162,-268
20927,1821,0,2023-03-01T18:51:42.740208,1692262,1404,1826,-517,-1186,-782,-302,-68,162,-268
20928,1822,0,2023-03-01T18:51:42.746000,1692268,1404,1826,-517,-1186,-782,-302,-68,162,-268
20929,1823,0,2023-03-01T18:51:42.751601,1692274,1404,1826,-517,-1186,-782,-302,-68,162,-268
20930,1824,0,2023-03-01T18:51:42.756128,1692278,1399,1821,-517,-1182,-788,-298,-68,162,-268
20931,1825,0,2023-03-01T18:51:42.761554,1692283,1399,1821,-517,-1182,-788,-298,-66,156,-268
20932,1826,0,2023-03-01T18:51:42.767141,1692290,1399,1821,-517,-1182,-788,-298,-66,156,-268
20933,1827,0,2023-03-01T18:51:42.772742,1692295,1399,1821,-517,-1182,-788,-298,-66,156,-268
20934,1828,0,2023-03-01T18:51:42.777564,1692300,1401,1821,-517,-1179,-783,-299,-66,156,-268
20935,1829,0,2023-03-01T18:51:42.783147,1692305,1401,1821,-517,-1179,-783,-299,-66,156,-268
20936,1830,0,2023-03-01T18:51:42.789282,1692311,1401,1821,-517,-1179,-783,-299,-66,156,-268
20937,1831,0,2023-03-01T18:51:42.794254,1692316,1401,1821,-517,-1179,-783,-299,-66,156,-268
20938,1832,0,2023-03-01T18:51:42.799082,1692321,1404,1822,-517,-1189,-784,-300,-66,156,-268
20939,1833,0,2023-03-01T18:51:42.805125,1692327,1404,1822,-517,-1189,-784,-300,-66,156,-268
20940,1834,0,2023-03-01T18:51:42.811094,1692333,1404,1822,-517,-1189,-784,-300,-66,156,-268
20941,1835,0,2023-03-01T18:51:42.816152,1692338,1401,1820,-522,-1181,-777,-294,-66,156,-268
20942,1836,0,2023-03-01T18:51:42.821833,1692344,1401,1820,-522,-1181,-777,-294,-66,156,-268
20943,1837,0,2023-03-01T18:51:42.828305,1692350,1401,1820,-522,-1181,-777,-294,-66,156,-268
20944,1838,0,2023-03-01T18:51:42.833732,1692356,1401,1820,-522,-1181,-777,-294,-66,156,-268
20945,1839,0,2023-03-01T18:51:42.838355,1692360,1401,1824,-519,-1178,-781,-303,-66,156,-268
20946,1840,0,2023-03-01T18:51:42.843728,1692366,1401,1824,-519,-1178,-781,-303,-66,156,-268
20947,1841,0,2023-03-01T18:51:42.849802,1692371,1401,1824,-519,-1178,-781,-303,-66,156,-268
20948,1842,0,2023-03-01T18:51:42.855007,1692377,1401,1824,-519,-1178,-781,-303,-66,156,-268
20949,1843,0,2023-03-01T18:51:42.859920,1692382,1402,1822,-524,-1186,-806,-297,-66,156,-268
20950,1844,0,2023-03-01T18:51:42.866132,1692388,1402,1822,-524,-1186,-806,-297,-66,156,-268
20951,1845,0,2023-03-01T18:51:42.871451,1692394,1402,1822,-524,-1186,-806,-297,-66,156,-268
20952,1846,0,2023-03-01T18:51:42.876678,1692399,1402,1824,-522,-1200,-802,-299,-66,156,-268
20953,1847,0,2023-03-01T18:51:42.881959,1692404,1402,1824,-522,-1200,-802,-299,-66,156,-268
20954,1848,0,2023-03-01T18:51:42.887610,1692409,1402,1824,-522,-1200,-802,-299,-66,156,-268
20955,1849,0,2023-03-01T18:51:42.893182,1692416,1402,1824,-522,-1200,-802,-299,-66,156,-268
20956,1850,0,2023-03-01T18:51:42.898154,1692421,1404,1825,-519,-1197,-791,-303,-63,159,-267
20957,1851,0,2023-03-01T18:51:42.904229,1692426,1404,1825,-519,-1197,-791,-303,-63,159,-267
20958,1852,0,2023-03-01T18:51:42.909108,1692431,1404,1825,-519,-1197,-791,-303,-63,159,-267
20959,1853,0,2023-03-01T18:51:42.914110,1692436,1404,1825,-519,-1197,-791,-303,-63,159,-267
20960,1854,0,2023-03-01T18:51:42.919040,1692441,1402,1823,-520,-1191,-789,-302,-63,159,-267
20961,1855,0,2023-03-01T18:51:42.924984,1692447,1402,1823,-520,-1191,-789,-302,-63,159,-267
20962,1856,0,2023-03-01T18:51:42.930565,1692452,1402,1823,-520,-1191,-789,-302,-63,159,-267
20963,1857,0,2023-03-01T18:51:42.935624,1692457,1402,1823,-520,-1191,-789,-302,-63,159,-267
20964,1858,0,2023-03-01T18:51:42.940509,1692463,1401,1823,-519,-1181,-786,-297,-63,159,-267
20965,1859,0,2023-03-01T18:51:42.946619,1692469,1401,1823,-519,-1181,-786,-297,-63,159,-267
20966,1860,0,2023-03-01T18:51:42.952793,1692474,1401,1823,-519,-1181,-786,-297,-63,159,-267
20967,1861,0,2023-03-01T18:51:42.958026,1692480,1402,1823,-520,-1192,-790,-296,-63,159,-267
20968,1862,0,2023-03-01T18:51:42.963611,1692486,1402,1823,-520,-1192,-790,-296,-63,159,-267
20969,1863,0,2023-03-01T18:51:42.970214,1692492,1402,1823,-520,-1192,-790,-296,-63,159,-267
20970,1864,0,2023-03-01T18:51:42.975150,1692497,1402,1823,-520,-1192,-790,-296,-63,159,-267
20971,1865,0,2023-03-01T18:51:42.979856,1692503,1401,1820,-528,-1191,-803,-294,-63,159,-267
20972,1866,0,2023-03-01T18:51:42.985197,1692507,1401,1820,-528,-1191,-803,-294,-63,159,-267
20973,1867,0,2023-03-01T18:51:42.990936,1692513,1401,1820,-528,-1191,-803,-294,-63,159,-267
20974,1868,0,2023-03-01T18:51:42.996253,1692518,1401,1820,-528,-1191,-803,-294,-63,159,-267
20975,1869,0,2023-03-01T18:51:43.000851,1692523,1407,1825,-523,-1194,-798,-295,-63,159,-267
20976,1870,0,2023-03-01T18:51:43.007211,1692528,1407,1825,-523,-1194,-798,-295,-63,159,-267
20977,1871,0,2023-03-01T18:51:43.012747,1692535,1407,1825,-523,-1194,-798,-295,-63,159,-267
20978,1872,0,2023-03-01T18:51:43.017856,1692539,1399,1821,-515,-1196,-791,-294,-66,160,-268
20979,1873,0,2023-03-01T18:51:43.023811,1692546,1399,1821,-515,-1196,-791,-294,-66,160,-268
20980,1874,0,2023-03-01T18:51:43.029539,1692552,1399,1821,-515,-1196,-791,-294,-66,160,-268
20981,1875,0,2023-03-01T18:51:43.034692,1692557,1399,1821,-515,-1196,-791,-294,-66,160,-268
20982,1876,0,2023-03-01T18:51:43.040375,1692562,1401,1824,-516,-1194,-798,-302,-66,160,-268
20983,1877,0,2023-03-01T18:51:43.049258,1692571,1401,1824,-516,-1194,-798,-302,-66,160,-268
20984,1878,0,2023-03-01T18:51:43.054472,1692576,1401,1824,-516,-1194,-798,-302,-66,160,-268
20985,1879,0,2023-03-01T18:51:43.058866,1692581,1403,1822,-520,-1202,-809,-304,-66,160,-268
20986,1880,0,2023-03-01T18:51:43.064441,1692587,1403,1822,-520,-1202,-809,-304,-66,160,-268
20987,1881,0,2023-03-01T18:51:43.070611,1692593,1403,1822,-520,-1202,-809,-304,-66,160,-268
20988,1882,0,2023-03-01T18:51:43.075533,1692598,1403,1822,-520,-1202,-809,-304,-66,160,-268
20989,1883,0,2023-03-01T18:51:43.080363,1692603,1397,1820,-519,-1191,-796,-299,-66,160,-268
20990,1884,0,2023-03-01T18:51:43.086297,1692608,1397,1820,-519,-1191,-796,-299,-66,160,-268
20991,1885,0,2023-03-01T18:51:43.092139,1692614,1397,1820,-519,-1191,-796,-299,-66,160,-268
20992,1886,0,2023-03-01T18:51:43.097085,1692619,1399,1827,-518,-1187,-778,-304,-66,160,-268
20993,1887,0,2023-03-01T18:51:43.102709,1692624,1399,1827,-518,-1187,-778,-304,-66,160,-268
20994,1888,0,2023-03-01T18:51:43.108997,1692632,1399,1827,-518,-1187,-778,-304,-66,160,-268
20995,1889,0,2023-03-01T18:51:43.113696,1692636,1399,1827,-518,-1187,-778,-304,-66,160,-268
20996,1890,0,2023-03-01T18:51:43.118484,1692641,1404,1826,-515,-1168,-773,-300,-66,160,-268
20997,1891,0,2023-03-01T18:51:43.124261,1692646,1404,1826,-515,-1168,-773,-300,-66,160,-268
20998,1892,0,2023-03-01T18:51:43.130866,1692653,1404,1826,-515,-1168,-773,-300,-66,160,-268
20999,1893,0,2023-03-01T18:51:43.136169,1692658,1404,1826,-515,-1168,-773,-300,-66,160,-268
