,Unnamed: 0,imu,server_time,arduino_time,ax,ay,az,gx,gy,gz,mx,my,mz
5409,8729,0,2023-03-10T14:07:04.489657,6302665,1015,525,1470,-1023,-664,-275,120,170,-62
5410,8730,0,2023-03-10T14:07:04.494552,6302670,1015,525,1470,-1023,-664,-275,120,170,-62
5411,8731,0,2023-03-10T14:07:04.499210,6302674,1015,525,1470,-1023,-664,-275,120,170,-62
5412,8732,0,2023-03-10T14:07:04.504053,6302680,993,518,1479,-1015,-604,-205,120,170,-62
5413,8733,0,2023-03-10T14:07:04.509083,6302685,993,518,1479,-1015,-604,-205,120,170,-62
5414,8734,0,2023-03-10T14:07:04.513609,6302690,993,518,1479,-1015,-604,-205,120,170,-62
5415,8735,0,2023-03-10T14:07:04.517987,6302694,993,518,1479,-1015,-604,-205,120,170,-62
5416,8736,0,2023-03-10T14:07:04.523386,6302699,997,514,1466,-1016,-671,-255,120,170,-62
5417,8737,0,2023-03-10T14:07:04.528577,6302704,997,514,1466,-1016,-671,-255,120,170,-62
5418,8738,0,2023-03-10T14:07:04.533150,6302709,997,514,1466,-1016,-671,-255,120,170,-62
5419,8739,0,2023-03-10T14:07:04.537433,6302713,997,514,1466,-1016,-671,-255,120,170,-62
5420,8740,0,2023-03-10T14:07:04.542638,6302718,1021,517,1470,-1052,-634,-283,120,170,-62
5421,8741,0,2023-03-10T14:07:04.547582,6302724,1021,517,1470,-1052,-634,-283,120,170,-62
5422,8742,0,2023-03-10T14:07:04.552278,6302728,1021,517,1470,-1052,-634,-283,120,170,-62
5423,8743,0,2023-03-10T14:07:04.556692,6302733,1021,517,1470,-1052,-634,-283,120,170,-62
5424,8744,0,2023-03-10T14:07:04.561481,6302737,1021,517,1470,-1052,-634,-283,120,170,-62
5425,8745,0,2023-03-10T14:07:04.566065,6302742,998,503,1461,-1030,-637,-243,120,170,-62
5426,8746,0,2023-03-10T14:07:04.570867,6302747,998,503,1461,-1030,-637,-243,120,170,-62
5427,8747,0,2023-03-10T14:07:04.575418,6302751,998,503,1461,-1030,-637,-243,120,170,-62
5428,8748,0,2023-03-10T14:07:04.580244,6302756,998,503,1461,-1030,-637,-243,120,170,-62
5429,8749,0,2023-03-10T14:07:04.585429,6302761,1007,519,1456,-1028,-633,-266,120,170,-62
5430,8750,0,2023-03-10T14:07:04.590250,6302767,1007,519,1456,-1028,-633,-266,120,170,-62
5431,8751,0,2023-03-10T14:07:04.595134,6302771,1007,519,1456,-1028,-633,-266,120,170,-62
5432,8752,0,2023-03-10T14:07:04.599899,6302776,1007,519,1456,-1028,-633,-266,120,170,-62
5433,8753,0,2023-03-10T14:07:04.604819,6302781,1006,516,1487,-1006,-619,-221,122,172,-70
5434,8754,0,2023-03-10T14:07:04.609862,6302786,1006,516,1487,-1006,-619,-221,122,172,-70
5435,8755,0,2023-03-10T14:07:04.614346,6302790,1006,516,1487,-1006,-619,-221,122,172,-70
5436,8756,0,2023-03-10T14:07:04.618736,6302794,1006,516,1487,-1006,-619,-221,122,172,-70
5437,8757,0,2023-03-10T14:07:04.623684,6302799,1007,518,1462,-1028,-641,-264,122,172,-70
5438,8758,0,2023-03-10T14:07:04.628716,6302804,1007,518,1462,-1028,-641,-264,122,172,-70
5439,8759,0,2023-03-10T14:07:04.633145,6302809,1007,518,1462,-1028,-641,-264,122,172,-70
5440,8760,0,2023-03-10T14:07:04.637581,6302814,1007,518,1462,-1028,-641,-264,122,172,-70
5441,8761,0,2023-03-10T14:07:04.642921,6302819,1008,514,1462,-1054,-631,-277,122,172,-70
5442,8762,0,2023-03-10T14:07:04.648132,6302824,1008,514,1462,-1054,-631,-277,122,172,-70
5443,8763,0,2023-03-10T14:07:04.652722,6302828,1008,514,1462,-1054,-631,-277,122,172,-70
5444,8764,0,2023-03-10T14:07:04.657118,6302833,1008,514,1462,-1054,-631,-277,122,172,-70
5445,8765,0,2023-03-10T14:07:04.662106,6302838,1017,515,1472,-1018,-647,-245,122,172,-70
5446,8766,0,2023-03-10T14:07:04.667432,6302843,1017,515,1472,-1018,-647,-245,122,172,-70
5447,8767,0,2023-03-10T14:07:04.672165,6302848,1017,515,1472,-1018,-647,-245,122,172,-70
5448,8768,0,2023-03-10T14:07:04.676941,6302853,1017,515,1472,-1018,-647,-245,122,172,-70
5449,8769,0,2023-03-10T14:07:04.681320,6302857,1017,515,1472,-1018,-647,-245,122,172,-70
5450,8770,0,2023-03-10T14:07:04.685764,6302862,1001,510,1455,-1040,-638,-256,122,172,-70
5451,8771,0,2023-03-10T14:07:04.691074,6302867,1001,510,1455,-1040,-638,-256,122,172,-70
5452,8772,0,2023-03-10T14:07:04.695475,6302871,1001,510,1455,-1040,-638,-256,122,172,-70
5453,8773,0,2023-03-10T14:07:04.699855,6302876,1001,510,1455,-1040,-638,-256,122,172,-70
5454,8774,0,2023-03-10T14:07:04.704667,6302880,1008,510,1474,-1024,-627,-244,122,172,-70
5455,8775,0,2023-03-10T14:07:04.709720,6302885,1008,510,1474,-1024,-627,-244,122,172,-70
5456,8776,0,2023-03-10T14:07:04.714106,6302889,1008,510,1474,-1024,-627,-244,122,172,-70
5457,8777,0,2023-03-10T14:07:04.718644,6302895,1008,510,1474,-1024,-627,-244,122,172,-70
5458,8778,0,2023-03-10T14:07:04.723871,6302900,1019,526,1471,-1030,-649,-273,120,172,-72
5459,8779,0,2023-03-10T14:07:04.728946,6302905,1019,526,1471,-1030,-649,-273,120,172,-72
5460,8780,0,2023-03-10T14:07:04.733340,6302909,1019,526,1471,-1030,-649,-273,120,172,-72
5461,8781,0,2023-03-10T14:07:04.737860,6302914,1019,526,1471,-1030,-649,-273,120,172,-72
5462,8782,0,2023-03-10T14:07:04.742826,6302918,987,509,1457,-1047,-628,-222,120,172,-72
5463,8783,0,2023-03-10T14:07:04.748028,6302924,987,509,1457,-1047,-628,-222,120,172,-72
5464,8784,0,2023-03-10T14:07:04.753263,6302929,987,509,1457,-1047,-628,-222,120,172,-72
5465,8785,0,2023-03-10T14:07:04.758073,6302934,987,509,1457,-1047,-628,-222,120,172,-72
5466,8786,0,2023-03-10T14:07:04.762650,6302939,1023,525,1481,-1020,-629,-276,120,172,-72
5467,8787,0,2023-03-10T14:07:04.767680,6302944,1023,525,1481,-1020,-629,-276,120,172,-72
5468,8788,0,2023-03-10T14:07:04.772139,6302948,1023,525,1481,-1020,-629,-276,120,172,-72
5469,8789,0,2023-03-10T14:07:04.777076,6302953,1023,525,1481,-1020,-629,-276,120,172,-72
5470,8790,0,2023-03-10T14:07:04.782219,6302958,993,498,1466,-1047,-645,-229,120,172,-72
5471,8791,0,2023-03-10T14:07:04.787245,6302963,993,498,1466,-1047,-645,-229,120,172,-72
5472,8792,0,2023-03-10T14:07:04.791983,6302967,993,498,1466,-1047,-645,-229,120,172,-72
5473,8793,0,2023-03-10T14:07:04.796631,6302972,993,498,1466,-1047,-645,-229,120,172,-72
5474,8794,0,2023-03-10T14:07:04.801999,6302978,993,498,1466,-1047,-645,-229,120,172,-72
5475,8795,0,2023-03-10T14:07:04.806688,6302983,1016,520,1467,-1028,-643,-272,120,172,-72
5476,8796,0,2023-03-10T14:07:04.812373,6302988,1016,520,1467,-1028,-643,-272,120,172,-72
5477,8797,0,2023-03-10T14:07:04.817111,6302993,1016,520,1467,-1028,-643,-272,120,172,-72
5478,8798,0,2023-03-10T14:07:04.822399,6302998,1009,512,1474,-1020,-626,-207,120,172,-72
5479,8799,0,2023-03-10T14:07:04.827685,6303003,1009,512,1474,-1020,-626,-207,120,172,-72
5480,8800,0,2023-03-10T14:07:04.832656,6303008,1009,512,1474,-1020,-626,-207,120,172,-72
5481,8801,0,2023-03-10T14:07:04.837383,6303013,1009,512,1474,-1020,-626,-207,120,172,-72
5482,8802,0,2023-03-10T14:07:04.842428,6303019,1012,514,1464,-1024,-652,-260,124,174,-72
5483,8803,0,2023-03-10T14:07:04.847383,6303024,1012,514,1464,-1024,-652,-260,124,174,-74
5484,8804,0,2023-03-10T14:07:04.851858,6303028,1012,514,1464,-1024,-652,-260,124,174,-74
5485,8805,0,2023-03-10T14:07:04.856630,6303033,1012,514,1464,-1024,-652,-260,124,174,-74
5486,8806,0,2023-03-10T14:07:04.861681,6303037,1012,514,1464,-1024,-652,-260,124,174,-74
5487,8807,0,2023-03-10T14:07:04.866371,6303042,1009,509,1452,-1044,-658,-273,124,174,-74
5488,8808,0,2023-03-10T14:07:04.871189,6303047,1009,509,1452,-1044,-658,-273,124,174,-74
5489,8809,0,2023-03-10T14:07:04.875662,6303051,1009,509,1452,-1044,-658,-273,124,174,-74
5490,8810,0,2023-03-10T14:07:04.880072,6303056,1009,509,1452,-1044,-658,-273,124,174,-74
5491,8811,0,2023-03-10T14:07:04.884570,6303060,1014,509,1480,-1020,-601,-271,124,174,-74
5492,8812,0,2023-03-10T14:07:04.889598,6303066,1014,509,1480,-1020,-601,-271,124,174,-74
5493,8813,0,2023-03-10T14:07:04.894035,6303070,1014,509,1480,-1020,-601,-271,124,174,-74
5494,8814,0,2023-03-10T14:07:04.898922,6303074,1014,509,1480,-1020,-601,-271,124,174,-74
5495,8815,0,2023-03-10T14:07:04.903893,6303080,1027,525,1463,-1033,-731,-276,124,174,-74
5496,8816,0,2023-03-10T14:07:04.908184,6303084,1027,525,1463,-1033,-731,-276,124,174,-74
5497,8817,0,2023-03-10T14:07:04.912689,6303088,1027,525,1463,-1033,-731,-276,124,174,-74
5498,8818,0,2023-03-10T14:07:04.917067,6303093,1027,525,1463,-1033,-731,-276,124,174,-74
5499,8819,0,2023-03-10T14:07:04.922257,6303098,999,506,1452,-1031,-661,-226,124,174,-74
5500,8820,0,2023-03-10T14:07:04.927491,6303104,999,506,1452,-1031,-661,-226,124,174,-74
5501,8821,0,2023-03-10T14:07:04.931986,6303108,999,506,1452,-1031,-661,-226,124,174,-74
5502,8822,0,2023-03-10T14:07:04.936522,6303113,999,506,1452,-1031,-661,-226,124,174,-74
5503,8823,0,2023-03-10T14:07:04.941546,6303118,999,506,1452,-1031,-661,-226,124,174,-74
5504,8824,0,2023-03-10T14:07:04.945927,6303122,1012,517,1469,-1032,-594,-275,124,174,-74
5505,8825,0,2023-03-10T14:07:04.951089,6303127,1012,517,1469,-1032,-594,-275,124,174,-74
5506,8826,0,2023-03-10T14:07:04.955756,6303131,1012,517,1469,-1032,-594,-275,124,174,-74
5507,8827,0,2023-03-10T14:07:04.960489,6303136,1012,517,1469,-1032,-594,-275,124,174,-74
5508,8828,0,2023-03-10T14:07:04.965368,6303141,1019,511,1464,-1044,-609,-273,124,174,-74
5509,8829,0,2023-03-10T14:07:04.970151,6303147,1019,511,1464,-1044,-609,-273,124,174,-74
5510,8830,0,2023-03-10T14:07:04.974539,6303151,1019,511,1464,-1044,-609,-273,124,174,-74
5511,8831,0,2023-03-10T14:07:04.979060,6303155,1019,511,1464,-1044,-609,-273,124,174,-74
5512,8832,0,2023-03-10T14:07:04.983619,6303160,1021,522,1465,-1021,-634,-269,126,174,-74
5513,8833,0,2023-03-10T14:07:04.988476,6303164,1021,522,1465,-1021,-634,-269,126,174,-74
5514,8834,0,2023-03-10T14:07:04.992814,6303169,1021,522,1465,-1021,-634,-269,126,174,-74
5515,8835,0,2023-03-10T14:07:04.997142,6303173,1021,522,1465,-1021,-634,-269,126,174,-74
5516,8836,0,2023-03-10T14:07:05.001714,6303177,1021,522,1465,-1021,-634,-269,126,174,-74
5517,8837,0,2023-03-10T14:07:05.006141,6303182,1017,505,1472,-1010,-639,-219,126,174,-74
5518,8838,0,2023-03-10T14:07:05.011447,6303187,1017,505,1472,-1010,-639,-219,126,174,-74
5519,8839,0,2023-03-10T14:07:05.015856,6303192,1017,505,1472,-1010,-639,-219,126,174,-74
5520,8840,0,2023-03-10T14:07:05.020275,6303196,1017,505,1472,-1010,-639,-219,126,174,-74
5521,8841,0,2023-03-10T14:07:05.025182,6303201,1006,514,1457,-1027,-639,-270,126,174,-74
5522,8842,0,2023-03-10T14:07:05.030370,6303206,1006,514,1457,-1027,-639,-270,126,174,-74
5523,8843,0,2023-03-10T14:07:05.035510,6303211,1006,514,1457,-1027,-639,-270,126,174,-74
5524,8844,0,2023-03-10T14:07:05.040036,6303216,1006,514,1457,-1027,-639,-270,126,174,-74
5525,8845,0,2023-03-10T14:07:05.045107,6303221,1034,519,1458,-1059,-629,-283,126,174,-74
5526,8846,0,2023-03-10T14:07:05.050273,6303226,1034,519,1458,-1059,-629,-283,126,174,-74
5527,8847,0,2023-03-10T14:07:05.054854,6303230,1034,519,1458,-1059,-629,-283,126,174,-74
5528,8848,0,2023-03-10T14:07:05.059521,6303236,1034,519,1458,-1059,-629,-283,126,174,-74
5529,8849,0,2023-03-10T14:07:05.064534,6303241,991,510,1464,-1010,-645,-211,126,174,-74
5530,8850,0,2023-03-10T14:07:05.070004,6303246,991,510,1464,-1010,-645,-211,126,174,-74
5531,8851,0,2023-03-10T14:07:05.074452,6303250,991,510,1464,-1010,-645,-211,126,174,-74
5532,8852,0,2023-03-10T14:07:05.079048,6303255,991,510,1464,-1010,-645,-211,126,174,-74
5533,8853,0,2023-03-10T14:07:05.084190,6303260,1024,516,1461,-1052,-641,-289,126,174,-74
5534,8854,0,2023-03-10T14:07:05.089091,6303265,1024,516,1461,-1052,-641,-289,126,174,-74
5535,8855,0,2023-03-10T14:07:05.093719,6303269,1024,516,1461,-1052,-641,-289,126,174,-74
5536,8856,0,2023-03-10T14:07:05.098342,6303275,1024,516,1461,-1052,-641,-289,126,174,-74
5537,8857,0,2023-03-10T14:07:05.103189,6303279,1021,518,1461,-1033,-656,-285,117,171,-69
5538,8858,0,2023-03-10T14:07:05.108326,6303284,1021,518,1461,-1033,-656,-285,117,171,-69
5539,8859,0,2023-03-10T14:07:05.112751,6303289,1021,518,1461,-1033,-656,-285,117,171,-69
5540,8860,0,2023-03-10T14:07:05.117375,6303293,1021,518,1461,-1033,-656,-285,117,171,-69
5541,8861,0,2023-03-10T14:07:05.121721,6303298,1021,518,1461,-1033,-656,-285,117,171,-69
5542,8862,0,2023-03-10T14:07:05.126062,6303302,1000,505,1450,-1022,-639,-241,117,171,-69
5543,8863,0,2023-03-10T14:07:05.130989,6303307,1000,505,1450,-1022,-639,-241,117,171,-69
5544,8864,0,2023-03-10T14:07:05.135397,6303311,1000,505,1450,-1022,-639,-241,117,171,-69
5545,8865,0,2023-03-10T14:07:05.139890,6303315,1000,505,1450,-1022,-639,-241,117,171,-69
5546,8866,0,2023-03-10T14:07:05.144772,6303321,1031,516,1474,-1021,-626,-291,117,171,-69
5547,8867,0,2023-03-10T14:07:05.149975,6303326,1031,516,1474,-1021,-626,-291,117,171,-69
5548,8868,0,2023-03-10T14:07:05.154559,6303331,1031,516,1474,-1021,-626,-291,117,171,-69
5549,8869,0,2023-03-10T14:07:05.159270,6303335,1031,516,1474,-1021,-626,-291,117,171,-69
5550,8870,0,2023-03-10T14:07:05.164272,6303340,1001,511,1459,-1038,-645,-245,117,171,-69
5551,8871,0,2023-03-10T14:07:05.169437,6303345,1001,511,1459,-1038,-645,-245,117,171,-69
5552,8872,0,2023-03-10T14:07:05.174067,6303350,1001,511,1459,-1038,-645,-245,117,171,-69
5553,8873,0,2023-03-10T14:07:05.178473,6303354,1001,511,1459,-1038,-645,-245,117,171,-69
5554,8874,0,2023-03-10T14:07:05.183198,6303360,1026,520,1467,-1026,-622,-260,117,171,-69
5555,8875,0,2023-03-10T14:07:05.188376,6303364,1026,520,1467,-1026,-622,-260,117,171,-69
5556,8876,0,2023-03-10T14:07:05.193544,6303370,1026,520,1467,-1026,-622,-260,117,171,-69
5557,8877,0,2023-03-10T14:07:05.198076,6303374,1026,520,1467,-1026,-622,-260,117,171,-69
5558,8878,0,2023-03-10T14:07:05.203249,6303379,1021,517,1469,-1033,-635,-257,117,171,-69
5559,8879,0,2023-03-10T14:07:05.208076,6303384,1021,517,1469,-1033,-635,-257,117,171,-69
5560,8880,0,2023-03-10T14:07:05.212541,6303388,1021,517,1469,-1033,-635,-257,117,171,-69
5561,8881,0,2023-03-10T14:07:05.216841,6303392,1021,517,1469,-1033,-635,-257,117,171,-69
5562,8882,0,2023-03-10T14:07:05.221883,6303397,1021,517,1469,-1033,-635,-257,117,171,-69
5563,8883,0,2023-03-10T14:07:05.226362,6303403,1021,517,1469,-1033,-635,-257,117,171,-69
5564,8884,0,2023-03-10T14:07:05.230713,6303407,1021,517,1469,-1033,-635,-257,117,171,-69
5565,8885,0,2023-03-10T14:07:05.235285,6303411,1021,517,1469,-1033,-635,-257,117,171,-69
5566,8886,0,2023-03-10T14:07:05.240140,6303416,1021,517,1469,-1033,-635,-257,117,171,-69
5567,8887,0,2023-03-10T14:07:05.245330,6303421,1032,521,1469,-1030,-638,-266,122,182,-66
5568,8888,0,2023-03-10T14:07:05.250670,6303426,1032,521,1469,-1030,-638,-266,122,182,-66
5569,8889,0,2023-03-10T14:07:05.255255,6303431,1032,521,1469,-1030,-638,-266,122,182,-66
5570,8890,0,2023-03-10T14:07:05.259864,6303435,1032,521,1469,-1030,-638,-266,122,182,-66
5571,8891,0,2023-03-10T14:07:05.265207,6303441,990,502,1453,-1022,-647,-200,122,182,-66
5572,8892,0,2023-03-10T14:07:05.270628,6303447,990,502,1453,-1022,-647,-200,122,182,-66
5573,8893,0,2023-03-10T14:07:05.275108,6303451,990,502,1453,-1022,-647,-200,122,182,-66
5574,8894,0,2023-03-10T14:07:05.279759,6303456,990,502,1453,-1022,-647,-200,122,182,-66
5575,8895,0,2023-03-10T14:07:05.284918,6303461,1030,520,1462,-1036,-640,-285,122,182,-66
5576,8896,0,2023-03-10T14:07:05.289430,6303465,1030,520,1462,-1036,-640,-285,122,182,-66
5577,8897,0,2023-03-10T14:07:05.294597,6303470,1030,520,1462,-1036,-640,-285,122,182,-66
5578,8898,0,2023-03-10T14:07:05.299229,6303475,1030,520,1462,-1036,-640,-285,122,182,-66
5579,8899,0,2023-03-10T14:07:05.303647,6303479,1032,519,1456,-1028,-660,-269,122,182,-66
5580,8900,0,2023-03-10T14:07:05.308363,6303484,1032,519,1456,-1028,-660,-269,122,182,-66
5581,8901,0,2023-03-10T14:07:05.313134,6303489,1032,519,1456,-1028,-660,-269,122,182,-66
5582,8902,0,2023-03-10T14:07:05.317716,6303494,1032,519,1456,-1028,-660,-269,122,182,-66
5583,8903,0,2023-03-10T14:07:05.322977,6303499,1004,510,1447,-1026,-620,-242,122,182,-66
5584,8904,0,2023-03-10T14:07:05.327819,6303504,1004,510,1447,-1026,-620,-242,122,182,-66
5585,8905,0,2023-03-10T14:07:05.332374,6303508,1004,510,1447,-1026,-620,-242,122,182,-66
5586,8906,0,2023-03-10T14:07:05.337124,6303513,1004,510,1447,-1026,-620,-242,122,182,-66
5587,8907,0,2023-03-10T14:07:05.342078,6303518,1004,510,1447,-1026,-620,-242,122,182,-66
5588,8908,0,2023-03-10T14:07:05.346576,6303522,1032,516,1468,-1029,-620,-286,122,182,-66
5589,8909,0,2023-03-10T14:07:05.351050,6303526,1032,516,1468,-1029,-620,-286,122,182,-66
5590,8910,0,2023-03-10T14:07:05.355929,6303532,1032,516,1468,-1029,-620,-286,122,182,-66
5591,8911,0,2023-03-10T14:07:05.360486,6303537,1032,516,1468,-1029,-620,-286,122,182,-66
5592,8912,0,2023-03-10T14:07:05.365431,6303542,999,499,1449,-1032,-633,-248,119,161,-67
5593,8913,0,2023-03-10T14:07:05.370465,6303546,999,499,1449,-1032,-633,-248,119,161,-67
5594,8914,0,2023-03-10T14:07:05.374907,6303551,999,499,1449,-1032,-633,-248,119,161,-67
5595,8915,0,2023-03-10T14:07:05.379222,6303555,999,499,1449,-1032,-633,-248,119,161,-67
5596,8916,0,2023-03-10T14:07:05.384343,6303560,1030,521,1462,-1039,-637,-269,119,161,-67
5597,8917,0,2023-03-10T14:07:05.389332,6303565,1030,521,1462,-1039,-637,-269,119,161,-67
5598,8918,0,2023-03-10T14:07:05.393813,6303569,1030,521,1462,-1039,-637,-269,119,161,-67
5599,8919,0,2023-03-10T14:07:05.398247,6303575,1030,521,1462,-1039,-637,-269,119,161,-67
5600,8920,0,2023-03-10T14:07:05.403259,6303579,1015,516,1462,-1014,-643,-225,119,161,-67
5601,8921,0,2023-03-10T14:07:05.408248,6303584,1015,516,1462,-1014,-643,-225,119,161,-67
5602,8922,0,2023-03-10T14:07:05.412776,6303589,1015,516,1462,-1014,-643,-225,119,161,-67
5603,8923,0,2023-03-10T14:07:05.417562,6303594,1015,516,1462,-1014,-643,-225,119,161,-67
5604,8924,0,2023-03-10T14:07:05.422434,6303598,1015,516,1462,-1014,-643,-225,119,161,-67
5605,8925,0,2023-03-10T14:07:05.426921,6303603,1021,512,1452,-1033,-648,-276,119,161,-67
5606,8926,0,2023-03-10T14:07:05.431897,6303607,1021,512,1452,-1033,-648,-276,119,161,-67
5607,8927,0,2023-03-10T14:07:05.436447,6303612,1021,512,1452,-1033,-648,-276,119,161,-67
5608,8928,0,2023-03-10T14:07:05.440922,6303617,1021,512,1452,-1033,-648,-276,119,161,-67
5609,8929,0,2023-03-10T14:07:05.445792,6303622,1025,518,1454,-1027,-649,-267,119,161,-67
5610,8930,0,2023-03-10T14:07:05.450816,6303627,1025,518,1454,-1027,-649,-267,119,161,-67
5611,8931,0,2023-03-10T14:07:05.455334,6303631,1025,518,1454,-1027,-649,-267,119,161,-67
5612,8932,0,2023-03-10T14:07:05.460003,6303636,1025,518,1454,-1027,-649,-267,119,161,-67
5613,8933,0,2023-03-10T14:07:05.464893,6303641,1011,507,1464,-1024,-618,-261,119,161,-67
5614,8934,0,2023-03-10T14:07:05.469724,6303645,1011,507,1464,-1024,-618,-261,119,161,-67
5615,8935,0,2023-03-10T14:07:05.474221,6303650,1011,507,1464,-1024,-618,-261,119,161,-67
5616,8936,0,2023-03-10T14:07:05.478731,6303654,1011,507,1464,-1024,-618,-261,119,161,-67
5617,8937,0,2023-03-10T14:07:05.483615,6303660,1022,510,1463,-1035,-652,-275,129,165,-67
5618,8938,0,2023-03-10T14:07:05.488703,6303665,1022,510,1463,-1035,-652,-275,129,165,-67
5619,8939,0,2023-03-10T14:07:05.493171,6303669,1022,510,1463,-1035,-652,-275,129,165,-67
5620,8940,0,2023-03-10T14:07:05.497619,6303674,1022,510,1463,-1035,-652,-275,129,165,-67
5621,8941,0,2023-03-10T14:07:05.502124,6303678,1022,510,1463,-1035,-652,-275,129,165,-67
5622,8942,0,2023-03-10T14:07:05.506542,6303682,1020,512,1464,-1043,-609,-268,129,165,-67
5623,8943,0,2023-03-10T14:07:05.511514,6303687,1020,512,1464,-1043,-609,-268,129,165,-67
5624,8944,0,2023-03-10T14:07:05.516290,6303692,1020,512,1464,-1043,-609,-268,129,165,-67
5625,8945,0,2023-03-10T14:07:05.520699,6303696,1020,512,1464,-1043,-609,-268,129,165,-67
5626,8946,0,2023-03-10T14:07:05.525321,6303702,1023,522,1465,-1028,-656,-258,129,165,-67
5627,8947,0,2023-03-10T14:07:05.530732,6303707,1023,522,1465,-1028,-656,-258,129,165,-67
5628,8948,0,2023-03-10T14:07:05.535205,6303711,1023,522,1465,-1028,-656,-258,129,165,-67
5629,8949,0,2023-03-10T14:07:05.539595,6303716,1023,522,1465,-1028,-656,-258,129,165,-67
5630,8950,0,2023-03-10T14:07:05.544519,6303720,1019,505,1458,-1020,-641,-221,129,165,-67
5631,8951,0,2023-03-10T14:07:05.549668,6303726,1019,505,1458,-1020,-641,-221,129,165,-67
5632,8952,0,2023-03-10T14:07:05.554150,6303730,1019,505,1458,-1020,-641,-221,129,165,-67
5633,8953,0,2023-03-10T14:07:05.558760,6303734,1019,505,1458,-1020,-641,-221,129,165,-67
5634,8954,0,2023-03-10T14:07:05.563842,6303739,1008,508,1449,-1036,-638,-271,129,165,-67
5635,8955,0,2023-03-10T14:07:05.569294,6303745,1008,508,1449,-1036,-638,-271,129,165,-67
5636,8956,0,2023-03-10T14:07:05.573933,6303750,1008,508,1449,-1036,-638,-271,129,165,-67
5637,8957,0,2023-03-10T14:07:05.578491,6303755,1008,508,1449,-1036,-638,-271,129,165,-67
5638,8958,0,2023-03-10T14:07:05.583743,6303760,1034,517,1462,-1036,-651,-266,129,165,-67
5639,8959,0,2023-03-10T14:07:05.588776,6303765,1034,517,1462,-1036,-651,-266,129,165,-67
5640,8960,0,2023-03-10T14:07:05.593341,6303769,1034,517,1462,-1036,-651,-266,129,165,-67
5641,8961,0,2023-03-10T14:07:05.598118,6303774,1034,517,1462,-1036,-651,-266,129,165,-67
5642,8962,0,2023-03-10T14:07:05.602985,6303778,1034,517,1462,-1036,-651,-266,129,165,-67
5643,8963,0,2023-03-10T14:07:05.607355,6303783,1029,516,1456,-1024,-647,-275,129,165,-67
5644,8964,0,2023-03-10T14:07:05.612433,6303789,1029,516,1456,-1024,-647,-275,129,165,-67
5645,8965,0,2023-03-10T14:07:05.617145,6303793,1029,516,1456,-1024,-647,-275,129,165,-67
5646,8966,0,2023-03-10T14:07:05.622269,6303798,1029,516,1456,-1024,-647,-275,129,165,-67
5647,8967,0,2023-03-10T14:07:05.626462,6303803,1022,514,1456,-1042,-613,-265,123,159,-57
5648,8968,0,2023-03-10T14:07:05.631606,6303807,1022,514,1456,-1042,-613,-265,123,159,-57
5649,8969,0,2023-03-10T14:07:05.636269,6303812,1022,514,1456,-1042,-613,-265,123,159,-57
5650,8970,0,2023-03-10T14:07:05.640601,6303816,1022,514,1456,-1042,-613,-265,123,159,-57
5651,8971,0,2023-03-10T14:07:05.645114,6303821,1013,505,1471,-1011,-637,-231,123,159,-57
5652,8972,0,2023-03-10T14:07:05.650189,6303826,1013,505,1471,-1011,-637,-231,123,159,-57
5653,8973,0,2023-03-10T14:07:05.654591,6303831,1013,505,1471,-1011,-637,-231,123,159,-57
5654,8974,0,2023-03-10T14:07:05.659346,6303836,1013,505,1471,-1011,-637,-231,123,159,-57
5655,8975,0,2023-03-10T14:07:05.663733,6303840,1017,511,1445,-1049,-652,-276,123,159,-57
5656,8976,0,2023-03-10T14:07:05.668605,6303845,1017,511,1445,-1049,-652,-276,123,159,-57
5657,8977,0,2023-03-10T14:07:05.673745,6303850,1017,511,1445,-1049,-652,-276,123,159,-57
5658,8978,0,2023-03-10T14:07:05.678389,6303854,1017,511,1445,-1049,-652,-276,123,159,-57
5659,8979,0,2023-03-10T14:07:05.683536,6303859,1033,514,1461,-1046,-645,-281,123,159,-57
5660,8980,0,2023-03-10T14:07:05.688644,6303864,1033,514,1461,-1046,-645,-281,123,159,-57
5661,8981,0,2023-03-10T14:07:05.693603,6303869,1033,514,1461,-1046,-645,-281,123,159,-57
5662,8982,0,2023-03-10T14:07:05.698038,6303874,1033,514,1461,-1046,-645,-281,123,159,-57
5663,8983,0,2023-03-10T14:07:05.703332,6303879,1033,514,1461,-1046,-645,-281,123,159,-57
5664,8984,0,2023-03-10T14:07:05.707709,6303884,1021,512,1452,-1029,-649,-243,123,159,-57
5665,8985,0,2023-03-10T14:07:05.712264,6303888,1021,512,1452,-1029,-649,-243,123,159,-57
5666,8986,0,2023-03-10T14:07:05.716985,6303893,1021,512,1452,-1029,-649,-243,123,159,-57
5667,8987,0,2023-03-10T14:07:05.721853,6303898,1021,512,1452,-1029,-649,-243,123,159,-57
5668,8988,0,2023-03-10T14:07:05.726519,6303902,1039,514,1453,-1030,-626,-275,123,159,-57
5669,8989,0,2023-03-10T14:07:05.731937,6303907,1039,514,1453,-1030,-626,-275,123,159,-57
5670,8990,0,2023-03-10T14:07:05.736653,6303912,1039,514,1453,-1030,-626,-275,123,159,-57
5671,8991,0,2023-03-10T14:07:05.741222,6303918,1039,514,1453,-1030,-626,-275,123,159,-57
5672,8992,0,2023-03-10T14:07:05.745709,6303922,1030,521,1452,-1023,-620,-255,114,172,-70
5673,8993,0,2023-03-10T14:07:05.750887,6303927,1030,521,1452,-1023,-620,-255,114,172,-70
5674,8994,0,2023-03-10T14:07:05.755285,6303931,1030,521,1452,-1023,-620,-255,114,172,-70
5675,8995,0,2023-03-10T14:07:05.759557,6303935,1030,521,1452,-1023,-620,-255,114,172,-70
5676,8996,0,2023-03-10T14:07:05.764670,6303941,1008,510,1450,-1023,-643,-209,114,172,-70
5677,8997,0,2023-03-10T14:07:05.769508,6303945,1008,510,1450,-1023,-643,-209,114,172,-70
5678,8998,0,2023-03-10T14:07:05.774077,6303950,1008,510,1450,-1023,-643,-209,114,172,-70
5679,8999,0,2023-03-10T14:07:05.778324,6303954,1008,510,1450,-1023,-643,-209,114,172,-70
5680,9000,0,2023-03-10T14:07:05.783153,6303959,1008,510,1450,-1023,-643,-209,114,172,-70
5681,9001,0,2023-03-10T14:07:05.787626,6303964,1028,513,1473,-1035,-618,-292,114,172,-70
5682,9002,0,2023-03-10T14:07:05.792711,6303969,1028,513,1473,-1035,-618,-292,114,172,-70
5683,9003,0,2023-03-10T14:07:05.797345,6303973,1028,513,1473,-1035,-618,-292,114,172,-70
5684,9004,0,2023-03-10T14:07:05.801895,6303978,1028,513,1473,-1035,-618,-292,114,172,-70
5685,9005,0,2023-03-10T14:07:05.806678,6303983,1022,511,1440,-1055,-654,-268,114,172,-70
5686,9006,0,2023-03-10T14:07:05.811781,6303987,1022,511,1440,-1055,-654,-268,114,172,-70
5687,9007,0,2023-03-10T14:07:05.816886,6303992,1022,511,1440,-1055,-654,-268,114,172,-70
5688,9008,0,2023-03-10T14:07:05.821832,6303997,1022,511,1440,-1055,-654,-268,114,172,-70
5689,9009,0,2023-03-10T14:07:05.826191,6304003,1041,520,1463,-1015,-640,-258,114,172,-70
5690,9010,0,2023-03-10T14:07:05.831276,6304008,1041,520,1463,-1015,-640,-258,114,172,-70
5691,9011,0,2023-03-10T14:07:05.835977,6304012,1041,520,1463,-1015,-640,-258,114,172,-70
5692,9012,0,2023-03-10T14:07:05.840657,6304016,1041,520,1463,-1015,-640,-258,114,172,-70
5693,9013,0,2023-03-10T14:07:05.845978,6304022,1027,513,1449,-1029,-640,-270,114,172,-70
5694,9014,0,2023-03-10T14:07:05.851575,6304027,1027,513,1449,-1029,-640,-270,114,172,-70
5695,9015,0,2023-03-10T14:07:05.856639,6304032,1027,513,1449,-1029,-640,-270,114,172,-70
5696,9016,0,2023-03-10T14:07:05.861276,6304037,1027,513,1449,-1029,-640,-270,114,172,-70
5697,9017,0,2023-03-10T14:07:05.865822,6304041,1026,511,1448,-1032,-618,-250,114,172,-70
5698,9018,0,2023-03-10T14:07:05.871191,6304047,1026,511,1448,-1032,-618,-250,114,172,-70
5699,9019,0,2023-03-10T14:07:05.875768,6304052,1026,511,1448,-1032,-618,-250,114,172,-70
5700,9020,0,2023-03-10T14:07:05.880394,6304056,1026,511,1448,-1032,-618,-250,114,172,-70
5701,9021,0,2023-03-10T14:07:05.885486,6304061,1009,508,1471,-1003,-632,-227,123,167,-67
5702,9022,0,2023-03-10T14:07:05.890373,6304066,1009,508,1471,-1003,-632,-227,123,167,-67
5703,9023,0,2023-03-10T14:07:05.894916,6304071,1009,508,1471,-1003,-632,-227,123,167,-67
5704,9024,0,2023-03-10T14:07:05.899607,6304075,1009,508,1471,-1003,-632,-227,123,167,-67
5705,9025,0,2023-03-10T14:07:05.903988,6304079,1029,514,1461,-1047,-625,-286,123,167,-67
5706,9026,0,2023-03-10T14:07:05.908858,6304084,1029,514,1461,-1047,-625,-286,123,167,-67
5707,9027,0,2023-03-10T14:07:05.913476,6304090,1029,514,1461,-1047,-625,-286,123,167,-67
5708,9028,0,2023-03-10T14:07:05.918132,6304094,1029,514,1461,-1047,-625,-286,123,167,-67
5709,9029,0,2023-03-10T14:07:05.922539,6304099,1029,514,1461,-1047,-625,-286,123,167,-67
5710,9030,0,2023-03-10T14:07:05.927572,6304103,1045,516,1451,-1031,-664,-287,123,167,-67
5711,9031,0,2023-03-10T14:07:05.932566,6304108,1045,516,1451,-1031,-664,-287,123,167,-67
5712,9032,0,2023-03-10T14:07:05.937209,6304113,1045,516,1451,-1031,-664,-287,123,167,-67
5713,9033,0,2023-03-10T14:07:05.942426,6304118,1045,516,1451,-1031,-664,-287,123,167,-67
5714,9034,0,2023-03-10T14:07:05.946915,6304122,1017,504,1445,-1033,-639,-233,123,167,-67
5715,9035,0,2023-03-10T14:07:05.952173,6304129,1017,504,1445,-1033,-639,-233,123,167,-67
5716,9036,0,2023-03-10T14:07:05.956533,6304133,1017,504,1445,-1033,-639,-233,123,167,-67
5717,9037,0,2023-03-10T14:07:05.961091,6304137,1017,504,1445,-1033,-639,-233,123,167,-67
5718,9038,0,2023-03-10T14:07:05.966346,6304142,1033,508,1461,-1031,-611,-287,123,167,-67
5719,9039,0,2023-03-10T14:07:05.971341,6304147,1033,508,1461,-1031,-611,-287,123,167,-67
5720,9040,0,2023-03-10T14:07:05.975741,6304152,1033,508,1461,-1031,-611,-287,123,167,-67
5721,9041,0,2023-03-10T14:07:05.980068,6304156,1033,508,1461,-1031,-611,-287,123,167,-67
5722,9042,0,2023-03-10T14:07:05.984478,6304160,1025,517,1451,-1032,-666,-253,123,167,-67
5723,9043,0,2023-03-10T14:07:05.989267,6304165,1025,517,1451,-1032,-666,-253,123,167,-67
5724,9044,0,2023-03-10T14:07:05.993790,6304169,1025,517,1451,-1032,-666,-253,123,167,-67
5725,9045,0,2023-03-10T14:07:05.998234,6304175,1025,517,1451,-1032,-666,-253,123,167,-67
5726,9046,0,2023-03-10T14:07:06.003278,6304179,1025,517,1451,-1032,-666,-253,123,167,-67
5727,9047,0,2023-03-10T14:07:06.007664,6304184,1020,515,1470,-1015,-606,-236,121,165,-63
5728,9048,0,2023-03-10T14:07:06.012708,6304189,1020,515,1470,-1015,-606,-236,121,165,-63
5729,9049,0,2023-03-10T14:07:06.017195,6304193,1020,515,1470,-1015,-606,-236,121,165,-63
5730,9050,0,2023-03-10T14:07:06.022036,6304198,1020,515,1470,-1015,-606,-236,121,165,-63
5731,9051,0,2023-03-10T14:07:06.026499,6304202,1035,516,1463,-1037,-669,-295,121,165,-63
5732,9052,0,2023-03-10T14:07:06.031697,6304207,1035,516,1463,-1037,-669,-295,121,165,-63
5733,9053,0,2023-03-10T14:07:06.035845,6304211,1035,516,1463,-1037,-669,-295,121,165,-63
5734,9054,0,2023-03-10T14:07:06.040412,6304217,1035,516,1463,-1037,-669,-295,121,165,-63
5735,9055,0,2023-03-10T14:07:06.045816,6304222,1028,508,1444,-1060,-650,-271,121,165,-63
5736,9056,0,2023-03-10T14:07:06.050817,6304227,1028,508,1444,-1060,-650,-271,121,165,-63
5737,9057,0,2023-03-10T14:07:06.056219,6304232,1028,508,1444,-1060,-650,-271,121,165,-63
5738,9058,0,2023-03-10T14:07:06.060813,6304237,1028,508,1444,-1060,-650,-271,121,165,-63
5739,9059,0,2023-03-10T14:07:06.065791,6304242,1028,503,1466,-1029,-612,-255,121,165,-63
5740,9060,0,2023-03-10T14:07:06.070947,6304246,1028,503,1466,-1029,-612,-255,121,165,-63
5741,9061,0,2023-03-10T14:07:06.075881,6304251,1028,503,1466,-1029,-612,-255,121,165,-63
5742,9062,0,2023-03-10T14:07:06.080279,6304257,1028,503,1466,-1029,-612,-255,121,165,-63
5743,9063,0,2023-03-10T14:07:06.085581,6304262,1033,514,1453,-1037,-665,-284,121,165,-63
5744,9064,0,2023-03-10T14:07:06.090625,6304267,1033,514,1453,-1037,-665,-284,121,165,-63
5745,9065,0,2023-03-10T14:07:06.095415,6304271,1033,514,1453,-1037,-665,-284,121,165,-63
5746,9066,0,2023-03-10T14:07:06.100082,6304276,1033,514,1453,-1037,-665,-284,121,165,-63
5747,9067,0,2023-03-10T14:07:06.105269,6304281,1035,518,1459,-1040,-602,-251,121,165,-63
5748,9068,0,2023-03-10T14:07:06.110480,6304286,1035,518,1459,-1040,-602,-251,121,165,-63
5749,9069,0,2023-03-10T14:07:06.115094,6304290,1035,518,1459,-1040,-602,-251,121,165,-63
5750,9070,0,2023-03-10T14:07:06.119649,6304295,1035,518,1459,-1040,-602,-251,121,165,-63
5751,9071,0,2023-03-10T14:07:06.124570,6304301,1024,515,1460,-1006,-661,-244,121,165,-63
5752,9072,0,2023-03-10T14:07:06.129670,6304306,1024,515,1460,-1006,-661,-244,121,165,-63
5753,9073,0,2023-03-10T14:07:06.134074,6304310,1024,515,1460,-1006,-661,-244,121,165,-63
5754,9074,0,2023-03-10T14:07:06.138442,6304315,1024,515,1460,-1006,-661,-244,121,165,-63
5755,9075,0,2023-03-10T14:07:06.143198,6304319,1024,515,1460,-1006,-661,-244,121,165,-63
5756,9076,0,2023-03-10T14:07:06.147832,6304323,1024,507,1452,-1059,-632,-272,116,170,-66
5757,9077,0,2023-03-10T14:07:06.153277,6304329,1024,507,1452,-1059,-632,-272,116,170,-66
5758,9078,0,2023-03-10T14:07:06.157617,6304333,1024,507,1452,-1059,-632,-272,116,170,-66
5759,9079,0,2023-03-10T14:07:06.162738,6304338,1024,507,1452,-1059,-632,-272,116,170,-66
5760,9080,0,2023-03-10T14:07:06.167066,6304343,1041,511,1455,-1043,-636,-276,116,170,-66
5761,9081,0,2023-03-10T14:07:06.172018,6304348,1041,511,1455,-1043,-636,-276,116,170,-66
5762,9082,0,2023-03-10T14:07:06.176638,6304353,1041,511,1455,-1043,-636,-276,116,170,-66
5763,9083,0,2023-03-10T14:07:06.181009,6304357,1041,511,1455,-1043,-636,-276,116,170,-66
5764,9084,0,2023-03-10T14:07:06.186168,6304362,1023,508,1448,-1031,-674,-245,116,170,-66
5765,9085,0,2023-03-10T14:07:06.191492,6304367,1023,508,1448,-1031,-674,-245,116,170,-66
5766,9086,0,2023-03-10T14:07:06.196072,6304372,1023,508,1448,-1031,-674,-245,116,170,-66
5767,9087,0,2023-03-10T14:07:06.200659,6304376,1023,508,1448,-1031,-674,-245,116,170,-66
5768,9088,0,2023-03-10T14:07:06.205891,6304381,1043,519,1457,-1040,-597,-288,116,170,-66
5769,9089,0,2023-03-10T14:07:06.210800,6304387,1043,519,1457,-1040,-597,-288,116,170,-66
5770,9090,0,2023-03-10T14:07:06.215409,6304392,1043,519,1457,-1040,-597,-288,116,170,-66
5771,9091,0,2023-03-10T14:07:06.220048,6304396,1043,519,1457,-1040,-597,-288,116,170,-66
5772,9092,0,2023-03-10T14:07:06.224924,6304401,1031,514,1458,-1015,-642,-257,116,170,-66
5773,9093,0,2023-03-10T14:07:06.229888,6304406,1031,514,1458,-1015,-642,-257,116,170,-66
5774,9094,0,2023-03-10T14:07:06.235215,6304411,1031,514,1458,-1015,-642,-257,116,170,-66
5775,9095,0,2023-03-10T14:07:06.239983,6304415,1031,514,1458,-1015,-642,-257,116,170,-66
5776,9096,0,2023-03-10T14:07:06.245102,6304421,1018,507,1453,-1024,-618,-229,116,170,-66
5777,9097,0,2023-03-10T14:07:06.250173,6304427,1018,507,1453,-1024,-618,-229,116,170,-66
5778,9098,0,2023-03-10T14:07:06.254945,6304431,1018,507,1453,-1024,-618,-229,116,170,-66
5779,9099,0,2023-03-10T14:07:06.259276,6304435,1018,507,1453,-1024,-618,-229,116,170,-66
5780,9100,0,2023-03-10T14:07:06.264561,6304441,1037,513,1460,-1042,-646,-289,116,170,-62
5781,9101,0,2023-03-10T14:07:06.269508,6304446,1037,513,1460,-1042,-646,-289,116,170,-62
5782,9102,0,2023-03-10T14:07:06.274083,6304450,1037,513,1460,-1042,-646,-289,116,170,-62
5783,9103,0,2023-03-10T14:07:06.278463,6304454,1037,513,1460,-1042,-646,-289,116,170,-62
5784,9104,0,2023-03-10T14:07:06.282900,6304459,1037,513,1460,-1042,-646,-289,116,170,-62
5785,9105,0,2023-03-10T14:07:06.287636,6304463,1033,516,1449,-1036,-669,-264,116,170,-62
5786,9106,0,2023-03-10T14:07:06.292514,6304468,1033,516,1449,-1036,-669,-264,116,170,-62
5787,9107,0,2023-03-10T14:07:06.297070,6304473,1033,516,1449,-1036,-669,-264,116,170,-62
5788,9108,0,2023-03-10T14:07:06.302156,6304478,1033,516,1449,-1036,-669,-264,116,170,-62
5789,9109,0,2023-03-10T14:07:06.306542,6304483,1032,508,1460,-1035,-607,-248,116,170,-62
5790,9110,0,2023-03-10T14:07:06.311386,6304488,1032,508,1460,-1035,-607,-248,116,170,-62
5791,9111,0,2023-03-10T14:07:06.316194,6304492,1032,508,1460,-1035,-607,-248,116,170,-62
5792,9112,0,2023-03-10T14:07:06.320669,6304496,1032,508,1460,-1035,-607,-248,116,170,-62
5793,9113,0,2023-03-10T14:07:06.325615,6304501,1040,514,1453,-1029,-683,-293,116,170,-62
5794,9114,0,2023-03-10T14:07:06.330466,6304506,1040,514,1453,-1029,-683,-293,116,170,-62
5795,9115,0,2023-03-10T14:07:06.334828,6304510,1040,514,1453,-1029,-683,-293,116,170,-62
5796,9116,0,2023-03-10T14:07:06.339374,6304516,1040,514,1453,-1029,-683,-293,116,170,-62
5797,9117,0,2023-03-10T14:07:06.344658,6304521,1029,513,1449,-1026,-618,-237,116,170,-62
5798,9118,0,2023-03-10T14:07:06.349584,6304526,1029,513,1449,-1026,-618,-237,116,170,-62
5799,9119,0,2023-03-10T14:07:06.354190,6304530,1029,513,1449,-1026,-618,-237,116,170,-62
5800,9120,0,2023-03-10T14:07:06.358630,6304534,1029,513,1449,-1026,-618,-237,116,170,-62
5801,9121,0,2023-03-10T14:07:06.363595,6304539,1029,513,1449,-1026,-618,-237,116,170,-62
5802,9122,0,2023-03-10T14:07:06.368022,6304544,1027,517,1459,-1020,-627,-242,116,170,-62
5803,9123,0,2023-03-10T14:07:06.372711,6304548,1027,517,1459,-1020,-627,-242,116,170,-62
5804,9124,0,2023-03-10T14:07:06.377397,6304553,1027,517,1459,-1020,-627,-242,116,170,-62
5805,9125,0,2023-03-10T14:07:06.381721,6304558,1027,517,1459,-1020,-627,-242,116,170,-62
5806,9126,0,2023-03-10T14:07:06.386338,6304563,1034,514,1444,-1053,-648,-275,113,171,-65
5807,9127,0,2023-03-10T14:07:06.391199,6304567,1034,514,1444,-1053,-648,-275,113,171,-65
5808,9128,0,2023-03-10T14:07:06.395755,6304572,1034,514,1444,-1053,-648,-275,113,171,-65
5809,9129,0,2023-03-10T14:07:06.400541,6304576,1034,514,1444,-1053,-648,-275,113,171,-65
5810,9130,0,2023-03-10T14:07:06.405661,6304581,1049,512,1455,-1042,-627,-267,113,171,-65
5811,9131,0,2023-03-10T14:07:06.410756,6304586,1049,512,1455,-1042,-627,-267,113,171,-65
5812,9132,0,2023-03-10T14:07:06.415238,6304591,1049,512,1455,-1042,-627,-267,113,171,-65
5813,9133,0,2023-03-10T14:07:06.419715,6304595,1049,512,1455,-1042,-627,-267,113,171,-65
5814,9134,0,2023-03-10T14:07:06.424657,6304601,1026,502,1451,-1038,-645,-246,113,171,-65
5815,9135,0,2023-03-10T14:07:06.429560,6304606,1026,502,1451,-1038,-645,-246,113,171,-65
5816,9136,0,2023-03-10T14:07:06.434361,6304611,1026,502,1451,-1038,-645,-246,113,171,-65
5817,9137,0,2023-03-10T14:07:06.438966,6304615,1026,502,1451,-1038,-645,-246,113,171,-65
5818,9138,0,2023-03-10T14:07:06.443837,6304620,1026,502,1451,-1038,-645,-246,113,171,-65
5819,9139,0,2023-03-10T14:07:06.448436,6304624,1051,522,1455,-1041,-630,-284,113,171,-65
5820,9140,0,2023-03-10T14:07:06.453307,6304629,1051,522,1455,-1041,-630,-284,113,171,-65
5821,9141,0,2023-03-10T14:07:06.457727,6304633,1051,522,1455,-1041,-630,-284,113,171,-65
5822,9142,0,2023-03-10T14:07:06.463007,6304638,1051,522,1455,-1041,-630,-284,113,171,-65
5823,9143,0,2023-03-10T14:07:06.467946,6304644,1035,514,1455,-1027,-648,-233,113,171,-65
5824,9144,0,2023-03-10T14:07:06.472966,6304649,1035,514,1455,-1027,-648,-233,113,171,-65
5825,9145,0,2023-03-10T14:07:06.477552,6304654,1035,514,1455,-1027,-648,-233,113,171,-65
5826,9146,0,2023-03-10T14:07:06.482078,6304658,1035,514,1455,-1027,-648,-233,113,171,-65
5827,9147,0,2023-03-10T14:07:06.486550,6304663,1022,511,1450,-1022,-628,-249,113,171,-65
5828,9148,0,2023-03-10T14:07:06.491313,6304667,1022,511,1450,-1022,-628,-249,113,171,-65
5829,9149,0,2023-03-10T14:07:06.496049,6304672,1022,511,1450,-1022,-628,-249,113,171,-65
5830,9150,0,2023-03-10T14:07:06.501084,6304677,1022,511,1450,-1022,-628,-249,113,171,-65
5831,9151,0,2023-03-10T14:07:06.505554,6304681,1048,516,1460,-1039,-641,-292,113,171,-65
5832,9152,0,2023-03-10T14:07:06.510506,6304687,1048,516,1460,-1039,-641,-292,113,171,-65
5833,9153,0,2023-03-10T14:07:06.515141,6304691,1048,516,1460,-1039,-641,-292,113,171,-65
5834,9154,0,2023-03-10T14:07:06.519508,6304696,1048,516,1460,-1039,-641,-292,113,171,-65
5835,9155,0,2023-03-10T14:07:06.523940,6304700,1048,516,1460,-1039,-641,-292,113,171,-65
5836,9156,0,2023-03-10T14:07:06.528796,6304704,1030,508,1449,-1037,-631,-246,124,178,-74
5837,9157,0,2023-03-10T14:07:06.533591,6304709,1030,508,1449,-1037,-631,-246,124,178,-74
5838,9158,0,2023-03-10T14:07:06.538328,6304714,1030,508,1449,-1037,-631,-246,124,178,-74
5839,9159,0,2023-03-10T14:07:06.543346,6304719,1030,508,1449,-1037,-631,-246,124,178,-74
5840,9160,0,2023-03-10T14:07:06.547812,6304723,1051,517,1457,-1027,-650,-281,124,178,-74
5841,9161,0,2023-03-10T14:07:06.553231,6304730,1051,517,1457,-1027,-650,-281,124,178,-74
5842,9162,0,2023-03-10T14:07:06.557633,6304734,1051,517,1457,-1027,-650,-281,124,178,-74
5843,9163,0,2023-03-10T14:07:06.562540,6304739,1051,517,1457,-1027,-650,-281,124,178,-74
5844,9164,0,2023-03-10T14:07:06.567621,6304744,1031,504,1459,-1028,-623,-263,124,178,-74
5845,9165,0,2023-03-10T14:07:06.572638,6304749,1031,504,1459,-1028,-623,-263,124,178,-74
5846,9166,0,2023-03-10T14:07:06.577840,6304754,1031,504,1459,-1028,-623,-263,124,178,-74
5847,9167,0,2023-03-10T14:07:06.582496,6304758,1031,504,1459,-1028,-623,-263,124,178,-74
5848,9168,0,2023-03-10T14:07:06.586738,6304762,1042,520,1451,-1025,-663,-291,124,178,-74
5849,9169,0,2023-03-10T14:07:06.591540,6304768,1042,520,1451,-1025,-663,-291,124,178,-74
5850,9170,0,2023-03-10T14:07:06.596061,6304772,1042,520,1451,-1025,-663,-291,124,178,-74
5851,9171,0,2023-03-10T14:07:06.600351,6304777,1042,520,1451,-1025,-663,-291,124,178,-74
5852,9172,0,2023-03-10T14:07:06.605412,6304782,1031,512,1453,-1029,-625,-233,124,178,-74
5853,9173,0,2023-03-10T14:07:06.610458,6304786,1031,512,1453,-1029,-625,-233,124,178,-74
5854,9174,0,2023-03-10T14:07:06.614936,6304791,1031,512,1453,-1029,-625,-233,124,178,-74
5855,9175,0,2023-03-10T14:07:06.619635,6304795,1031,512,1453,-1029,-625,-233,124,178,-74
5856,9176,0,2023-03-10T14:07:06.624655,6304800,1025,504,1447,-1033,-619,-262,124,178,-74
5857,9177,0,2023-03-10T14:07:06.629453,6304805,1025,504,1447,-1033,-619,-262,124,178,-74
5858,9178,0,2023-03-10T14:07:06.633825,6304809,1025,504,1447,-1033,-619,-262,124,178,-74
5859,9179,0,2023-03-10T14:07:06.638494,6304815,1025,504,1447,-1033,-619,-262,124,178,-74
5860,9180,0,2023-03-10T14:07:06.643648,6304820,1025,504,1447,-1033,-619,-262,124,178,-74
5861,9181,0,2023-03-10T14:07:06.648194,6304824,1048,512,1453,-1045,-660,-289,123,161,-65
5862,9182,0,2023-03-10T14:07:06.653544,6304829,1048,512,1453,-1045,-660,-289,123,161,-65
5863,9183,0,2023-03-10T14:07:06.658058,6304834,1048,512,1453,-1045,-660,-289,123,161,-65
5864,9184,0,2023-03-10T14:07:06.662327,6304838,1048,512,1453,-1045,-660,-289,123,161,-65
5865,9185,0,2023-03-10T14:07:06.666846,6304843,1038,507,1456,-1038,-628,-253,123,161,-65
5866,9186,0,2023-03-10T14:07:06.671085,6304847,1038,507,1456,-1038,-628,-253,123,161,-65
5867,9187,0,2023-03-10T14:07:06.675655,6304851,1038,507,1456,-1038,-628,-253,123,161,-65
5868,9188,0,2023-03-10T14:07:06.680053,6304857,1038,507,1456,-1038,-628,-253,123,161,-65
5869,9189,0,2023-03-10T14:07:06.684868,6304861,1050,518,1452,-1026,-650,-291,123,161,-65
5870,9190,0,2023-03-10T14:07:06.689854,6304866,1050,518,1452,-1026,-650,-291,123,161,-65
5871,9191,0,2023-03-10T14:07:06.694210,6304870,1050,518,1452,-1026,-650,-291,123,161,-65
5872,9192,0,2023-03-10T14:07:06.699045,6304875,1050,518,1452,-1026,-650,-291,123,161,-65
5873,9193,0,2023-03-10T14:07:06.703822,6304880,1050,518,1452,-1026,-650,-291,123,161,-65
5874,9194,0,2023-03-10T14:07:06.708184,6304884,1037,510,1448,-1030,-630,-252,123,161,-65
5875,9195,0,2023-03-10T14:07:06.713144,6304889,1037,510,1448,-1030,-630,-252,123,161,-65
5876,9196,0,2023-03-10T14:07:06.717700,6304893,1037,510,1448,-1030,-630,-252,123,161,-65
5877,9197,0,2023-03-10T14:07:06.722726,6304899,1037,510,1448,-1030,-630,-252,123,161,-65
5878,9198,0,2023-03-10T14:07:06.727136,6304903,1032,509,1441,-1029,-616,-280,123,161,-65
5879,9199,0,2023-03-10T14:07:06.731891,6304908,1032,509,1441,-1029,-616,-280,123,161,-65
5880,9200,0,2023-03-10T14:07:06.737126,6304913,1032,509,1441,-1029,-616,-280,123,161,-65
5881,9201,0,2023-03-10T14:07:06.742289,6304918,1032,509,1441,-1029,-616,-280,123,161,-65
5882,9202,0,2023-03-10T14:07:06.746752,6304923,1034,508,1457,-1034,-657,-256,123,161,-65
5883,9203,0,2023-03-10T14:07:06.751624,6304927,1034,508,1457,-1034,-657,-256,123,161,-65
5884,9204,0,2023-03-10T14:07:06.756186,6304932,1034,508,1457,-1034,-657,-256,123,161,-65
5885,9205,0,2023-03-10T14:07:06.760954,6304936,1034,508,1457,-1034,-657,-256,123,161,-65
5886,9206,0,2023-03-10T14:07:06.765833,6304942,1042,518,1446,-1036,-614,-269,123,161,-65
5887,9207,0,2023-03-10T14:07:06.770830,6304947,1042,518,1446,-1036,-614,-269,123,161,-65
5888,9208,0,2023-03-10T14:07:06.775247,6304951,1042,518,1446,-1036,-614,-269,123,161,-65
5889,9209,0,2023-03-10T14:07:06.780017,6304956,1042,518,1446,-1036,-614,-269,123,161,-65
5890,9210,0,2023-03-10T14:07:06.785346,6304961,1040,504,1448,-1035,-669,-246,117,169,-71
5891,9211,0,2023-03-10T14:07:06.790338,6304966,1040,504,1448,-1035,-669,-246,117,169,-71
5892,9212,0,2023-03-10T14:07:06.794743,6304970,1040,504,1448,-1035,-669,-246,117,169,-71
5893,9213,0,2023-03-10T14:07:06.799239,6304975,1040,504,1448,-1035,-669,-246,117,169,-71
5894,9214,0,2023-03-10T14:07:06.804548,6304980,1040,504,1448,-1035,-669,-246,117,169,-71
5895,9215,0,2023-03-10T14:07:06.809182,6304986,1046,512,1453,-1024,-626,-265,117,169,-71
5896,9216,0,2023-03-10T14:07:06.814153,6304990,1046,512,1453,-1024,-626,-265,117,169,-71
5897,9217,0,2023-03-10T14:07:06.818883,6304995,1046,512,1453,-1024,-626,-265,117,169,-71
5898,9218,0,2023-03-10T14:07:06.824170,6305000,1046,512,1453,-1024,-626,-265,117,169,-71
5899,9219,0,2023-03-10T14:07:06.828712,6305005,1024,499,1444,-1039,-629,-250,117,169,-71
5900,9220,0,2023-03-10T14:07:06.833737,6305010,1024,499,1444,-1039,-629,-250,117,169,-71
5901,9221,0,2023-03-10T14:07:06.838419,6305014,1024,499,1444,-1039,-629,-250,117,169,-71
5902,9222,0,2023-03-10T14:07:06.843513,6305019,1024,499,1444,-1039,-629,-250,117,169,-71
5903,9223,0,2023-03-10T14:07:06.847969,6305024,1048,525,1466,-1017,-648,-281,117,169,-71
5904,9224,0,2023-03-10T14:07:06.853011,6305029,1048,525,1466,-1017,-648,-281,117,169,-71
5905,9225,0,2023-03-10T14:07:06.858314,6305034,1048,525,1466,-1017,-648,-281,117,169,-71
5906,9226,0,2023-03-10T14:07:06.863300,6305039,1048,525,1466,-1017,-648,-281,117,169,-71
5907,9227,0,2023-03-10T14:07:06.867596,6305044,1034,502,1450,-1048,-624,-228,117,169,-71
5908,9228,0,2023-03-10T14:07:06.872382,6305048,1034,502,1450,-1048,-624,-228,117,169,-71
5909,9229,0,2023-03-10T14:07:06.877099,6305053,1034,502,1450,-1048,-624,-228,117,169,-71
5910,9230,0,2023-03-10T14:07:06.881657,6305057,1034,502,1450,-1048,-624,-228,117,169,-71
5911,9231,0,2023-03-10T14:07:06.886513,6305062,1039,510,1449,-1021,-668,-276,117,169,-71
5912,9232,0,2023-03-10T14:07:06.891610,6305068,1039,510,1449,-1021,-668,-276,117,169,-71
5913,9233,0,2023-03-10T14:07:06.896009,6305072,1039,510,1449,-1021,-668,-276,117,169,-71
5914,9234,0,2023-03-10T14:07:06.900492,6305077,1039,510,1449,-1021,-668,-276,117,169,-71
5915,9235,0,2023-03-10T14:07:06.905701,6305082,1057,513,1448,-1057,-640,-281,122,170,-64
5916,9236,0,2023-03-10T14:07:06.910747,6305087,1057,513,1448,-1057,-640,-281,122,170,-64
5917,9237,0,2023-03-10T14:07:06.915421,6305091,1057,513,1448,-1057,-640,-281,122,170,-64
5918,9238,0,2023-03-10T14:07:06.920187,6305096,1057,513,1448,-1057,-640,-281,122,170,-64
5919,9239,0,2023-03-10T14:07:06.924695,6305100,1057,513,1448,-1057,-640,-281,122,170,-64
5920,9240,0,2023-03-10T14:07:06.929115,6305105,1035,503,1449,-1016,-644,-255,122,170,-64
5921,9241,0,2023-03-10T14:07:06.934353,6305111,1035,503,1449,-1016,-644,-255,122,170,-64
5922,9242,0,2023-03-10T14:07:06.939214,6305116,1035,503,1449,-1016,-644,-255,122,170,-64
5923,9243,0,2023-03-10T14:07:06.943748,6305120,1035,503,1449,-1016,-644,-255,122,170,-64
5924,9244,0,2023-03-10T14:07:06.948350,6305124,1049,519,1448,-1034,-631,-276,122,170,-64
5925,9245,0,2023-03-10T14:07:06.953459,6305129,1049,519,1448,-1034,-631,-276,122,170,-64
5926,9246,0,2023-03-10T14:07:06.957834,6305134,1049,519,1448,-1034,-631,-276,122,170,-64
5927,9247,0,2023-03-10T14:07:06.962982,6305139,1049,519,1448,-1034,-631,-276,122,170,-64
5928,9248,0,2023-03-10T14:07:06.967447,6305143,1044,518,1464,-1009,-635,-224,122,170,-64
5929,9249,0,2023-03-10T14:07:06.972225,6305148,1044,518,1464,-1009,-635,-224,122,170,-64
5930,9250,0,2023-03-10T14:07:06.976915,6305153,1044,518,1464,-1009,-635,-224,122,170,-64
5931,9251,0,2023-03-10T14:07:06.981429,6305158,1044,518,1464,-1009,-635,-224,122,170,-64
5932,9252,0,2023-03-10T14:07:06.986179,6305162,1044,511,1446,-1033,-635,-272,122,170,-64
5933,9253,0,2023-03-10T14:07:06.991142,6305167,1044,511,1446,-1033,-635,-272,122,170,-64
5934,9254,0,2023-03-10T14:07:06.995695,6305172,1044,511,1446,-1033,-635,-272,122,170,-64
5935,9255,0,2023-03-10T14:07:07.000139,6305176,1044,511,1446,-1033,-635,-272,122,170,-64
5936,9256,0,2023-03-10T14:07:07.005530,6305181,1042,508,1444,-1048,-652,-282,122,170,-64
5937,9257,0,2023-03-10T14:07:07.010861,6305186,1042,508,1444,-1048,-652,-282,122,170,-64
5938,9258,0,2023-03-10T14:07:07.015521,6305191,1042,508,1444,-1048,-652,-282,122,170,-64
5939,9259,0,2023-03-10T14:07:07.020160,6305197,1042,508,1444,-1048,-652,-282,122,170,-64
5940,9260,0,2023-03-10T14:07:07.025150,6305201,1047,510,1444,-1024,-646,-263,120,166,-70
5941,9261,0,2023-03-10T14:07:07.029494,6305206,1047,510,1444,-1024,-646,-263,120,166,-70
5942,9262,0,2023-03-10T14:07:07.034084,6305210,1047,510,1444,-1024,-646,-263,120,166,-70
5943,9263,0,2023-03-10T14:07:07.038648,6305215,1047,510,1444,-1024,-646,-263,120,166,-70
5944,9264,0,2023-03-10T14:07:07.043142,6305219,1047,510,1444,-1024,-646,-263,120,166,-70
5945,9265,0,2023-03-10T14:07:07.047408,6305223,1048,513,1453,-1034,-625,-267,120,166,-70
5946,9266,0,2023-03-10T14:07:07.052270,6305228,1048,513,1453,-1034,-625,-267,120,166,-70
5947,9267,0,2023-03-10T14:07:07.057270,6305233,1048,513,1453,-1034,-625,-267,120,166,-70
5948,9268,0,2023-03-10T14:07:07.062343,6305239,1048,513,1453,-1034,-625,-267,120,166,-70
5949,9269,0,2023-03-10T14:07:07.066820,6305243,1052,515,1455,-1030,-669,-274,120,166,-70
5950,9270,0,2023-03-10T14:07:07.071743,6305248,1052,515,1455,-1030,-669,-274,120,166,-70
5951,9271,0,2023-03-10T14:07:07.076326,6305252,1052,515,1455,-1030,-669,-274,120,166,-70
5952,9272,0,2023-03-10T14:07:07.080913,6305257,1052,515,1455,-1030,-669,-274,120,166,-70
5953,9273,0,2023-03-10T14:07:07.085894,6305262,1041,506,1451,-1050,-633,-263,120,166,-70
5954,9274,0,2023-03-10T14:07:07.091178,6305267,1041,506,1451,-1050,-633,-263,120,166,-70
5955,9275,0,2023-03-10T14:07:07.096145,6305271,1041,506,1451,-1050,-633,-263,120,166,-70
5956,9276,0,2023-03-10T14:07:07.100460,6305276,1041,506,1451,-1050,-633,-263,120,166,-70
5957,9277,0,2023-03-10T14:07:07.104808,6305281,1041,506,1451,-1050,-633,-263,120,166,-70
5958,9278,0,2023-03-10T14:07:07.109586,6305286,1054,522,1451,-1031,-635,-279,120,166,-70
5959,9279,0,2023-03-10T14:07:07.115347,6305291,1054,522,1451,-1031,-635,-279,120,166,-70
5960,9280,0,2023-03-10T14:07:07.119916,6305296,1054,522,1451,-1031,-635,-279,120,166,-70
5961,9281,0,2023-03-10T14:07:07.124995,6305301,1054,522,1451,-1031,-635,-279,120,166,-70
5962,9282,0,2023-03-10T14:07:07.129390,6305305,1032,503,1449,-1033,-640,-218,120,166,-70
5963,9283,0,2023-03-10T14:07:07.135136,6305310,1032,503,1449,-1033,-640,-218,120,166,-70
5964,9284,0,2023-03-10T14:07:07.140078,6305316,1032,503,1449,-1033,-640,-218,120,166,-70
5965,9285,0,2023-03-10T14:07:07.145190,6305321,1038,505,1446,-1023,-647,-266,120,166,-70
5966,9286,0,2023-03-10T14:07:07.150157,6305326,1038,505,1446,-1023,-647,-266,120,166,-70
5967,9287,0,2023-03-10T14:07:07.154714,6305331,1038,505,1446,-1023,-647,-266,120,166,-70
5968,9288,0,2023-03-10T14:07:07.159349,6305335,1038,505,1446,-1023,-647,-266,120,166,-70
5969,9289,0,2023-03-10T14:07:07.164197,6305340,1038,505,1446,-1023,-647,-266,120,166,-70
5970,9290,0,2023-03-10T14:07:07.168718,6305345,1061,514,1452,-1042,-643,-276,119,171,-67
5971,9291,0,2023-03-10T14:07:07.173613,6305350,1061,514,1452,-1042,-643,-276,119,171,-67
5972,9292,0,2023-03-10T14:07:07.178187,6305354,1061,514,1452,-1042,-643,-276,119,171,-67
5973,9293,0,2023-03-10T14:07:07.183125,6305359,1061,514,1452,-1042,-643,-276,119,171,-67
5974,9294,0,2023-03-10T14:07:07.187705,6305363,1053,512,1453,-1025,-664,-269,119,171,-67
5975,9295,0,2023-03-10T14:07:07.192616,6305369,1053,512,1453,-1025,-664,-269,119,171,-67
5976,9296,0,2023-03-10T14:07:07.197002,6305373,1053,512,1453,-1025,-664,-269,119,171,-67
5977,9297,0,2023-03-10T14:07:07.201471,6305378,1053,512,1453,-1025,-664,-269,119,171,-67
5978,9298,0,2023-03-10T14:07:07.206605,6305383,1050,519,1443,-1053,-610,-273,119,171,-67
5979,9299,0,2023-03-10T14:07:07.211637,6305387,1050,519,1443,-1053,-610,-273,119,171,-67
5980,9300,0,2023-03-10T14:07:07.216348,6305392,1050,519,1443,-1053,-610,-273,119,171,-67
5981,9301,0,2023-03-10T14:07:07.220890,6305396,1050,519,1443,-1053,-610,-273,119,171,-67
5982,9302,0,2023-03-10T14:07:07.226191,6305402,1046,512,1457,-1014,-647,-235,119,171,-67
5983,9303,0,2023-03-10T14:07:07.231037,6305408,1046,512,1457,-1014,-647,-235,119,171,-67
5984,9304,0,2023-03-10T14:07:07.236204,6305412,1046,512,1457,-1014,-647,-235,119,171,-67
5985,9305,0,2023-03-10T14:07:07.240817,6305417,1046,512,1457,-1014,-647,-235,119,171,-67
5986,9306,0,2023-03-10T14:07:07.245846,6305422,1035,507,1443,-1047,-637,-260,119,171,-67
5987,9307,0,2023-03-10T14:07:07.250778,6305427,1035,507,1443,-1047,-637,-260,119,171,-67
5988,9308,0,2023-03-10T14:07:07.255300,6305431,1035,507,1443,-1047,-637,-260,119,171,-67
5989,9309,0,2023-03-10T14:07:07.259937,6305436,1035,507,1443,-1047,-637,-260,119,171,-67
5990,9310,0,2023-03-10T14:07:07.265046,6305441,1035,507,1443,-1047,-637,-260,119,171,-67
5991,9311,0,2023-03-10T14:07:07.269646,6305445,1057,514,1445,-1056,-633,-290,119,171,-67
5992,9312,0,2023-03-10T14:07:07.274613,6305451,1057,514,1445,-1056,-633,-290,119,171,-67
5993,9313,0,2023-03-10T14:07:07.279357,6305456,1057,514,1445,-1056,-633,-290,119,171,-67
5994,9314,0,2023-03-10T14:07:07.283775,6305460,1057,514,1445,-1056,-633,-290,119,171,-67
5995,9315,0,2023-03-10T14:07:07.288330,6305464,1061,518,1454,-1025,-661,-257,129,175,-69
5996,9316,0,2023-03-10T14:07:07.293254,6305469,1061,518,1454,-1025,-661,-257,129,175,-69
5997,9317,0,2023-03-10T14:07:07.297612,6305474,1061,518,1454,-1025,-661,-257,129,175,-69
5998,9318,0,2023-03-10T14:07:07.303031,6305479,1061,518,1454,-1025,-661,-257,129,175,-69
5999,9319,0,2023-03-10T14:07:07.307543,6305483,1037,505,1443,-1043,-631,-256,129,175,-69
6000,9320,0,2023-03-10T14:07:07.312132,6305488,1037,505,1443,-1043,-631,-256,129,175,-69
6001,9321,0,2023-03-10T14:07:07.316615,6305492,1037,505,1443,-1043,-631,-256,129,175,-69
6002,9322,0,2023-03-10T14:07:07.321141,6305498,1037,505,1443,-1043,-631,-256,129,175,-69
6003,9323,0,2023-03-10T14:07:07.326085,6305502,1067,523,1448,-1020,-650,-304,129,175,-69
6004,9324,0,2023-03-10T14:07:07.331194,6305507,1067,523,1448,-1020,-650,-304,129,175,-69
6005,9325,0,2023-03-10T14:07:07.335554,6305512,1067,523,1448,-1020,-650,-304,129,175,-69
6006,9326,0,2023-03-10T14:07:07.340347,6305516,1067,523,1448,-1020,-650,-304,129,175,-69
6007,9327,0,2023-03-10T14:07:07.344754,6305521,1067,523,1448,-1020,-650,-304,129,175,-69
6008,9328,0,2023-03-10T14:07:07.349256,6305525,1033,506,1442,-1029,-644,-218,129,175,-69
6009,9329,0,2023-03-10T14:07:07.354523,6305530,1033,506,1442,-1029,-644,-218,129,175,-69
6010,9330,0,2023-03-10T14:07:07.359091,6305536,1033,506,1442,-1029,-644,-218,129,175,-69
6011,9331,0,2023-03-10T14:07:07.363876,6305540,1033,506,1442,-1029,-644,-218,129,175,-69
6012,9332,0,2023-03-10T14:07:07.368331,6305545,1046,516,1444,-1029,-621,-272,129,175,-69
6013,9333,0,2023-03-10T14:07:07.373077,6305549,1046,516,1444,-1029,-621,-272,129,175,-69
6014,9334,0,2023-03-10T14:07:07.377785,6305554,1046,516,1444,-1029,-621,-272,129,175,-69
6015,9335,0,2023-03-10T14:07:07.383114,6305559,1046,516,1444,-1029,-621,-272,129,175,-69
6016,9336,0,2023-03-10T14:07:07.387617,6305563,1062,513,1452,-1038,-676,-285,129,175,-69
6017,9337,0,2023-03-10T14:07:07.392623,6305568,1062,513,1452,-1038,-676,-285,129,175,-69
6018,9338,0,2023-03-10T14:07:07.396938,6305573,1062,513,1452,-1038,-676,-285,129,175,-69
6019,9339,0,2023-03-10T14:07:07.401188,6305577,1062,513,1452,-1038,-676,-285,129,175,-69
6020,9340,0,2023-03-10T14:07:07.406330,6305583,1045,498,1434,-1035,-622,-235,129,175,-69
6021,9341,0,2023-03-10T14:07:07.411327,6305588,1045,498,1434,-1035,-622,-235,129,175,-69
6022,9342,0,2023-03-10T14:07:07.415589,6305592,1045,498,1434,-1035,-622,-235,129,175,-69
6023,9343,0,2023-03-10T14:07:07.420028,6305596,1045,498,1434,-1035,-622,-235,129,175,-69
6024,9344,0,2023-03-10T14:07:07.425116,6305601,1045,498,1434,-1035,-622,-235,129,175,-69
6025,9345,0,2023-03-10T14:07:07.429726,6305606,1062,511,1449,-1030,-638,-268,119,167,-69
6026,9346,0,2023-03-10T14:07:07.435081,6305611,1062,511,1449,-1030,-638,-268,119,167,-69
6027,9347,0,2023-03-10T14:07:07.439486,6305615,1062,511,1449,-1030,-638,-268,119,167,-69
6028,9348,0,2023-03-10T14:07:07.444080,6305620,1062,511,1449,-1030,-638,-268,119,167,-69
6029,9349,0,2023-03-10T14:07:07.448365,6305625,1048,517,1449,-1036,-629,-258,119,167,-69
6030,9350,0,2023-03-10T14:07:07.453682,6305630,1048,517,1449,-1036,-629,-258,119,167,-69
6031,9351,0,2023-03-10T14:07:07.458255,6305634,1048,517,1449,-1036,-629,-258,119,167,-69
6032,9352,0,2023-03-10T14:07:07.463489,6305640,1048,517,1449,-1036,-629,-258,119,167,-69
6033,9353,0,2023-03-10T14:07:07.468126,6305644,1032,504,1446,-1017,-642,-236,119,167,-69
6034,9354,0,2023-03-10T14:07:07.473340,6305649,1032,504,1446,-1017,-642,-236,119,167,-69
6035,9355,0,2023-03-10T14:07:07.478027,6305654,1032,504,1446,-1017,-642,-236,119,167,-69
6036,9356,0,2023-03-10T14:07:07.483478,6305659,1032,504,1446,-1017,-642,-236,119,167,-69
6037,9357,0,2023-03-10T14:07:07.488420,6305665,1063,512,1462,-1035,-632,-298,119,167,-69
6038,9358,0,2023-03-10T14:07:07.493428,6305670,1063,512,1462,-1035,-632,-298,119,167,-69
6039,9359,0,2023-03-10T14:07:07.497726,6305674,1063,512,1462,-1035,-632,-298,119,167,-69
6040,9360,0,2023-03-10T14:07:07.502266,6305678,1063,512,1462,-1035,-632,-298,119,167,-69
6041,9361,0,2023-03-10T14:07:07.506971,6305683,1062,515,1443,-1048,-678,-269,119,167,-69
6042,9362,0,2023-03-10T14:07:07.511876,6305688,1062,515,1443,-1048,-678,-269,119,167,-69
6043,9363,0,2023-03-10T14:07:07.517056,6305693,1062,515,1443,-1048,-678,-269,119,167,-69
6044,9364,0,2023-03-10T14:07:07.521412,6305697,1062,515,1443,-1048,-678,-269,119,167,-69
6045,9365,0,2023-03-10T14:07:07.526315,6305702,1039,508,1446,-1028,-626,-246,119,167,-69
6046,9366,0,2023-03-10T14:07:07.531487,6305708,1039,508,1446,-1028,-626,-246,119,167,-69
6047,9367,0,2023-03-10T14:07:07.536050,6305712,1039,508,1446,-1028,-626,-246,119,167,-69
6048,9368,0,2023-03-10T14:07:07.540488,6305717,1039,508,1446,-1028,-626,-246,119,167,-69
6049,9369,0,2023-03-10T14:07:07.545071,6305721,1039,508,1446,-1028,-626,-246,119,167,-69
6050,9370,0,2023-03-10T14:07:07.549345,6305725,1064,512,1449,-1031,-630,-278,120,166,-66
6051,9371,0,2023-03-10T14:07:07.554170,6305730,1064,512,1449,-1031,-630,-278,120,166,-66
6052,9372,0,2023-03-10T14:07:07.558728,6305734,1064,512,1449,-1031,-630,-278,120,166,-66
6053,9373,0,2023-03-10T14:07:07.563073,6305739,1064,512,1449,-1031,-630,-278,120,166,-66
6054,9374,0,2023-03-10T14:07:07.567567,6305743,1039,500,1445,-1024,-619,-261,120,166,-66
6055,9375,0,2023-03-10T14:07:07.572830,6305748,1039,500,1445,-1024,-619,-261,120,166,-66
6056,9376,0,2023-03-10T14:07:07.577507,6305754,1039,500,1445,-1024,-619,-261,120,166,-66
6057,9377,0,2023-03-10T14:07:07.582139,6305758,1039,500,1445,-1024,-619,-261,120,166,-66
6058,9378,0,2023-03-10T14:07:07.587226,6305763,1057,516,1444,-1028,-645,-270,120,166,-66
6059,9379,0,2023-03-10T14:07:07.591885,6305768,1057,516,1444,-1028,-645,-270,120,166,-66
6060,9380,0,2023-03-10T14:07:07.596196,6305772,1057,516,1444,-1028,-645,-270,120,166,-66
6061,9381,0,2023-03-10T14:07:07.600892,6305777,1057,516,1444,-1028,-645,-270,120,166,-66
6062,9382,0,2023-03-10T14:07:07.605924,6305782,1046,509,1457,-1016,-623,-236,120,166,-66
6063,9383,0,2023-03-10T14:07:07.610806,6305787,1046,509,1457,-1016,-623,-236,120,166,-66
6064,9384,0,2023-03-10T14:07:07.615982,6305792,1046,509,1457,-1016,-623,-236,120,166,-66
6065,9385,0,2023-03-10T14:07:07.620433,6305797,1046,509,1457,-1016,-623,-236,120,166,-66
6066,9386,0,2023-03-10T14:07:07.625135,6305801,1046,509,1457,-1016,-623,-236,120,166,-66
6067,9387,0,2023-03-10T14:07:07.629399,6305806,1051,510,1440,-1045,-684,-279,120,166,-66
6068,9388,0,2023-03-10T14:07:07.633927,6305810,1051,510,1440,-1045,-684,-279,120,166,-66
6069,9389,0,2023-03-10T14:07:07.638377,6305814,1051,510,1440,-1045,-684,-279,120,166,-66
6070,9390,0,2023-03-10T14:07:07.643464,6305819,1051,510,1440,-1045,-684,-279,120,166,-66
6071,9391,0,2023-03-10T14:07:07.647864,6305824,1066,512,1439,-1040,-634,-265,120,166,-66
6072,9392,0,2023-03-10T14:07:07.652740,6305828,1066,512,1439,-1040,-634,-265,120,166,-66
6073,9393,0,2023-03-10T14:07:07.657351,6305833,1066,512,1439,-1040,-634,-265,120,166,-66
6074,9394,0,2023-03-10T14:07:07.662154,6305838,1066,512,1439,-1040,-634,-265,120,166,-66
6075,9395,0,2023-03-10T14:07:07.667049,6305843,1048,504,1441,-1033,-625,-265,120,166,-66
6076,9396,0,2023-03-10T14:07:07.672073,6305848,1048,504,1441,-1033,-625,-265,120,166,-66
6077,9397,0,2023-03-10T14:07:07.676486,6305853,1048,504,1441,-1033,-625,-265,120,166,-66
6078,9398,0,2023-03-10T14:07:07.681202,6305857,1048,504,1441,-1033,-625,-265,120,166,-66
6079,9399,0,2023-03-10T14:07:07.686243,6305862,1060,515,1451,-1041,-628,-274,115,169,-73
6080,9400,0,2023-03-10T14:07:07.690846,6305866,1060,515,1451,-1041,-628,-274,115,169,-73
6081,9401,0,2023-03-10T14:07:07.696099,6305872,1060,515,1451,-1041,-628,-274,115,169,-73
6082,9402,0,2023-03-10T14:07:07.700916,6305876,1060,515,1451,-1041,-628,-274,115,169,-73
6083,9403,0,2023-03-10T14:07:07.706162,6305882,1050,510,1458,-1020,-634,-236,115,169,-73
6084,9404,0,2023-03-10T14:07:07.710949,6305887,1050,510,1458,-1020,-634,-236,115,169,-73
6085,9405,0,2023-03-10T14:07:07.715437,6305892,1050,510,1458,-1020,-634,-236,115,169,-73
6086,9406,0,2023-03-10T14:07:07.719922,6305896,1050,510,1458,-1020,-634,-236,115,169,-73
6087,9407,0,2023-03-10T14:07:07.724325,6305900,1050,510,1458,-1020,-634,-236,115,169,-73
6088,9408,0,2023-03-10T14:07:07.728814,6305905,1061,514,1440,-1037,-641,-288,115,169,-73
6089,9409,0,2023-03-10T14:07:07.733084,6305909,1061,514,1440,-1037,-641,-288,115,169,-73
6090,9410,0,2023-03-10T14:07:07.737644,6305913,1061,514,1440,-1037,-641,-288,115,169,-73
6091,9411,0,2023-03-10T14:07:07.742928,6305918,1061,514,1440,-1037,-641,-288,115,169,-73
6092,9412,0,2023-03-10T14:07:07.747489,6305924,1060,511,1433,-1045,-641,-266,115,169,-73
6093,9413,0,2023-03-10T14:07:07.753039,6305929,1060,511,1433,-1045,-641,-266,115,169,-73
6094,9414,0,2023-03-10T14:07:07.757495,6305934,1060,511,1433,-1045,-641,-266,115,169,-73
6095,9415,0,2023-03-10T14:07:07.762146,6305938,1060,511,1433,-1045,-641,-266,115,169,-73
6096,9416,0,2023-03-10T14:07:07.767179,6305943,1062,513,1445,-1032,-641,-265,115,169,-73
6097,9417,0,2023-03-10T14:07:07.772150,6305948,1062,513,1445,-1032,-641,-265,115,169,-73
6098,9418,0,2023-03-10T14:07:07.776357,6305952,1062,513,1445,-1032,-641,-265,115,169,-73
6099,9419,0,2023-03-10T14:07:07.780939,6305956,1062,513,1445,-1032,-641,-265,115,169,-73
6100,9420,0,2023-03-10T14:07:07.786122,6305963,1047,504,1433,-1041,-634,-253,115,169,-73
6101,9421,0,2023-03-10T14:07:07.791137,6305967,1047,504,1433,-1041,-634,-253,115,169,-73
6102,9422,0,2023-03-10T14:07:07.796282,6305973,1047,504,1433,-1041,-634,-253,115,169,-73
6103,9423,0,2023-03-10T14:07:07.800772,6305977,1047,504,1433,-1041,-634,-253,115,169,-73
6104,9424,0,2023-03-10T14:07:07.806043,6305982,1047,504,1433,-1041,-634,-253,115,169,-73
6105,9425,0,2023-03-10T14:07:07.810364,6305987,1065,513,1450,-1019,-631,-278,127,167,-61
6106,9426,0,2023-03-10T14:07:07.815760,6305991,1065,513,1450,-1019,-631,-278,127,167,-61
6107,9427,0,2023-03-10T14:07:07.820172,6305996,1065,513,1450,-1019,-631,-278,127,167,-61
6108,9428,0,2023-03-10T14:07:07.824654,6306000,1065,513,1450,-1019,-631,-278,127,167,-61
6109,9429,0,2023-03-10T14:07:07.829722,6306006,1070,519,1454,-1028,-635,-263,127,167,-61
6110,9430,0,2023-03-10T14:07:07.835197,6306011,1070,519,1454,-1028,-635,-263,127,167,-61
6111,9431,0,2023-03-10T14:07:07.839627,6306016,1070,519,1454,-1028,-635,-263,127,167,-61
6112,9432,0,2023-03-10T14:07:07.844438,6306021,1070,519,1454,-1028,-635,-263,127,167,-61
6113,9433,0,2023-03-10T14:07:07.848935,6306025,1043,507,1437,-1020,-632,-228,127,167,-61
6114,9434,0,2023-03-10T14:07:07.853632,6306030,1043,507,1437,-1020,-632,-228,127,167,-61
6115,9435,0,2023-03-10T14:07:07.858282,6306034,1043,507,1437,-1020,-632,-228,127,167,-61
6116,9436,0,2023-03-10T14:07:07.863128,6306039,1043,507,1437,-1020,-632,-228,127,167,-61
6117,9437,0,2023-03-10T14:07:07.867469,6306043,1056,507,1448,-1046,-626,-282,127,167,-61
6118,9438,0,2023-03-10T14:07:07.872286,6306049,1056,507,1448,-1046,-626,-282,127,167,-61
6119,9439,0,2023-03-10T14:07:07.877427,6306054,1056,507,1448,-1046,-626,-282,127,167,-61
6120,9440,0,2023-03-10T14:07:07.881751,6306058,1056,507,1448,-1046,-626,-282,127,167,-61
6121,9441,0,2023-03-10T14:07:07.886734,6306063,1060,512,1434,-1031,-675,-259,127,167,-61
6122,9442,0,2023-03-10T14:07:07.891924,6306068,1060,512,1434,-1031,-675,-259,127,167,-61
6123,9443,0,2023-03-10T14:07:07.897378,6306073,1060,512,1434,-1031,-675,-259,127,167,-61
6124,9444,0,2023-03-10T14:07:07.902062,6306078,1060,512,1434,-1031,-675,-259,127,167,-61
6125,9445,0,2023-03-10T14:07:07.907571,6306083,1065,511,1439,-1029,-610,-279,127,167,-61
6126,9446,0,2023-03-10T14:07:07.912605,6306088,1065,511,1439,-1029,-610,-279,127,167,-61
6127,9447,0,2023-03-10T14:07:07.917904,6306094,1065,511,1439,-1029,-610,-279,127,167,-61
6128,9448,0,2023-03-10T14:07:07.922934,6306099,1065,511,1439,-1029,-610,-279,127,167,-61
6129,9449,0,2023-03-10T14:07:07.927563,6306104,1060,520,1442,-1015,-646,-262,121,163,-61
6130,9450,0,2023-03-10T14:07:07.932451,6306109,1060,520,1442,-1015,-646,-262,121,163,-61
6131,9451,0,2023-03-10T14:07:07.936922,6306113,1060,520,1442,-1015,-646,-262,121,163,-61
6132,9452,0,2023-03-10T14:07:07.941440,6306117,1060,520,1442,-1015,-646,-262,121,163,-61
6133,9453,0,2023-03-10T14:07:07.946181,6306122,1056,514,1451,-1013,-632,-240,121,163,-61
6134,9454,0,2023-03-10T14:07:07.951368,6306127,1056,514,1451,-1013,-632,-240,121,163,-61
6135,9455,0,2023-03-10T14:07:07.955987,6306131,1056,514,1451,-1013,-632,-240,121,163,-61
6136,9456,0,2023-03-10T14:07:07.960895,6306137,1056,514,1451,-1013,-632,-240,121,163,-61
6137,9457,0,2023-03-10T14:07:07.965341,6306142,1056,514,1451,-1013,-632,-240,121,163,-61
6138,9458,0,2023-03-10T14:07:07.969690,6306146,1041,509,1437,-1053,-630,-279,121,163,-61
6139,9459,0,2023-03-10T14:07:07.974842,6306151,1041,509,1437,-1053,-630,-279,121,163,-61
6140,9460,0,2023-03-10T14:07:07.979226,6306155,1041,509,1437,-1053,-630,-279,121,163,-61
6141,9461,0,2023-03-10T14:07:07.984161,6306160,1041,509,1437,-1053,-630,-279,121,163,-61
6142,9462,0,2023-03-10T14:07:07.988714,6306164,1064,509,1440,-1038,-664,-281,121,163,-61
6143,9463,0,2023-03-10T14:07:07.993921,6306169,1064,509,1440,-1038,-664,-281,121,163,-61
6144,9464,0,2023-03-10T14:07:07.998569,6306174,1064,509,1440,-1038,-664,-281,121,163,-61
6145,9465,0,2023-03-10T14:07:08.003513,6306180,1064,509,1440,-1038,-664,-281,121,163,-61
6146,9466,0,2023-03-10T14:07:08.008161,6306184,1062,505,1451,-1029,-621,-256,121,163,-61
6147,9467,0,2023-03-10T14:07:08.012904,6306189,1062,505,1451,-1029,-621,-256,121,163,-61
6148,9468,0,2023-03-10T14:07:08.018164,6306194,1062,505,1451,-1029,-621,-256,121,163,-61
6149,9469,0,2023-03-10T14:07:08.023174,6306199,1062,505,1451,-1029,-621,-256,121,163,-61
6150,9470,0,2023-03-10T14:07:08.027681,6306204,1057,512,1427,-1035,-662,-267,121,163,-61
6151,9471,0,2023-03-10T14:07:08.032607,6306208,1057,512,1427,-1035,-662,-267,121,163,-61
6152,9472,0,2023-03-10T14:07:08.037307,6306213,1057,512,1427,-1035,-662,-267,121,163,-61
6153,9473,0,2023-03-10T14:07:08.041827,6306217,1057,512,1427,-1035,-662,-267,121,163,-61
6154,9474,0,2023-03-10T14:07:08.046852,6306223,1062,512,1457,-1031,-630,-263,121,163,-61
6155,9475,0,2023-03-10T14:07:08.051852,6306228,1062,512,1457,-1031,-630,-263,121,163,-61
6156,9476,0,2023-03-10T14:07:08.056378,6306232,1062,512,1457,-1031,-630,-263,121,163,-61
6157,9477,0,2023-03-10T14:07:08.061300,6306237,1062,512,1457,-1031,-630,-263,121,163,-61
6158,9478,0,2023-03-10T14:07:08.065810,6306242,1062,512,1457,-1031,-630,-263,121,163,-61
6159,9479,0,2023-03-10T14:07:08.070373,6306246,1049,509,1438,-1040,-641,-271,118,168,-70
6160,9480,0,2023-03-10T14:07:08.075395,6306251,1049,509,1438,-1040,-641,-271,118,168,-70
6161,9481,0,2023-03-10T14:07:08.079996,6306256,1049,509,1438,-1040,-641,-271,118,168,-70
6162,9482,0,2023-03-10T14:07:08.085212,6306262,1049,509,1438,-1040,-641,-271,118,168,-70
6163,9483,0,2023-03-10T14:07:08.089842,6306266,1058,511,1438,-1041,-658,-268,118,168,-70
6164,9484,0,2023-03-10T14:07:08.094689,6306271,1058,511,1438,-1041,-658,-268,118,168,-70
6165,9485,0,2023-03-10T14:07:08.099211,6306275,1058,511,1438,-1041,-658,-268,118,168,-70
6166,9486,0,2023-03-10T14:07:08.104317,6306280,1058,511,1438,-1041,-658,-268,118,168,-70
6167,9487,0,2023-03-10T14:07:08.109225,6306285,1064,509,1449,-1023,-626,-277,118,168,-70
6168,9488,0,2023-03-10T14:07:08.114322,6306290,1064,509,1449,-1023,-626,-277,118,168,-70
6169,9489,0,2023-03-10T14:07:08.119495,6306295,1064,509,1449,-1023,-626,-277,118,168,-70
6170,9490,0,2023-03-10T14:07:08.123908,6306300,1064,509,1449,-1023,-626,-277,118,168,-70
6171,9491,0,2023-03-10T14:07:08.128197,6306305,1056,508,1431,-1039,-665,-255,118,168,-70
6172,9492,0,2023-03-10T14:07:08.133096,6306309,1056,508,1431,-1039,-665,-255,118,168,-70
6173,9493,0,2023-03-10T14:07:08.137595,6306314,1056,508,1431,-1039,-665,-255,118,168,-70
6174,9494,0,2023-03-10T14:07:08.142396,6306318,1056,508,1431,-1039,-665,-255,118,168,-70
6175,9495,0,2023-03-10T14:07:08.147312,6306323,1073,517,1448,-1024,-631,-280,118,168,-70
6176,9496,0,2023-03-10T14:07:08.152668,6306329,1073,517,1448,-1024,-631,-280,118,168,-70
6177,9497,0,2023-03-10T14:07:08.157103,6306333,1073,517,1448,-1024,-631,-280,118,168,-70
6178,9498,0,2023-03-10T14:07:08.162507,6306337,1073,517,1448,-1024,-631,-280,118,168,-70
6179,9499,0,2023-03-10T14:07:08.167885,6306343,1053,505,1433,-1027,-628,-242,118,168,-70
6180,9500,0,2023-03-10T14:07:08.173451,6306350,1053,505,1433,-1027,-628,-242,118,168,-70
6181,9501,0,2023-03-10T14:07:08.178160,6306354,1053,505,1433,-1027,-628,-242,118,168,-70
6182,9502,0,2023-03-10T14:07:08.183311,6306360,1053,505,1433,-1027,-628,-242,118,168,-70
6183,9503,0,2023-03-10T14:07:08.187946,6306364,1050,510,1445,-1010,-649,-233,123,169,-77
6184,9504,0,2023-03-10T14:07:08.192883,6306369,1050,510,1445,-1010,-649,-233,123,169,-77
6185,9505,0,2023-03-10T14:07:08.197672,6306373,1050,510,1445,-1010,-649,-233,123,169,-77
6186,9506,0,2023-03-10T14:07:08.202182,6306378,1050,510,1445,-1010,-649,-233,123,169,-77
6187,9507,0,2023-03-10T14:07:08.207237,6306383,1073,513,1455,-1046,-627,-294,123,169,-77
6188,9508,0,2023-03-10T14:07:08.212320,6306388,1073,513,1455,-1046,-627,-294,123,169,-77
6189,9509,0,2023-03-10T14:07:08.216795,6306393,1073,513,1455,-1046,-627,-294,123,169,-77
6190,9510,0,2023-03-10T14:07:08.221425,6306398,1073,513,1455,-1046,-627,-294,123,169,-77
6191,9511,0,2023-03-10T14:07:08.226601,6306403,1073,513,1455,-1046,-627,-294,123,169,-77
6192,9512,0,2023-03-10T14:07:08.231162,6306407,1061,512,1435,-1034,-657,-258,123,169,-77
6193,9513,0,2023-03-10T14:07:08.236430,6306412,1061,512,1435,-1034,-657,-258,123,169,-77
6194,9514,0,2023-03-10T14:07:08.240944,6306417,1061,512,1435,-1034,-657,-258,123,169,-77
6195,9515,0,2023-03-10T14:07:08.246044,6306422,1061,512,1435,-1034,-657,-258,123,169,-77
6196,9516,0,2023-03-10T14:07:08.250737,6306426,1074,515,1451,-1030,-639,-265,123,169,-77
6197,9517,0,2023-03-10T14:07:08.255820,6306432,1074,515,1451,-1030,-639,-265,123,169,-77
6198,9518,0,2023-03-10T14:07:08.260466,6306437,1074,515,1451,-1030,-639,-265,123,169,-77
6199,9519,0,2023-03-10T14:07:08.265409,6306442,1074,515,1451,-1030,-639,-265,123,169,-77
6200,9520,0,2023-03-10T14:07:08.269869,6306446,1058,506,1428,-1027,-638,-274,123,169,-77
6201,9521,0,2023-03-10T14:07:08.274884,6306451,1058,506,1428,-1027,-638,-274,123,169,-77
6202,9522,0,2023-03-10T14:07:08.279715,6306456,1058,506,1428,-1027,-638,-274,123,169,-77
6203,9523,0,2023-03-10T14:07:08.284173,6306460,1058,506,1428,-1027,-638,-274,123,169,-77
6204,9524,0,2023-03-10T14:07:08.288537,6306465,1058,506,1428,-1027,-638,-274,123,169,-77
6205,9525,0,2023-03-10T14:07:08.292926,6306469,1058,506,1428,-1027,-638,-274,123,169,-77
6206,9526,0,2023-03-10T14:07:08.297798,6306473,1058,506,1428,-1027,-638,-274,123,169,-77
6207,9527,0,2023-03-10T14:07:08.302594,6306479,1058,506,1428,-1027,-638,-274,123,169,-77
6208,9528,0,2023-03-10T14:07:08.307051,6306483,1061,509,1455,-1023,-630,-247,123,169,-77
6209,9529,0,2023-03-10T14:07:08.311995,6306488,1061,509,1455,-1023,-630,-247,123,169,-77
6210,9530,0,2023-03-10T14:07:08.316601,6306493,1061,509,1455,-1023,-630,-247,123,169,-77
6211,9531,0,2023-03-10T14:07:08.321280,6306497,1061,509,1455,-1023,-630,-247,123,169,-77
6212,9532,0,2023-03-10T14:07:08.326127,6306502,1061,509,1455,-1023,-630,-247,123,169,-77
6213,9533,0,2023-03-10T14:07:08.330678,6306506,1059,512,1437,-1048,-647,-280,116,168,-68
6214,9534,0,2023-03-10T14:07:08.336097,6306512,1059,512,1437,-1048,-647,-280,116,168,-68
6215,9535,0,2023-03-10T14:07:08.340682,6306516,1059,512,1437,-1048,-647,-280,116,168,-68
6216,9536,0,2023-03-10T14:07:08.345676,6306522,1059,512,1437,-1048,-647,-280,116,168,-68
6217,9537,0,2023-03-10T14:07:08.350233,6306527,1085,514,1443,-1032,-648,-266,116,168,-68
6218,9538,0,2023-03-10T14:07:08.355661,6306532,1085,514,1443,-1032,-648,-266,116,168,-68
6219,9539,0,2023-03-10T14:07:08.360193,6306536,1085,514,1443,-1032,-648,-266,116,168,-68
6220,9540,0,2023-03-10T14:07:08.364637,6306541,1085,514,1443,-1032,-648,-266,116,168,-68
6221,9541,0,2023-03-10T14:07:08.369190,6306545,1068,517,1430,-1027,-643,-269,116,168,-68
6222,9542,0,2023-03-10T14:07:08.374479,6306550,1068,517,1430,-1027,-643,-269,116,168,-68
6223,9543,0,2023-03-10T14:07:08.379382,6306555,1068,517,1430,-1027,-643,-269,116,168,-68
6224,9544,0,2023-03-10T14:07:08.384417,6306561,1068,517,1430,-1027,-643,-269,116,168,-68
6225,9545,0,2023-03-10T14:07:08.388786,6306565,1059,504,1430,-1035,-635,-223,116,168,-68
6226,9546,0,2023-03-10T14:07:08.393674,6306570,1059,504,1430,-1035,-635,-223,116,168,-68
6227,9547,0,2023-03-10T14:07:08.398364,6306574,1059,504,1430,-1035,-635,-223,116,168,-68
6228,9548,0,2023-03-10T14:07:08.403441,6306579,1059,504,1430,-1035,-635,-223,116,168,-68
6229,9549,0,2023-03-10T14:07:08.408165,6306584,1053,507,1453,-1011,-621,-256,116,168,-68
6230,9550,0,2023-03-10T14:07:08.413087,6306589,1053,507,1453,-1011,-621,-256,116,168,-68
6231,9551,0,2023-03-10T14:07:08.418278,6306594,1053,507,1453,-1011,-621,-256,116,168,-68
6232,9552,0,2023-03-10T14:07:08.423461,6306599,1053,507,1453,-1011,-621,-256,116,168,-68
6233,9553,0,2023-03-10T14:07:08.427893,6306604,1074,513,1434,-1044,-675,-297,116,168,-68
6234,9554,0,2023-03-10T14:07:08.432484,6306609,1074,513,1434,-1044,-675,-297,116,168,-68
6235,9555,0,2023-03-10T14:07:08.437048,6306613,1074,513,1434,-1044,-675,-297,116,168,-68
6236,9556,0,2023-03-10T14:07:08.442022,6306618,1074,513,1434,-1044,-675,-297,116,168,-68
6237,9557,0,2023-03-10T14:07:08.446583,6306623,1074,513,1434,-1044,-675,-297,116,168,-68
6238,9558,0,2023-03-10T14:07:08.451557,6306627,1064,509,1438,-1032,-630,-261,127,155,-61
6239,9559,0,2023-03-10T14:07:08.456864,6306633,1064,509,1438,-1032,-630,-261,127,155,-61
6240,9560,0,2023-03-10T14:07:08.461381,6306637,1064,509,1438,-1032,-630,-261,127,155,-61
6241,9561,0,2023-03-10T14:07:08.466429,6306642,1064,509,1438,-1032,-630,-261,127,155,-61
6242,9562,0,2023-03-10T14:07:08.471171,6306647,1076,518,1433,-1033,-653,-287,127,155,-61
6243,9563,0,2023-03-10T14:07:08.477050,6306653,1076,518,1433,-1033,-653,-287,127,155,-61
6244,9564,0,2023-03-10T14:07:08.482738,6306658,1076,518,1433,-1033,-653,-287,127,155,-61
6245,9565,0,2023-03-10T14:07:08.487636,6306664,1065,504,1443,-1007,-624,-234,127,155,-61
6246,9566,0,2023-03-10T14:07:08.492769,6306669,1065,504,1443,-1007,-624,-234,127,155,-61
6247,9567,0,2023-03-10T14:07:08.497616,6306673,1065,504,1443,-1007,-624,-234,127,155,-61
6248,9568,0,2023-03-10T14:07:08.502849,6306678,1065,504,1443,-1007,-624,-234,127,155,-61
6249,9569,0,2023-03-10T14:07:08.508338,6306684,1048,502,1434,-1018,-627,-244,127,155,-61
6250,9570,0,2023-03-10T14:07:08.513721,6306690,1048,502,1434,-1018,-627,-244,127,155,-61
6251,9571,0,2023-03-10T14:07:08.518465,6306695,1048,502,1434,-1018,-627,-244,127,155,-61
6252,9572,0,2023-03-10T14:07:08.523562,6306700,1048,502,1434,-1018,-627,-244,127,155,-61
6253,9573,0,2023-03-10T14:07:08.528387,6306704,1079,515,1442,-1037,-666,-295,127,155,-61
6254,9574,0,2023-03-10T14:07:08.533390,6306709,1079,515,1442,-1037,-666,-295,127,155,-61
6255,9575,0,2023-03-10T14:07:08.537975,6306714,1079,515,1442,-1037,-666,-295,127,155,-61
6256,9576,0,2023-03-10T14:07:08.542522,6306718,1079,515,1442,-1037,-666,-295,127,155,-61
6257,9577,0,2023-03-10T14:07:08.547621,6306723,1068,509,1444,-1037,-630,-260,127,155,-61
6258,9578,0,2023-03-10T14:07:08.553083,6306728,1068,509,1444,-1037,-630,-260,127,155,-61
6259,9579,0,2023-03-10T14:07:08.557734,6306734,1068,509,1444,-1037,-630,-260,127,155,-61
6260,9580,0,2023-03-10T14:07:08.562500,6306739,1068,509,1444,-1037,-630,-260,127,155,-61
6261,9581,0,2023-03-10T14:07:08.567031,6306743,1069,514,1432,-1031,-665,-283,127,155,-61
6262,9582,0,2023-03-10T14:07:08.572275,6306748,1069,514,1432,-1031,-665,-283,127,155,-61
6263,9583,0,2023-03-10T14:07:08.576927,6306753,1069,514,1432,-1031,-665,-283,127,155,-61
6264,9584,0,2023-03-10T14:07:08.581619,6306757,1069,514,1432,-1031,-665,-283,127,155,-61
6265,9585,0,2023-03-10T14:07:08.587105,6306763,1069,514,1432,-1031,-665,-283,127,155,-61
6266,9586,0,2023-03-10T14:07:08.591784,6306768,1074,509,1448,-1028,-629,-250,127,155,-61
6267,9587,0,2023-03-10T14:07:08.596893,6306772,1074,509,1448,-1028,-629,-250,127,155,-61
6268,9588,0,2023-03-10T14:07:08.601424,6306778,1074,509,1448,-1028,-629,-250,127,155,-61
6269,9589,0,2023-03-10T14:07:08.606444,6306783,1074,509,1448,-1028,-629,-250,127,155,-61
6270,9590,0,2023-03-10T14:07:08.611137,6306787,1056,508,1423,-1034,-622,-279,127,155,-61
6271,9591,0,2023-03-10T14:07:08.616239,6306792,1056,508,1423,-1034,-622,-279,127,155,-61
6272,9592,0,2023-03-10T14:07:08.620879,6306797,1056,508,1423,-1034,-622,-279,127,155,-61
6273,9593,0,2023-03-10T14:07:08.626296,6306802,1056,508,1423,-1034,-622,-279,127,155,-61
6274,9594,0,2023-03-10T14:07:08.630948,6306807,1067,507,1439,-1033,-658,-268,127,155,-61
6275,9595,0,2023-03-10T14:07:08.636782,6306812,1067,507,1439,-1033,-658,-268,127,155,-61
6276,9596,0,2023-03-10T14:07:08.641866,6306818,1067,507,1439,-1033,-658,-268,127,155,-61
6277,9597,0,2023-03-10T14:07:08.647291,6306823,1081,517,1439,-1038,-622,-281,127,155,-61
6278,9598,0,2023-03-10T14:07:08.652429,6306829,1081,517,1439,-1038,-622,-281,127,155,-61
6279,9599,0,2023-03-10T14:07:08.657283,6306833,1081,517,1439,-1038,-622,-281,127,155,-61
6280,9600,0,2023-03-10T14:07:08.662025,6306838,1081,517,1439,-1038,-622,-281,127,155,-61
6281,9601,0,2023-03-10T14:07:08.667232,6306843,1064,506,1428,-1037,-673,-227,127,155,-61
6282,9602,0,2023-03-10T14:07:08.672353,6306848,1064,506,1428,-1037,-673,-227,127,155,-61
6283,9603,0,2023-03-10T14:07:08.677545,6306853,1064,506,1428,-1037,-673,-227,127,155,-61
6284,9604,0,2023-03-10T14:07:08.682307,6306859,1064,506,1428,-1037,-673,-227,127,155,-61
6285,9605,0,2023-03-10T14:07:08.687116,6306864,1074,515,1453,-1013,-626,-259,127,155,-61
6286,9606,0,2023-03-10T14:07:08.692418,6306869,1074,515,1453,-1013,-626,-259,127,155,-61
6287,9607,0,2023-03-10T14:07:08.697124,6306873,1074,515,1453,-1013,-626,-259,127,155,-61
6288,9608,0,2023-03-10T14:07:08.702439,6306878,1074,515,1453,-1013,-626,-259,127,155,-61
6289,9609,0,2023-03-10T14:07:08.708129,6306883,1069,512,1433,-1050,-642,-280,125,153,-65
6290,9610,0,2023-03-10T14:07:08.713468,6306889,1069,512,1433,-1050,-642,-280,125,153,-65
6291,9611,0,2023-03-10T14:07:08.718235,6306894,1069,512,1433,-1050,-642,-280,125,153,-65
6292,9612,0,2023-03-10T14:07:08.723427,6306899,1069,512,1433,-1050,-642,-280,125,153,-65
6293,9613,0,2023-03-10T14:07:08.728103,6306904,1065,502,1437,-1022,-638,-258,125,153,-65
6294,9614,0,2023-03-10T14:07:08.733457,6306910,1065,502,1437,-1022,-638,-258,125,153,-65
6295,9615,0,2023-03-10T14:07:08.738703,6306915,1065,502,1437,-1022,-638,-258,125,153,-65
6296,9616,0,2023-03-10T14:07:08.744082,6306920,1065,502,1437,-1022,-638,-258,125,153,-65
6297,9617,0,2023-03-10T14:07:08.748551,6306925,1082,516,1442,-1031,-631,-277,125,153,-65
6298,9618,0,2023-03-10T14:07:08.753322,6306929,1082,516,1442,-1031,-631,-277,125,153,-65
6299,9619,0,2023-03-10T14:07:08.757955,6306934,1082,516,1442,-1031,-631,-277,125,153,-65
6300,9620,0,2023-03-10T14:07:08.762799,6306938,1082,516,1442,-1031,-631,-277,125,153,-65
6301,9621,0,2023-03-10T14:07:08.767978,6306944,1071,513,1442,-1018,-650,-231,125,153,-65
6302,9622,0,2023-03-10T14:07:08.773143,6306949,1071,513,1442,-1018,-650,-231,125,153,-65
6303,9623,0,2023-03-10T14:07:08.778143,6306954,1071,513,1442,-1018,-650,-231,125,153,-65
6304,9624,0,2023-03-10T14:07:08.782763,6306959,1071,513,1442,-1018,-650,-231,125,153,-65
6305,9625,0,2023-03-10T14:07:08.787610,6306963,1060,509,1435,-1030,-625,-245,125,153,-65
6306,9626,0,2023-03-10T14:07:08.793031,6306969,1060,509,1435,-1030,-625,-245,125,153,-65
6307,9627,0,2023-03-10T14:07:08.798295,6306974,1060,509,1435,-1030,-625,-245,125,153,-65
6308,9628,0,2023-03-10T14:07:08.803309,6306979,1060,509,1435,-1030,-625,-245,125,153,-65
6309,9629,0,2023-03-10T14:07:08.808668,6306984,1091,515,1433,-1049,-673,-297,125,153,-65
6310,9630,0,2023-03-10T14:07:08.814202,6306990,1091,515,1433,-1049,-673,-297,125,153,-65
6311,9631,0,2023-03-10T14:07:08.819753,6306995,1091,515,1433,-1049,-673,-297,125,153,-65
6312,9632,0,2023-03-10T14:07:08.825394,6307001,1091,515,1433,-1049,-673,-297,125,153,-65
6313,9633,0,2023-03-10T14:07:08.830346,6307006,1062,501,1438,-1039,-648,-242,124,168,-66
6314,9634,0,2023-03-10T14:07:08.835626,6307011,1062,501,1438,-1039,-648,-242,124,168,-66
6315,9635,0,2023-03-10T14:07:08.841388,6307017,1062,501,1438,-1039,-648,-242,124,168,-66
6316,9636,0,2023-03-10T14:07:08.847390,6307023,1062,501,1438,-1039,-648,-242,124,168,-66
6317,9637,0,2023-03-10T14:07:08.852247,6307028,1084,515,1428,-1035,-621,-278,124,168,-66
6318,9638,0,2023-03-10T14:07:08.857775,6307034,1084,515,1428,-1035,-621,-278,124,168,-66
6319,9639,0,2023-03-10T14:07:08.862674,6307039,1084,515,1428,-1035,-621,-278,124,168,-66
6320,9640,0,2023-03-10T14:07:08.867456,6307044,1079,515,1448,-1017,-663,-246,124,168,-66
6321,9641,0,2023-03-10T14:07:08.872533,6307049,1079,515,1448,-1017,-663,-246,124,168,-66
6322,9642,0,2023-03-10T14:07:08.878385,6307054,1079,515,1448,-1017,-663,-246,124,168,-66
6323,9643,0,2023-03-10T14:07:08.882964,6307059,1079,515,1448,-1017,-663,-246,124,168,-66
6324,9644,0,2023-03-10T14:07:08.888675,6307064,1064,511,1429,-1038,-612,-270,124,168,-66
6325,9645,0,2023-03-10T14:07:08.894151,6307069,1064,511,1429,-1038,-612,-270,124,168,-66
6326,9646,0,2023-03-10T14:07:08.899868,6307076,1064,511,1429,-1038,-612,-270,124,168,-66
6327,9647,0,2023-03-10T14:07:08.904554,6307081,1064,511,1429,-1038,-612,-270,124,168,-66
6328,9648,0,2023-03-10T14:07:08.909623,6307085,1083,515,1436,-1033,-640,-287,124,168,-66
6329,9649,0,2023-03-10T14:07:08.914694,6307091,1083,515,1436,-1033,-640,-287,124,168,-66
6330,9650,0,2023-03-10T14:07:08.919400,6307095,1083,515,1436,-1033,-640,-287,124,168,-66
6331,9651,0,2023-03-10T14:07:08.924598,6307100,1083,515,1436,-1033,-640,-287,124,168,-66
6332,9652,0,2023-03-10T14:07:08.929665,6307105,1059,496,1446,-1026,-626,-246,124,168,-66
6333,9653,0,2023-03-10T14:07:08.935391,6307111,1059,496,1446,-1026,-626,-246,124,168,-66
6334,9654,0,2023-03-10T14:07:08.940610,6307117,1059,496,1446,-1026,-626,-246,124,168,-66
6335,9655,0,2023-03-10T14:07:08.945884,6307122,1059,496,1446,-1026,-626,-246,124,168,-66
6336,9656,0,2023-03-10T14:07:08.950451,6307127,1084,515,1420,-1024,-662,-277,124,168,-66
6337,9657,0,2023-03-10T14:07:08.955532,6307132,1084,515,1420,-1024,-662,-277,124,168,-66
6338,9658,0,2023-03-10T14:07:08.960206,6307136,1084,515,1420,-1024,-662,-277,124,168,-66
6339,9659,0,2023-03-10T14:07:08.964682,6307141,1084,515,1420,-1024,-662,-277,124,168,-66
6340,9660,0,2023-03-10T14:07:08.969213,6307145,1069,509,1455,-1009,-620,-209,122,164,-60
6341,9661,0,2023-03-10T14:07:08.974236,6307150,1069,509,1455,-1009,-620,-209,122,164,-60
6342,9662,0,2023-03-10T14:07:08.978822,6307154,1069,509,1455,-1009,-620,-209,122,164,-60
6343,9663,0,2023-03-10T14:07:08.984183,6307161,1069,509,1455,-1009,-620,-209,122,164,-60
6344,9664,0,2023-03-10T14:07:08.988878,6307165,1074,514,1429,-1024,-668,-254,122,164,-60
6345,9665,0,2023-03-10T14:07:08.994187,6307170,1074,514,1429,-1024,-668,-254,122,164,-60
6346,9666,0,2023-03-10T14:07:08.998852,6307175,1074,514,1429,-1024,-668,-254,122,164,-60
6347,9667,0,2023-03-10T14:07:09.004187,6307180,1074,514,1429,-1024,-668,-254,122,164,-60
6348,9668,0,2023-03-10T14:07:09.008716,6307185,1087,508,1434,-1040,-635,-291,122,164,-60
6349,9669,0,2023-03-10T14:07:09.014027,6307190,1087,508,1434,-1040,-635,-291,122,164,-60
6350,9670,0,2023-03-10T14:07:09.018475,6307194,1087,508,1434,-1040,-635,-291,122,164,-60
6351,9671,0,2023-03-10T14:07:09.023712,6307200,1087,508,1434,-1040,-635,-291,122,164,-60
6352,9672,0,2023-03-10T14:07:09.028059,6307205,1068,505,1426,-1028,-660,-258,122,164,-60
6353,9673,0,2023-03-10T14:07:09.033403,6307210,1068,505,1426,-1028,-660,-258,122,164,-60
6354,9674,0,2023-03-10T14:07:09.038206,6307214,1068,505,1426,-1028,-660,-258,122,164,-60
6355,9675,0,2023-03-10T14:07:09.043332,6307219,1068,505,1426,-1028,-660,-258,122,164,-60
6356,9676,0,2023-03-10T14:07:09.047859,6307224,1087,512,1444,-1036,-606,-284,122,164,-60
6357,9677,0,2023-03-10T14:07:09.052468,6307228,1087,512,1444,-1036,-606,-284,122,164,-60
6358,9678,0,2023-03-10T14:07:09.057441,6307233,1087,512,1444,-1036,-606,-284,122,164,-60
6359,9679,0,2023-03-10T14:07:09.062200,6307238,1087,512,1444,-1036,-606,-284,122,164,-60
6360,9680,0,2023-03-10T14:07:09.067186,6307244,1087,512,1444,-1036,-606,-284,122,164,-60
6361,9681,0,2023-03-10T14:07:09.071751,6307248,1062,508,1432,-1016,-657,-248,122,164,-60
6362,9682,0,2023-03-10T14:07:09.076336,6307253,1062,508,1432,-1016,-657,-248,122,164,-60
6363,9683,0,2023-03-10T14:07:09.081093,6307257,1062,508,1432,-1016,-657,-248,122,164,-60
6364,9684,0,2023-03-10T14:07:09.086261,6307262,1062,508,1432,-1016,-657,-248,122,164,-60
6365,9685,0,2023-03-10T14:07:09.090827,6307267,1102,520,1433,-1032,-637,-292,124,164,-68
6366,9686,0,2023-03-10T14:07:09.095720,6307272,1102,520,1433,-1032,-637,-292,124,164,-68
6367,9687,0,2023-03-10T14:07:09.100296,6307276,1102,520,1433,-1032,-637,-292,124,164,-68
6368,9688,0,2023-03-10T14:07:09.105668,6307281,1102,520,1433,-1032,-637,-292,124,164,-68
6369,9689,0,2023-03-10T14:07:09.110355,6307287,1062,501,1435,-1012,-653,-199,124,164,-68
6370,9690,0,2023-03-10T14:07:09.115538,6307292,1062,501,1435,-1012,-653,-199,124,164,-68
6371,9691,0,2023-03-10T14:07:09.120454,6307297,1062,501,1435,-1012,-653,-199,124,164,-68
6372,9692,0,2023-03-10T14:07:09.125609,6307302,1062,501,1435,-1012,-653,-199,124,164,-68
6373,9693,0,2023-03-10T14:07:09.130317,6307306,1076,509,1427,-1016,-647,-249,124,164,-68
6374,9694,0,2023-03-10T14:07:09.135852,6307312,1076,509,1427,-1016,-647,-249,124,164,-68
6375,9695,0,2023-03-10T14:07:09.140767,6307316,1076,509,1427,-1016,-647,-249,124,164,-68
6376,9696,0,2023-03-10T14:07:09.146140,6307322,1076,509,1427,-1016,-647,-249,124,164,-68
6377,9697,0,2023-03-10T14:07:09.150727,6307326,1090,513,1444,-1038,-632,-281,124,164,-68
6378,9698,0,2023-03-10T14:07:09.156426,6307333,1090,513,1444,-1038,-632,-281,124,164,-68
6379,9699,0,2023-03-10T14:07:09.161209,6307337,1090,513,1444,-1038,-632,-281,124,164,-68
6380,9700,0,2023-03-10T14:07:09.166006,6307342,1090,513,1444,-1038,-632,-281,124,164,-68
6381,9701,0,2023-03-10T14:07:09.170422,6307347,1085,511,1424,-1011,-657,-264,124,164,-68
6382,9702,0,2023-03-10T14:07:09.175810,6307352,1085,511,1424,-1011,-657,-264,124,164,-68
6383,9703,0,2023-03-10T14:07:09.180613,6307356,1085,511,1424,-1011,-657,-264,124,164,-68
6384,9704,0,2023-03-10T14:07:09.185645,6307361,1085,511,1424,-1011,-657,-264,124,164,-68
6385,9705,0,2023-03-10T14:07:09.190401,6307366,1080,503,1433,-1033,-603,-264,124,164,-68
6386,9706,0,2023-03-10T14:07:09.195771,6307372,1080,503,1433,-1033,-603,-264,124,164,-68
6387,9707,0,2023-03-10T14:07:09.200712,6307377,1080,503,1433,-1033,-603,-264,124,164,-68
6388,9708,0,2023-03-10T14:07:09.205991,6307382,1080,503,1433,-1033,-603,-264,124,164,-68
6389,9709,0,2023-03-10T14:07:09.210960,6307387,1080,515,1438,-1024,-659,-275,124,164,-68
6390,9710,0,2023-03-10T14:07:09.216603,6307392,1080,515,1438,-1024,-659,-275,124,164,-68
6391,9711,0,2023-03-10T14:07:09.221357,6307397,1080,515,1438,-1024,-659,-275,124,164,-68
6392,9712,0,2023-03-10T14:07:09.226601,6307402,1080,515,1438,-1024,-659,-275,124,164,-68
6393,9713,0,2023-03-10T14:07:09.231202,6307407,1081,520,1430,-1046,-626,-271,120,164,-64
6394,9714,0,2023-03-10T14:07:09.235899,6307411,1081,520,1430,-1046,-626,-271,120,164,-64
6395,9715,0,2023-03-10T14:07:09.240619,6307417,1081,520,1430,-1046,-626,-271,120,164,-64
6396,9716,0,2023-03-10T14:07:09.245484,6307422,1081,520,1430,-1046,-626,-271,120,164,-64
6397,9717,0,2023-03-10T14:07:09.249874,6307426,1065,500,1436,-1029,-625,-255,120,164,-64
6398,9718,0,2023-03-10T14:07:09.254756,6307431,1065,500,1436,-1029,-625,-255,120,164,-64
6399,9719,0,2023-03-10T14:07:09.259176,6307435,1065,500,1436,-1029,-625,-255,120,164,-64
6400,9720,0,2023-03-10T14:07:09.265052,6307441,1065,500,1436,-1029,-625,-255,120,164,-64
6401,9721,0,2023-03-10T14:07:09.269423,6307445,1093,515,1445,-1025,-676,-281,120,164,-64
6402,9722,0,2023-03-10T14:07:09.274537,6307450,1093,515,1445,-1025,-676,-281,120,164,-64
6403,9723,0,2023-03-10T14:07:09.279103,6307456,1093,515,1445,-1025,-676,-281,120,164,-64
6404,9724,0,2023-03-10T14:07:09.284113,6307461,1093,515,1445,-1025,-676,-281,120,164,-64
6405,9725,0,2023-03-10T14:07:09.288798,6307465,1077,501,1427,-1034,-624,-245,120,164,-64
6406,9726,0,2023-03-10T14:07:09.293933,6307470,1077,501,1427,-1034,-624,-245,120,164,-64
6407,9727,0,2023-03-10T14:07:09.298578,6307475,1077,501,1427,-1034,-624,-245,120,164,-64
6408,9728,0,2023-03-10T14:07:09.303322,6307479,1077,501,1427,-1034,-624,-245,120,164,-64
6409,9729,0,2023-03-10T14:07:09.307769,6307484,1077,501,1427,-1034,-624,-245,120,164,-64
6410,9730,0,2023-03-10T14:07:09.312363,6307488,1095,520,1427,-1023,-651,-277,120,164,-64
6411,9731,0,2023-03-10T14:07:09.317470,6307493,1095,520,1427,-1023,-651,-277,120,164,-64
6412,9732,0,2023-03-10T14:07:09.321911,6307499,1095,520,1427,-1023,-651,-277,120,164,-64
6413,9733,0,2023-03-10T14:07:09.327115,6307504,1095,520,1427,-1023,-651,-277,120,164,-64
6414,9734,0,2023-03-10T14:07:09.331558,6307508,1076,501,1433,-1021,-627,-206,120,164,-64
6415,9735,0,2023-03-10T14:07:09.336502,6307513,1076,501,1433,-1021,-627,-206,120,164,-64
6416,9736,0,2023-03-10T14:07:09.340812,6307517,1076,501,1433,-1021,-627,-206,120,164,-64
6417,9737,0,2023-03-10T14:07:09.345792,6307522,1076,501,1433,-1021,-627,-206,120,164,-64
6418,9738,0,2023-03-10T14:07:09.350219,6307526,1067,500,1429,-1019,-613,-256,113,157,-57
6419,9739,0,2023-03-10T14:07:09.355159,6307531,1067,500,1429,-1019,-613,-256,113,157,-57
6420,9740,0,2023-03-10T14:07:09.359658,6307535,1067,500,1429,-1019,-613,-256,113,157,-57
6421,9741,0,2023-03-10T14:07:09.364534,6307540,1067,500,1429,-1019,-613,-256,113,157,-57
6422,9742,0,2023-03-10T14:07:09.369199,6307546,1091,510,1437,-1032,-670,-290,113,157,-57
6423,9743,0,2023-03-10T14:07:09.374308,6307551,1091,510,1437,-1032,-670,-290,113,157,-57
6424,9744,0,2023-03-10T14:07:09.378953,6307555,1091,510,1437,-1032,-670,-290,113,157,-57
6425,9745,0,2023-03-10T14:07:09.384095,6307560,1091,510,1437,-1032,-670,-290,113,157,-57
6426,9746,0,2023-03-10T14:07:09.388625,6307565,1081,513,1442,-1019,-626,-246,113,157,-57
6427,9747,0,2023-03-10T14:07:09.393811,6307570,1081,513,1442,-1019,-626,-246,113,157,-57
6428,9748,0,2023-03-10T14:07:09.398342,6307574,1081,513,1442,-1019,-626,-246,113,157,-57
6429,9749,0,2023-03-10T14:07:09.402776,6307579,1081,513,1442,-1019,-626,-246,113,157,-57
6430,9750,0,2023-03-10T14:07:09.407084,6307584,1081,513,1442,-1019,-626,-246,113,157,-57
6431,9751,0,2023-03-10T14:07:09.411620,6307588,1085,509,1418,-1028,-683,-256,113,157,-57
6432,9752,0,2023-03-10T14:07:09.417089,6307593,1085,509,1418,-1028,-683,-256,113,157,-57
6433,9753,0,2023-03-10T14:07:09.421774,6307598,1085,509,1418,-1028,-683,-256,113,157,-57
6434,9754,0,2023-03-10T14:07:09.426828,6307603,1085,509,1418,-1028,-683,-256,113,157,-57
6435,9755,0,2023-03-10T14:07:09.431378,6307607,1091,519,1438,-1021,-618,-267,113,157,-57
6436,9756,0,2023-03-10T14:07:09.437136,6307613,1091,519,1438,-1021,-618,-267,113,157,-57
6437,9757,0,2023-03-10T14:07:09.441587,6307617,1091,519,1438,-1021,-618,-267,113,157,-57
6438,9758,0,2023-03-10T14:07:09.446656,6307622,1091,519,1438,-1021,-618,-267,113,157,-57
6439,9759,0,2023-03-10T14:07:09.451226,6307628,1076,506,1429,-1015,-633,-221,113,157,-57
6440,9760,0,2023-03-10T14:07:09.455824,6307632,1076,506,1429,-1015,-633,-221,113,157,-57
6441,9761,0,2023-03-10T14:07:09.460169,6307637,1076,506,1429,-1015,-633,-221,113,157,-57
6442,9762,0,2023-03-10T14:07:09.465405,6307642,1076,506,1429,-1015,-633,-221,113,157,-57
6443,9763,0,2023-03-10T14:07:09.469931,6307646,1071,506,1429,-1020,-633,-252,119,165,-69
6444,9764,0,2023-03-10T14:07:09.474680,6307651,1071,506,1429,-1020,-633,-252,119,165,-69
6445,9765,0,2023-03-10T14:07:09.479494,6307655,1071,506,1429,-1020,-633,-252,119,165,-69
6446,9766,0,2023-03-10T14:07:09.484356,6307660,1071,506,1429,-1020,-633,-252,119,165,-69
6447,9767,0,2023-03-10T14:07:09.488920,6307665,1103,516,1433,-1042,-643,-287,119,165,-69
6448,9768,0,2023-03-10T14:07:09.494070,6307671,1103,516,1433,-1042,-643,-287,119,165,-69
6449,9769,0,2023-03-10T14:07:09.498439,6307675,1103,516,1433,-1042,-643,-287,119,165,-69
6450,9770,0,2023-03-10T14:07:09.503330,6307680,1103,516,1433,-1042,-643,-287,119,165,-69
6451,9771,0,2023-03-10T14:07:09.507736,6307684,1103,516,1433,-1042,-643,-287,119,165,-69
6452,9772,0,2023-03-10T14:07:09.512297,6307688,1095,510,1433,-1014,-651,-246,119,165,-69
6453,9773,0,2023-03-10T14:07:09.517104,6307693,1095,510,1433,-1014,-651,-246,119,165,-69
6454,9774,0,2023-03-10T14:07:09.521563,6307697,1095,510,1433,-1014,-651,-246,119,165,-69
6455,9775,0,2023-03-10T14:07:09.526105,6307702,1095,510,1433,-1014,-651,-246,119,165,-69
6456,9776,0,2023-03-10T14:07:09.530396,6307706,1082,506,1412,-1043,-636,-257,119,165,-69
6457,9777,0,2023-03-10T14:07:09.535354,6307712,1082,506,1412,-1043,-636,-257,119,165,-69
6458,9778,0,2023-03-10T14:07:09.540128,6307717,1082,506,1412,-1043,-636,-257,119,165,-69
6459,9779,0,2023-03-10T14:07:09.544987,6307721,1082,506,1412,-1043,-636,-257,119,165,-69
6460,9780,0,2023-03-10T14:07:09.549524,6307726,1106,520,1436,-1018,-638,-284,119,165,-69
6461,9781,0,2023-03-10T14:07:09.554484,6307731,1106,520,1436,-1018,-638,-284,119,165,-69
6462,9782,0,2023-03-10T14:07:09.559281,6307735,1106,520,1436,-1018,-638,-284,119,165,-69
6463,9783,0,2023-03-10T14:07:09.564500,6307740,1106,520,1436,-1018,-638,-284,119,165,-69
6464,9784,0,2023-03-10T14:07:09.569041,6307745,1061,499,1424,-1014,-640,-201,119,165,-69
6465,9785,0,2023-03-10T14:07:09.573930,6307750,1061,499,1424,-1014,-640,-201,119,165,-69
6466,9786,0,2023-03-10T14:07:09.578455,6307755,1061,499,1424,-1014,-640,-201,119,165,-69
6467,9787,0,2023-03-10T14:07:09.583355,6307760,1061,499,1424,-1014,-640,-201,119,165,-69
6468,9788,0,2023-03-10T14:07:09.587794,6307764,1061,499,1424,-1014,-640,-201,119,165,-69
6469,9789,0,2023-03-10T14:07:09.593003,6307769,1061,499,1424,-1014,-640,-201,119,165,-69
6470,9790,0,2023-03-10T14:07:09.598013,6307774,1061,499,1424,-1014,-640,-201,119,165,-69
6471,9791,0,2023-03-10T14:07:09.602356,6307778,1061,499,1424,-1014,-640,-201,119,165,-69
6472,9792,0,2023-03-10T14:07:09.607219,6307783,1061,499,1424,-1014,-640,-201,119,165,-69
6473,9793,0,2023-03-10T14:07:09.611774,6307788,1102,516,1440,-1035,-676,-291,125,159,-67
6474,9794,0,2023-03-10T14:07:09.616954,6307793,1102,516,1440,-1035,-676,-291,125,159,-67
6475,9795,0,2023-03-10T14:07:09.621468,6307798,1102,516,1440,-1035,-676,-291,125,159,-67
6476,9796,0,2023-03-10T14:07:09.625846,6307802,1102,516,1440,-1035,-676,-291,125,159,-67
6477,9797,0,2023-03-10T14:07:09.630215,6307807,1079,507,1412,-1037,-635,-242,125,159,-67
6478,9798,0,2023-03-10T14:07:09.635427,6307811,1079,507,1412,-1037,-635,-242,125,159,-67
6479,9799,0,2023-03-10T14:07:09.639854,6307816,1079,507,1412,-1037,-635,-242,125,159,-67
6480,9800,0,2023-03-10T14:07:09.644930,6307821,1079,507,1412,-1037,-635,-242,125,159,-67
6481,9801,0,2023-03-10T14:07:09.649399,6307825,1099,509,1438,-1025,-637,-285,125,159,-67
6482,9802,0,2023-03-10T14:07:09.654323,6307830,1099,509,1438,-1025,-637,-285,125,159,-67
6483,9803,0,2023-03-10T14:07:09.658828,6307834,1099,509,1438,-1025,-637,-285,125,159,-67
6484,9804,0,2023-03-10T14:07:09.664081,6307841,1099,509,1438,-1025,-637,-285,125,159,-67
6485,9805,0,2023-03-10T14:07:09.668474,6307845,1081,508,1428,-1041,-621,-268,125,159,-67
6486,9806,0,2023-03-10T14:07:09.673762,6307850,1081,508,1428,-1041,-621,-268,125,159,-67
6487,9807,0,2023-03-10T14:07:09.678327,6307855,1081,508,1428,-1041,-621,-268,125,159,-67
6488,9808,0,2023-03-10T14:07:09.682714,6307859,1081,508,1428,-1041,-621,-268,125,159,-67
6489,9809,0,2023-03-10T14:07:09.687644,6307864,1081,508,1428,-1041,-621,-268,125,159,-67
6490,9810,0,2023-03-10T14:07:09.692079,6307868,1079,509,1432,-1010,-630,-230,125,159,-67
6491,9811,0,2023-03-10T14:07:09.697215,6307873,1079,509,1432,-1010,-630,-230,125,159,-67
6492,9812,0,2023-03-10T14:07:09.701962,6307878,1079,509,1432,-1010,-630,-230,125,159,-67
6493,9813,0,2023-03-10T14:07:09.707109,6307884,1079,509,1432,-1010,-630,-230,125,159,-67
6494,9814,0,2023-03-10T14:07:09.711772,6307888,1091,519,1448,-1024,-652,-267,125,159,-67
6495,9815,0,2023-03-10T14:07:09.716369,6307893,1091,519,1448,-1024,-652,-267,125,159,-67
6496,9816,0,2023-03-10T14:07:09.720752,6307897,1091,519,1448,-1024,-652,-267,125,159,-67
6497,9817,0,2023-03-10T14:07:09.725719,6307902,1091,519,1448,-1024,-652,-267,125,159,-67
6498,9818,0,2023-03-10T14:07:09.730194,6307906,1092,511,1416,-1056,-652,-269,119,163,-75
6499,9819,0,2023-03-10T14:07:09.735444,6307911,1092,511,1416,-1056,-652,-269,119,163,-75
6500,9820,0,2023-03-10T14:07:09.739964,6307916,1092,511,1416,-1056,-652,-269,119,163,-75
6501,9821,0,2023-03-10T14:07:09.745122,6307921,1092,511,1416,-1056,-652,-269,119,163,-75
6502,9822,0,2023-03-10T14:07:09.749873,6307926,1089,503,1429,-1019,-641,-240,119,163,-75
6503,9823,0,2023-03-10T14:07:09.755117,6307932,1089,503,1429,-1019,-641,-240,119,163,-75
6504,9824,0,2023-03-10T14:07:09.759765,6307936,1089,503,1429,-1019,-641,-240,119,163,-75
6505,9825,0,2023-03-10T14:07:09.764894,6307941,1089,503,1429,-1019,-641,-240,119,163,-75
6506,9826,0,2023-03-10T14:07:09.769672,6307946,1093,508,1428,-1023,-641,-258,119,163,-75
6507,9827,0,2023-03-10T14:07:09.774399,6307951,1093,508,1428,-1023,-641,-258,119,163,-75
6508,9828,0,2023-03-10T14:07:09.778797,6307955,1093,508,1428,-1023,-641,-258,119,163,-75
6509,9829,0,2023-03-10T14:07:09.783937,6307960,1093,508,1428,-1023,-641,-258,119,163,-75
6510,9830,0,2023-03-10T14:07:09.788458,6307964,1093,508,1428,-1023,-641,-258,119,163,-75
6511,9831,0,2023-03-10T14:07:09.792767,6307969,1099,513,1433,-1031,-611,-272,119,163,-75
6512,9832,0,2023-03-10T14:07:09.798528,6307975,1099,513,1433,-1031,-611,-272,119,163,-75
6513,9833,0,2023-03-10T14:07:09.803776,6307980,1099,513,1433,-1031,-611,-272,119,163,-75
6514,9834,0,2023-03-10T14:07:09.808053,6307984,1099,513,1433,-1031,-611,-272,119,163,-75
6515,9835,0,2023-03-10T14:07:09.812628,6307989,1070,506,1426,-1010,-651,-211,119,163,-75
6516,9836,0,2023-03-10T14:07:09.817660,6307994,1070,506,1426,-1010,-651,-211,119,163,-75
6517,9837,0,2023-03-10T14:07:09.822033,6307998,1070,506,1426,-1010,-651,-211,119,163,-75
6518,9838,0,2023-03-10T14:07:09.827064,6308003,1070,506,1426,-1010,-651,-211,119,163,-75
6519,9839,0,2023-03-10T14:07:09.831518,6308007,1103,513,1441,-1033,-630,-284,119,163,-75
6520,9840,0,2023-03-10T14:07:09.836385,6308013,1103,513,1441,-1033,-630,-284,119,163,-75
6521,9841,0,2023-03-10T14:07:09.841084,6308017,1103,513,1441,-1033,-630,-284,119,163,-75
6522,9842,0,2023-03-10T14:07:09.846048,6308022,1103,513,1441,-1033,-630,-284,119,163,-75
6523,9843,0,2023-03-10T14:07:09.850505,6308027,1095,513,1414,-1046,-659,-272,119,163,-75
6524,9844,0,2023-03-10T14:07:09.855449,6308032,1095,513,1414,-1046,-659,-272,119,163,-75
6525,9845,0,2023-03-10T14:07:09.859806,6308036,1095,513,1414,-1046,-659,-272,119,163,-75
6526,9846,0,2023-03-10T14:07:09.864230,6308040,1095,513,1414,-1046,-659,-272,119,163,-75
6527,9847,0,2023-03-10T14:07:09.868695,6308045,1092,507,1416,-1028,-657,-249,119,163,-75
6528,9848,0,2023-03-10T14:07:09.873751,6308050,1092,507,1416,-1028,-657,-249,120,166,-72
6529,9849,0,2023-03-10T14:07:09.878477,6308055,1092,507,1416,-1028,-657,-249,120,166,-72
6530,9850,0,2023-03-10T14:07:09.883258,6308060,1092,507,1416,-1028,-657,-249,120,166,-72
6531,9851,0,2023-03-10T14:07:09.887671,6308064,1092,507,1416,-1028,-657,-249,120,166,-72
6532,9852,0,2023-03-10T14:07:09.892339,6308068,1105,512,1440,-1019,-631,-279,120,166,-72
6533,9853,0,2023-03-10T14:07:09.897561,6308074,1105,512,1440,-1019,-631,-279,120,166,-72
6534,9854,0,2023-03-10T14:07:09.902228,6308078,1105,512,1440,-1019,-631,-279,120,166,-72
6535,9855,0,2023-03-10T14:07:09.906981,6308083,1105,512,1440,-1019,-631,-279,120,166,-72
6536,9856,0,2023-03-10T14:07:09.911455,6308087,1082,514,1406,-1034,-652,-255,120,166,-72
6537,9857,0,2023-03-10T14:07:09.916574,6308092,1082,514,1406,-1034,-652,-255,120,166,-72
6538,9858,0,2023-03-10T14:07:09.921212,6308098,1082,514,1406,-1034,-652,-255,120,166,-72
6539,9859,0,2023-03-10T14:07:09.926206,6308103,1082,514,1406,-1034,-652,-255,120,166,-72
6540,9860,0,2023-03-10T14:07:09.930723,6308107,1095,511,1443,-1020,-630,-230,120,166,-72
6541,9861,0,2023-03-10T14:07:09.935308,6308112,1095,511,1443,-1020,-630,-230,120,166,-72
6542,9862,0,2023-03-10T14:07:09.940024,6308116,1095,511,1443,-1020,-630,-230,120,166,-72
6543,9863,0,2023-03-10T14:07:09.944362,6308120,1095,511,1443,-1020,-630,-230,120,166,-72
6544,9864,0,2023-03-10T14:07:09.948786,6308125,1090,505,1422,-1040,-639,-278,120,166,-72
6545,9865,0,2023-03-10T14:07:09.953940,6308130,1090,505,1422,-1040,-639,-278,120,166,-72
6546,9866,0,2023-03-10T14:07:09.958580,6308134,1090,505,1422,-1040,-639,-278,120,166,-72
6547,9867,0,2023-03-10T14:07:09.963239,6308140,1090,505,1422,-1040,-639,-278,120,166,-72
6548,9868,0,2023-03-10T14:07:09.967661,6308144,1090,505,1422,-1040,-639,-278,120,166,-72
6549,9869,0,2023-03-10T14:07:09.972139,6308149,1094,510,1409,-1049,-653,-272,120,166,-72
6550,9870,0,2023-03-10T14:07:09.977421,6308154,1094,510,1409,-1049,-653,-272,120,166,-72
6551,9871,0,2023-03-10T14:07:09.982125,6308158,1094,510,1409,-1049,-653,-272,120,166,-72
6552,9872,0,2023-03-10T14:07:09.987140,6308163,1094,510,1409,-1049,-653,-272,120,166,-72
6553,9873,0,2023-03-10T14:07:09.991608,6308168,1105,513,1441,-1019,-625,-269,122,160,-70
6554,9874,0,2023-03-10T14:07:09.996768,6308173,1105,513,1441,-1019,-625,-269,122,160,-70
6555,9875,0,2023-03-10T14:07:10.001056,6308177,1105,513,1441,-1019,-625,-269,122,160,-70
6556,9876,0,2023-03-10T14:07:10.005484,6308182,1105,513,1441,-1019,-625,-269,122,160,-70
6557,9877,0,2023-03-10T14:07:10.010085,6308186,1087,506,1409,-1037,-666,-260,122,160,-70
6558,9878,0,2023-03-10T14:07:10.015226,6308191,1087,506,1409,-1037,-666,-260,122,160,-70
6559,9879,0,2023-03-10T14:07:10.019679,6308196,1087,506,1409,-1037,-666,-260,122,160,-70
6560,9880,0,2023-03-10T14:07:10.024817,6308201,1087,506,1409,-1037,-666,-260,122,160,-70
6561,9881,0,2023-03-10T14:07:10.029106,6308205,1110,519,1434,-1020,-614,-268,122,160,-70
6562,9882,0,2023-03-10T14:07:10.033642,6308210,1110,519,1434,-1020,-614,-268,122,160,-70
6563,9883,0,2023-03-10T14:07:10.038972,6308214,1110,519,1434,-1020,-614,-268,122,160,-70
6564,9884,0,2023-03-10T14:07:10.044020,6308220,1110,519,1434,-1020,-614,-268,122,160,-70
6565,9885,0,2023-03-10T14:07:10.048714,6308225,1110,519,1434,-1020,-614,-268,122,160,-70
6566,9886,0,2023-03-10T14:07:10.052944,6308230,1086,508,1424,-1013,-643,-238,122,160,-70
6567,9887,0,2023-03-10T14:07:10.057829,6308234,1086,508,1424,-1013,-643,-238,122,160,-70
6568,9888,0,2023-03-10T14:07:10.062174,6308239,1086,508,1424,-1013,-643,-238,122,160,-70
6569,9889,0,2023-03-10T14:07:10.067215,6308243,1086,508,1424,-1013,-643,-238,122,160,-70
6570,9890,0,2023-03-10T14:07:10.071604,6308248,1090,512,1416,-1037,-642,-279,122,160,-70
6571,9891,0,2023-03-10T14:07:10.077028,6308253,1090,512,1416,-1037,-642,-279,122,160,-70
6572,9892,0,2023-03-10T14:07:10.081574,6308257,1090,512,1416,-1037,-642,-279,122,160,-70
6573,9893,0,2023-03-10T14:07:10.086180,6308262,1090,512,1416,-1037,-642,-279,122,160,-70
6574,9894,0,2023-03-10T14:07:10.090582,6308267,1107,508,1429,-1034,-627,-264,122,160,-70
6575,9895,0,2023-03-10T14:07:10.095634,6308272,1107,508,1429,-1034,-627,-264,122,160,-70
6576,9896,0,2023-03-10T14:07:10.100332,6308276,1107,508,1429,-1034,-627,-264,122,160,-70
6577,9897,0,2023-03-10T14:07:10.105440,6308282,1107,508,1429,-1034,-627,-264,122,160,-70
6578,9898,0,2023-03-10T14:07:10.109697,6308286,1086,504,1415,-1014,-646,-251,122,160,-70
6579,9899,0,2023-03-10T14:07:10.114522,6308291,1086,504,1415,-1014,-646,-251,122,160,-70
6580,9900,0,2023-03-10T14:07:10.119364,6308295,1086,504,1415,-1014,-646,-251,122,160,-70
6581,9901,0,2023-03-10T14:07:10.124464,6308300,1086,504,1415,-1014,-646,-251,122,160,-70
6582,9902,0,2023-03-10T14:07:10.129057,6308305,1116,520,1430,-1033,-642,-280,122,160,-70
6583,9903,0,2023-03-10T14:07:10.134164,6308311,1116,520,1430,-1033,-642,-280,120,168,-70
6584,9904,0,2023-03-10T14:07:10.139325,6308316,1116,520,1430,-1033,-642,-280,120,168,-70
6585,9905,0,2023-03-10T14:07:10.144351,6308321,1116,520,1430,-1033,-642,-280,120,168,-70
6586,9906,0,2023-03-10T14:07:10.148765,6308325,1116,520,1430,-1033,-642,-280,120,168,-70
6587,9907,0,2023-03-10T14:07:10.153107,6308329,1099,511,1424,-1017,-644,-254,120,168,-70
6588,9908,0,2023-03-10T14:07:10.157759,6308334,1099,511,1424,-1017,-644,-254,120,168,-70
6589,9909,0,2023-03-10T14:07:10.162399,6308338,1099,511,1424,-1017,-644,-254,120,168,-70
6590,9910,0,2023-03-10T14:07:10.167281,6308343,1099,511,1424,-1017,-644,-254,120,168,-70
6591,9911,0,2023-03-10T14:07:10.172041,6308348,1090,503,1415,-1039,-634,-263,120,168,-70
6592,9912,0,2023-03-10T14:07:10.177159,6308354,1090,503,1415,-1039,-634,-263,120,168,-70
6593,9913,0,2023-03-10T14:07:10.181437,6308358,1090,503,1415,-1039,-634,-263,120,168,-70
6594,9914,0,2023-03-10T14:07:10.186673,6308363,1090,503,1415,-1039,-634,-263,120,168,-70
6595,9915,0,2023-03-10T14:07:10.191274,6308367,1091,501,1436,-1023,-630,-258,120,168,-70
6596,9916,0,2023-03-10T14:07:10.196403,6308373,1091,501,1436,-1023,-630,-258,120,168,-70
6597,9917,0,2023-03-10T14:07:10.200718,6308377,1091,501,1436,-1023,-630,-258,120,168,-70
6598,9918,0,2023-03-10T14:07:10.205275,6308381,1091,501,1436,-1023,-630,-258,120,168,-70
6599,9919,0,2023-03-10T14:07:10.209785,6308386,1094,510,1420,-1025,-677,-258,120,168,-70
6600,9920,0,2023-03-10T14:07:10.214766,6308390,1094,510,1420,-1025,-677,-258,120,168,-70
6601,9921,0,2023-03-10T14:07:10.219953,6308397,1094,510,1420,-1025,-677,-258,120,168,-70
6602,9922,0,2023-03-10T14:07:10.225250,6308402,1094,510,1420,-1025,-677,-258,120,168,-70
6603,9923,0,2023-03-10T14:07:10.229626,6308406,1097,508,1430,-1041,-620,-256,120,168,-70
6604,9924,0,2023-03-10T14:07:10.234275,6308411,1097,508,1430,-1041,-620,-256,120,168,-70
6605,9925,0,2023-03-10T14:07:10.239568,6308415,1097,508,1430,-1041,-620,-256,120,168,-70
6606,9926,0,2023-03-10T14:07:10.244799,6308421,1097,508,1430,-1041,-620,-256,120,168,-70
6607,9927,0,2023-03-10T14:07:10.249644,6308425,1105,514,1426,-1020,-667,-271,120,168,-70
6608,9928,0,2023-03-10T14:07:10.254946,6308431,1105,514,1426,-1020,-667,-271,123,161,-75
6609,9929,0,2023-03-10T14:07:10.259765,6308435,1105,514,1426,-1020,-667,-271,123,161,-75
6610,9930,0,2023-03-10T14:07:10.264792,6308441,1105,514,1426,-1020,-667,-271,123,161,-75
6611,9931,0,2023-03-10T14:07:10.269522,6308446,1107,507,1432,-1019,-630,-235,123,161,-75
6612,9932,0,2023-03-10T14:07:10.274752,6308451,1107,507,1432,-1019,-630,-235,123,161,-75
6613,9933,0,2023-03-10T14:07:10.279412,6308456,1107,507,1432,-1019,-630,-235,123,161,-75
6614,9934,0,2023-03-10T14:07:10.284406,6308460,1107,507,1432,-1019,-630,-235,123,161,-75
6615,9935,0,2023-03-10T14:07:10.288899,6308465,1107,507,1432,-1019,-630,-235,123,161,-75
6616,9936,0,2023-03-10T14:07:10.293380,6308469,1079,496,1413,-1020,-631,-236,123,161,-75
6617,9937,0,2023-03-10T14:07:10.298283,6308474,1079,496,1413,-1020,-631,-236,123,161,-75
6618,9938,0,2023-03-10T14:07:10.302782,6308478,1079,496,1413,-1020,-631,-236,123,161,-75
6619,9939,0,2023-03-10T14:07:10.307911,6308485,1079,496,1413,-1020,-631,-236,123,161,-75
6620,9940,0,2023-03-10T14:07:10.312480,6308489,1106,513,1427,-1034,-667,-297,123,161,-75
6621,9941,0,2023-03-10T14:07:10.317704,6308494,1106,513,1427,-1034,-667,-297,123,161,-75
6622,9942,0,2023-03-10T14:07:10.322094,6308498,1106,513,1427,-1034,-667,-297,123,161,-75
6623,9943,0,2023-03-10T14:07:10.327807,6308503,1106,513,1427,-1034,-667,-297,123,161,-75
6624,9944,0,2023-03-10T14:07:10.332096,6308508,1103,508,1429,-1029,-629,-257,123,161,-75
6625,9945,0,2023-03-10T14:07:10.337146,6308513,1103,508,1429,-1029,-629,-257,123,161,-75
6626,9946,0,2023-03-10T14:07:10.341549,6308517,1103,508,1429,-1029,-629,-257,123,161,-75
6627,9947,0,2023-03-10T14:07:10.346275,6308523,1103,508,1429,-1029,-629,-257,123,161,-75
6628,9948,0,2023-03-10T14:07:10.351030,6308527,1094,507,1410,-1029,-669,-265,123,161,-75
6629,9949,0,2023-03-10T14:07:10.356173,6308533,1094,507,1410,-1029,-669,-265,123,161,-75
6630,9950,0,2023-03-10T14:07:10.360518,6308537,1094,507,1410,-1029,-669,-265,123,161,-75
6631,9951,0,2023-03-10T14:07:10.365579,6308542,1094,507,1410,-1029,-669,-265,123,161,-75
6632,9952,0,2023-03-10T14:07:10.370131,6308546,1111,508,1428,-1029,-636,-268,123,157,-79
6633,9953,0,2023-03-10T14:07:10.375392,6308551,1111,508,1428,-1029,-636,-268,123,157,-79
6634,9954,0,2023-03-10T14:07:10.380022,6308556,1111,508,1428,-1029,-636,-268,123,157,-79
6635,9955,0,2023-03-10T14:07:10.385061,6308561,1111,508,1428,-1029,-636,-268,123,157,-79
6636,9956,0,2023-03-10T14:07:10.389409,6308566,1082,509,1415,-1027,-617,-266,123,157,-79
6637,9957,0,2023-03-10T14:07:10.394354,6308571,1082,509,1415,-1027,-617,-266,123,157,-79
6638,9958,0,2023-03-10T14:07:10.398952,6308575,1082,509,1415,-1027,-617,-266,123,157,-79
6639,9959,0,2023-03-10T14:07:10.404113,6308580,1082,509,1415,-1027,-617,-266,123,157,-79
6640,9960,0,2023-03-10T14:07:10.408551,6308585,1082,509,1415,-1027,-617,-266,123,157,-79
6641,9961,0,2023-03-10T14:07:10.412979,6308589,1097,510,1423,-1030,-644,-240,123,157,-79
6642,9962,0,2023-03-10T14:07:10.417950,6308594,1097,510,1423,-1030,-644,-240,123,157,-79
6643,9963,0,2023-03-10T14:07:10.422620,6308598,1097,510,1423,-1030,-644,-240,123,157,-79
6644,9964,0,2023-03-10T14:07:10.427236,6308603,1097,510,1423,-1030,-644,-240,123,157,-79
6645,9965,0,2023-03-10T14:07:10.431626,6308608,1097,510,1423,-1030,-644,-240,123,157,-79
6646,9966,0,2023-03-10T14:07:10.436446,6308613,1097,510,1423,-1030,-644,-240,123,157,-79
6647,9967,0,2023-03-10T14:07:10.440946,6308617,1097,510,1423,-1030,-644,-240,123,157,-79
6648,9968,0,2023-03-10T14:07:10.445768,6308622,1097,510,1423,-1030,-644,-240,123,157,-79
6649,9969,0,2023-03-10T14:07:10.450310,6308626,1100,512,1409,-1057,-679,-273,123,157,-79
6650,9970,0,2023-03-10T14:07:10.455360,6308631,1100,512,1409,-1057,-679,-273,123,157,-79
6651,9971,0,2023-03-10T14:07:10.460067,6308636,1100,512,1409,-1057,-679,-273,123,157,-79
6652,9972,0,2023-03-10T14:07:10.465087,6308641,1100,512,1409,-1057,-679,-273,123,157,-79
6653,9973,0,2023-03-10T14:07:10.469523,6308645,1112,506,1429,-1021,-634,-247,123,157,-79
6654,9974,0,2023-03-10T14:07:10.474339,6308651,1112,506,1429,-1021,-634,-247,123,157,-79
6655,9975,0,2023-03-10T14:07:10.479040,6308656,1112,506,1429,-1021,-634,-247,123,157,-79
6656,9976,0,2023-03-10T14:07:10.483693,6308660,1112,506,1429,-1021,-634,-247,123,157,-79
6657,9977,0,2023-03-10T14:07:10.488093,6308665,1112,506,1429,-1021,-634,-247,123,157,-79
6658,9978,0,2023-03-10T14:07:10.492668,6308669,1088,501,1417,-1032,-629,-253,123,157,-79
6659,9979,0,2023-03-10T14:07:10.498285,6308674,1088,501,1417,-1032,-629,-253,123,157,-79
6660,9980,0,2023-03-10T14:07:10.502654,6308679,1088,501,1417,-1032,-629,-253,123,157,-79
6661,9981,0,2023-03-10T14:07:10.507135,6308683,1088,501,1417,-1032,-629,-253,123,157,-79
6662,9982,0,2023-03-10T14:07:10.511721,6308688,1102,510,1422,-1037,-653,-271,126,158,-66
6663,9983,0,2023-03-10T14:07:10.517107,6308694,1102,510,1422,-1037,-653,-271,126,158,-66
6664,9984,0,2023-03-10T14:07:10.521852,6308698,1102,510,1422,-1037,-653,-271,126,158,-66
6665,9985,0,2023-03-10T14:07:10.527053,6308703,1102,510,1422,-1037,-653,-271,126,158,-66
6666,9986,0,2023-03-10T14:07:10.531535,6308708,1099,506,1432,-1024,-617,-262,126,158,-66
6667,9987,0,2023-03-10T14:07:10.536739,6308713,1099,506,1432,-1024,-617,-262,126,158,-66
6668,9988,0,2023-03-10T14:07:10.541525,6308717,1099,506,1432,-1024,-617,-262,126,158,-66
6669,9989,0,2023-03-10T14:07:10.547107,6308723,1099,506,1432,-1024,-617,-262,126,158,-66
6670,9990,0,2023-03-10T14:07:10.552016,6308728,1096,512,1412,-1039,-656,-265,126,158,-66
6671,9991,0,2023-03-10T14:07:10.556389,6308732,1096,512,1412,-1039,-656,-265,126,158,-66
6672,9992,0,2023-03-10T14:07:10.561213,6308737,1096,512,1412,-1039,-656,-265,126,158,-66
6673,9993,0,2023-03-10T14:07:10.566262,6308743,1096,512,1412,-1039,-656,-265,126,158,-66
6674,9994,0,2023-03-10T14:07:10.570562,6308747,1112,513,1427,-1026,-641,-265,126,158,-66
6675,9995,0,2023-03-10T14:07:10.575406,6308752,1112,513,1427,-1026,-641,-265,126,158,-66
6676,9996,0,2023-03-10T14:07:10.579897,6308756,1112,513,1427,-1026,-641,-265,126,158,-66
6677,9997,0,2023-03-10T14:07:10.584831,6308761,1112,513,1427,-1026,-641,-265,126,158,-66
6678,9998,0,2023-03-10T14:07:10.589280,6308765,1112,513,1427,-1026,-641,-265,126,158,-66
6679,9999,0,2023-03-10T14:07:10.593677,6308770,1099,505,1408,-1037,-642,-264,126,158,-66
6680,0,0,2023-03-10T14:07:10.606256,6308783,1099,505,1408,-1037,-642,-264,126,158,-66
6681,1,0,2023-03-10T14:07:10.611331,6308788,1102,501,1411,-1021,-655,-248,126,158,-66
6682,2,0,2023-03-10T14:07:10.616099,6308792,1102,501,1411,-1021,-655,-248,126,158,-66
6683,3,0,2023-03-10T14:07:10.621169,6308797,1102,501,1411,-1021,-655,-248,126,158,-66
6684,4,0,2023-03-10T14:07:10.626196,6308802,1102,501,1411,-1021,-655,-248,126,158,-66
6685,5,0,2023-03-10T14:07:10.630448,6308807,1117,514,1430,-1026,-633,-281,111,157,-67
6686,6,0,2023-03-10T14:07:10.635872,6308812,1117,514,1430,-1026,-633,-281,111,157,-67
6687,7,0,2023-03-10T14:07:10.640301,6308816,1117,514,1430,-1026,-633,-281,111,157,-67
6688,8,0,2023-03-10T14:07:10.645326,6308822,1117,514,1430,-1026,-633,-281,111,157,-67
6689,9,0,2023-03-10T14:07:10.649987,6308827,1092,504,1406,-1027,-666,-217,111,157,-67
6690,10,0,2023-03-10T14:07:10.654788,6308831,1092,504,1406,-1027,-666,-217,111,157,-67
6691,11,0,2023-03-10T14:07:10.659123,6308836,1092,504,1406,-1027,-666,-217,111,157,-67
6692,12,0,2023-03-10T14:07:10.663759,6308840,1092,504,1406,-1027,-666,-217,111,157,-67
6693,13,0,2023-03-10T14:07:10.668374,6308844,1092,504,1406,-1027,-666,-217,111,157,-67
6694,14,0,2023-03-10T14:07:10.672957,6308849,1116,511,1433,-1010,-632,-265,111,157,-67
6695,15,0,2023-03-10T14:07:10.678593,6308854,1116,511,1433,-1010,-632,-265,111,157,-67
6696,16,0,2023-03-10T14:07:10.683474,6308859,1116,511,1433,-1010,-632,-265,111,157,-67
6697,17,0,2023-03-10T14:07:10.688732,6308865,1116,511,1433,-1010,-632,-265,111,157,-67
6698,18,0,2023-03-10T14:07:10.693449,6308870,1102,507,1405,-1057,-645,-276,111,157,-67
6699,19,0,2023-03-10T14:07:10.698484,6308875,1102,507,1405,-1057,-645,-276,111,157,-67
6700,20,0,2023-03-10T14:07:10.702873,6308879,1102,507,1405,-1057,-645,-276,111,157,-67
6701,21,0,2023-03-10T14:07:10.707339,6308884,1102,507,1405,-1057,-645,-276,111,157,-67
6702,22,0,2023-03-10T14:07:10.711662,6308888,1107,511,1416,-1020,-641,-220,111,157,-67
6703,23,0,2023-03-10T14:07:10.716662,6308892,1107,511,1416,-1020,-641,-220,111,157,-67
6704,24,0,2023-03-10T14:07:10.721275,6308897,1107,511,1416,-1020,-641,-220,111,157,-67
6705,25,0,2023-03-10T14:07:10.726201,6308902,1107,511,1416,-1020,-641,-220,111,157,-67
6706,26,0,2023-03-10T14:07:10.730768,6308907,1107,511,1416,-1020,-641,-220,111,157,-67
6707,27,0,2023-03-10T14:07:10.735533,6308912,1107,511,1416,-1020,-641,-220,111,157,-67
6708,28,0,2023-03-10T14:07:10.740040,6308916,1107,511,1416,-1020,-641,-220,111,157,-67
6709,29,0,2023-03-10T14:07:10.745143,6308921,1107,511,1416,-1020,-641,-220,111,157,-67
6710,30,0,2023-03-10T14:07:10.749612,6308926,1107,511,1416,-1020,-641,-220,111,157,-67
6711,31,0,2023-03-10T14:07:10.754119,6308930,1101,509,1409,-1025,-667,-276,111,157,-67
6712,32,0,2023-03-10T14:07:10.758962,6308935,1101,509,1409,-1025,-667,-276,111,157,-67
6713,33,0,2023-03-10T14:07:10.764003,6308940,1101,509,1409,-1025,-667,-276,111,157,-67
6714,34,0,2023-03-10T14:07:10.768436,6308944,1101,509,1409,-1025,-667,-276,111,157,-67
6715,35,0,2023-03-10T14:07:10.772944,6308950,1125,516,1426,-1026,-628,-282,120,166,-72
6716,36,0,2023-03-10T14:07:10.778280,6308955,1125,516,1426,-1026,-628,-282,120,166,-72
6717,37,0,2023-03-10T14:07:10.782669,6308959,1125,516,1426,-1026,-628,-282,120,166,-72
6718,38,0,2023-03-10T14:07:10.788069,6308964,1125,516,1426,-1026,-628,-282,120,166,-72
6719,39,0,2023-03-10T14:07:10.792607,6308969,1101,506,1423,-1027,-648,-259,120,166,-72
6720,40,0,2023-03-10T14:07:10.797623,6308974,1101,506,1423,-1027,-648,-259,120,166,-72
6721,41,0,2023-03-10T14:07:10.802243,6308978,1101,506,1423,-1027,-648,-259,120,166,-72
6722,42,0,2023-03-10T14:07:10.807091,6308983,1101,506,1423,-1027,-648,-259,120,166,-72
6723,43,0,2023-03-10T14:07:10.811568,6308987,1105,516,1411,-1033,-632,-269,120,166,-72
6724,44,0,2023-03-10T14:07:10.816540,6308993,1105,516,1411,-1033,-632,-269,120,166,-72
6725,45,0,2023-03-10T14:07:10.821156,6308998,1105,516,1411,-1033,-632,-269,120,166,-72
6726,46,0,2023-03-10T14:07:10.826063,6309003,1105,516,1411,-1033,-632,-269,120,166,-72
6727,47,0,2023-03-10T14:07:10.830818,6309007,1109,503,1432,-1025,-627,-256,120,166,-72
6728,48,0,2023-03-10T14:07:10.835717,6309012,1109,503,1432,-1025,-627,-256,120,166,-72
6729,49,0,2023-03-10T14:07:10.840340,6309016,1109,503,1432,-1025,-627,-256,120,166,-72
6730,50,0,2023-03-10T14:07:10.845261,6309021,1109,503,1432,-1025,-627,-256,120,166,-72
6731,51,0,2023-03-10T14:07:10.849650,6309026,1109,503,1432,-1025,-627,-256,120,166,-72
6732,52,0,2023-03-10T14:07:10.854092,6309030,1100,508,1411,-1031,-653,-252,120,166,-72
6733,53,0,2023-03-10T14:07:10.858607,6309035,1100,508,1411,-1031,-653,-252,120,166,-72
6734,54,0,2023-03-10T14:07:10.863239,6309040,1100,508,1411,-1031,-653,-252,120,166,-72
6735,55,0,2023-03-10T14:07:10.867673,6309044,1100,508,1411,-1031,-653,-252,120,166,-72
6736,56,0,2023-03-10T14:07:10.872266,6309049,1124,508,1425,-1033,-641,-254,120,166,-72
6737,57,0,2023-03-10T14:07:10.877911,6309054,1124,508,1425,-1033,-641,-254,120,166,-72
6738,58,0,2023-03-10T14:07:10.882514,6309059,1124,508,1425,-1033,-641,-254,120,166,-72
6739,59,0,2023-03-10T14:07:10.887334,6309063,1124,508,1425,-1033,-641,-254,120,166,-72
6740,60,0,2023-03-10T14:07:10.891548,6309068,1120,517,1410,-1015,-648,-265,122,168,-70
6741,61,0,2023-03-10T14:07:10.896401,6309072,1120,517,1410,-1015,-648,-265,122,168,-70
6742,62,0,2023-03-10T14:07:10.901370,6309078,1120,517,1410,-1015,-648,-265,122,168,-70
6743,63,0,2023-03-10T14:07:10.906590,6309083,1120,517,1410,-1015,-648,-265,122,168,-70
6744,64,0,2023-03-10T14:07:10.911032,6309088,1095,500,1415,-1023,-634,-212,122,168,-70
6745,65,0,2023-03-10T14:07:10.915754,6309092,1095,500,1415,-1023,-634,-212,122,168,-70
6746,66,0,2023-03-10T14:07:10.920524,6309097,1095,500,1415,-1023,-634,-212,122,168,-70
6747,67,0,2023-03-10T14:07:10.925533,6309102,1095,500,1415,-1023,-634,-212,122,168,-70
6748,68,0,2023-03-10T14:07:10.930035,6309106,1119,508,1435,-1009,-615,-278,122,168,-70
6749,69,0,2023-03-10T14:07:10.935150,6309111,1119,508,1435,-1009,-615,-278,122,168,-70
6750,70,0,2023-03-10T14:07:10.939813,6309116,1119,508,1435,-1009,-615,-278,122,168,-70
6751,71,0,2023-03-10T14:07:10.944487,6309121,1119,508,1435,-1009,-615,-278,122,168,-70
6752,72,0,2023-03-10T14:07:10.948908,6309125,1119,508,1435,-1009,-615,-278,122,168,-70
6753,73,0,2023-03-10T14:07:10.953493,6309130,1107,507,1401,-1048,-657,-281,122,168,-70
6754,74,0,2023-03-10T14:07:10.959349,6309135,1107,507,1401,-1048,-657,-281,122,168,-70
6755,75,0,2023-03-10T14:07:10.963747,6309140,1107,507,1401,-1048,-657,-281,122,168,-70
6756,76,0,2023-03-10T14:07:10.968331,6309145,1107,507,1401,-1048,-657,-281,122,168,-70
6757,77,0,2023-03-10T14:07:10.973013,6309149,1125,512,1428,-1013,-625,-259,122,168,-70
