,Unnamed: 0,imu,server_time,arduino_time,ax,ay,az,gx,gy,gz,mx,my,mz
21000,1894,0,2023-03-01T18:51:43.141018,1692663,1403,1822,-521,-1167,-770,-296,-60,164,-270
21001,1895,0,2023-03-01T18:51:43.147066,1692669,1403,1822,-521,-1167,-770,-296,-60,164,-270
21002,1896,0,2023-03-01T18:51:43.153222,1692675,1403,1822,-521,-1167,-770,-296,-60,164,-270
21003,1897,0,2023-03-01T18:51:43.158403,1692680,1402,1821,-528,-1163,-780,-297,-60,164,-270
21004,1898,0,2023-03-01T18:51:43.164108,1692686,1402,1821,-528,-1163,-780,-297,-60,164,-270
21005,1899,0,2023-03-01T18:51:43.169761,1692692,1402,1821,-528,-1163,-780,-297,-60,164,-270
21006,1900,0,2023-03-01T18:51:43.174585,1692697,1402,1821,-528,-1163,-780,-297,-60,164,-270
21007,1901,0,2023-03-01T18:51:43.179371,1692701,1402,1820,-524,-1168,-772,-305,-60,164,-270
21008,1902,0,2023-03-01T18:51:43.185614,1692707,1402,1820,-524,-1168,-772,-305,-60,164,-270
21009,1903,0,2023-03-01T18:51:43.194977,1692717,1402,1820,-524,-1168,-772,-305,-60,164,-270
21010,1904,0,2023-03-01T18:51:43.199597,1692722,1406,1823,-523,-1171,-775,-296,-60,164,-270
21011,1905,0,2023-03-01T18:51:43.205635,1692728,1406,1823,-523,-1171,-775,-296,-60,164,-270
21012,1906,0,2023-03-01T18:51:43.210641,1692733,1406,1823,-523,-1171,-775,-296,-60,164,-270
21013,1907,0,2023-03-01T18:51:43.215673,1692738,1406,1823,-523,-1171,-775,-296,-60,164,-270
21014,1908,0,2023-03-01T18:51:43.220730,1692743,1404,1825,-518,-1189,-766,-298,-60,164,-270
21015,1909,0,2023-03-01T18:51:43.226765,1692749,1404,1825,-518,-1189,-766,-298,-60,164,-270
21016,1910,0,2023-03-01T18:51:43.232091,1692754,1404,1825,-518,-1189,-766,-298,-60,164,-270
21017,1911,0,2023-03-01T18:51:43.237062,1692759,1398,1824,-514,-1191,-764,-301,-60,164,-270
21018,1912,0,2023-03-01T18:51:43.242959,1692765,1398,1824,-514,-1191,-764,-301,-60,164,-270
21019,1913,0,2023-03-01T18:51:43.248868,1692771,1398,1824,-514,-1191,-764,-301,-60,164,-270
21020,1914,0,2023-03-01T18:51:43.253893,1692776,1398,1824,-514,-1191,-764,-301,-60,164,-270
21021,1915,0,2023-03-01T18:51:43.258537,1692781,1403,1826,-520,-1177,-762,-302,-60,164,-270
21022,1916,0,2023-03-01T18:51:43.264373,1692786,1403,1826,-520,-1177,-762,-302,-60,164,-270
21023,1917,0,2023-03-01T18:51:43.270399,1692792,1403,1826,-520,-1177,-762,-302,-60,164,-270
21024,1918,0,2023-03-01T18:51:43.275260,1692797,1403,1826,-520,-1177,-762,-302,-60,164,-270
21025,1919,0,2023-03-01T18:51:43.279956,1692803,1403,1822,-524,-1165,-770,-298,-64,158,-264
21026,1920,0,2023-03-01T18:51:43.286218,1692808,1403,1822,-524,-1165,-770,-298,-64,158,-264
21027,1921,0,2023-03-01T18:51:43.291573,1692814,1403,1822,-524,-1165,-770,-298,-64,158,-264
21028,1922,0,2023-03-01T18:51:43.297451,1692820,1405,1823,-517,-1169,-772,-298,-64,158,-264
21029,1923,0,2023-03-01T18:51:43.303295,1692825,1405,1823,-517,-1169,-772,-298,-64,158,-264
21030,1924,0,2023-03-01T18:51:43.309447,1692831,1405,1823,-517,-1169,-772,-298,-64,158,-264
21031,1925,0,2023-03-01T18:51:43.314454,1692836,1405,1823,-517,-1169,-772,-298,-64,158,-264
21032,1926,0,2023-03-01T18:51:43.319370,1692841,1405,1824,-520,-1168,-764,-304,-64,158,-264
21033,1927,0,2023-03-01T18:51:43.324572,1692847,1405,1824,-520,-1168,-764,-304,-64,158,-264
21034,1928,0,2023-03-01T18:51:43.331845,1692853,1405,1824,-520,-1168,-764,-304,-64,158,-264
21035,1929,0,2023-03-01T18:51:43.336698,1692859,1403,1819,-520,-1160,-759,-304,-64,158,-264
21036,1930,0,2023-03-01T18:51:43.342296,1692864,1403,1819,-520,-1160,-759,-304,-64,158,-264
21037,1931,0,2023-03-01T18:51:43.347218,1692869,1403,1819,-520,-1160,-759,-304,-64,158,-264
21038,1932,0,2023-03-01T18:51:43.352243,1692874,1403,1819,-520,-1160,-759,-304,-64,158,-264
21039,1933,0,2023-03-01T18:51:43.357032,1692879,1404,1824,-523,-1171,-767,-298,-64,158,-264
21040,1934,0,2023-03-01T18:51:43.362458,1692884,1404,1824,-523,-1171,-767,-298,-64,158,-264
21041,1935,0,2023-03-01T18:51:43.367581,1692890,1404,1824,-523,-1171,-767,-298,-64,158,-264
21042,1936,0,2023-03-01T18:51:43.372455,1692895,1404,1824,-523,-1171,-767,-298,-64,158,-264
21043,1937,0,2023-03-01T18:51:43.377414,1692899,1404,1820,-522,-1176,-778,-307,-64,158,-264
21044,1938,0,2023-03-01T18:51:43.383121,1692905,1404,1820,-522,-1176,-778,-307,-64,158,-264
21045,1939,0,2023-03-01T18:51:43.388801,1692911,1404,1820,-522,-1176,-778,-307,-64,158,-264
21046,1940,0,2023-03-01T18:51:43.393656,1692916,1404,1820,-522,-1176,-778,-307,-64,158,-264
21047,1941,0,2023-03-01T18:51:43.398393,1692920,1404,1823,-519,-1169,-763,-306,-66,156,-266
21048,1942,0,2023-03-01T18:51:43.404020,1692925,1404,1823,-519,-1169,-763,-306,-66,156,-266
21049,1943,0,2023-03-01T18:51:43.409345,1692932,1404,1823,-519,-1169,-763,-306,-66,156,-266
21050,1944,0,2023-03-01T18:51:43.414082,1692937,1404,1823,-519,-1169,-763,-306,-66,156,-266
21051,1945,0,2023-03-01T18:51:43.419070,1692941,1407,1826,-525,-1163,-767,-298,-66,156,-266
21052,1946,0,2023-03-01T18:51:43.424531,1692947,1407,1826,-525,-1163,-767,-298,-66,156,-266
21053,1947,0,2023-03-01T18:51:43.429513,1692952,1407,1826,-525,-1163,-767,-298,-66,156,-266
21054,1948,0,2023-03-01T18:51:43.434721,1692956,1407,1826,-525,-1163,-767,-298,-66,156,-266
21055,1949,0,2023-03-01T18:51:43.439693,1692962,1403,1823,-521,-1172,-774,-299,-66,156,-266
21056,1950,0,2023-03-01T18:51:43.445784,1692967,1403,1823,-521,-1172,-774,-299,-66,156,-266
21057,1951,0,2023-03-01T18:51:43.451471,1692974,1403,1823,-521,-1172,-774,-299,-66,156,-266
21058,1952,0,2023-03-01T18:51:43.456295,1692979,1403,1823,-521,-1172,-774,-299,-66,156,-266
21059,1953,0,2023-03-01T18:51:43.461071,1692983,1402,1820,-523,-1171,-785,-298,-66,156,-266
21060,1954,0,2023-03-01T18:51:43.467263,1692989,1402,1820,-523,-1171,-785,-298,-66,156,-266
21061,1955,0,2023-03-01T18:51:43.473190,1692995,1402,1820,-523,-1171,-785,-298,-66,156,-266
21062,1956,0,2023-03-01T18:51:43.478106,1693000,1403,1827,-524,-1171,-780,-304,-66,156,-266
21063,1957,0,2023-03-01T18:51:43.484059,1693006,1403,1827,-524,-1171,-780,-304,-66,156,-266
21064,1958,0,2023-03-01T18:51:43.490479,1693012,1403,1827,-524,-1171,-780,-304,-66,156,-266
21065,1959,0,2023-03-01T18:51:43.495517,1693018,1403,1827,-524,-1171,-780,-304,-66,156,-266
21066,1960,0,2023-03-01T18:51:43.500536,1693023,1400,1818,-517,-1180,-782,-302,-66,156,-266
21067,1961,0,2023-03-01T18:51:43.507008,1693029,1400,1818,-517,-1180,-782,-302,-66,156,-266
21068,1962,0,2023-03-01T18:51:43.512395,1693035,1400,1818,-517,-1180,-782,-302,-66,156,-266
21069,1963,0,2023-03-01T18:51:43.517433,1693039,1404,1825,-527,-1194,-789,-303,-66,156,-266
21070,1964,0,2023-03-01T18:51:43.522361,1693044,1404,1825,-527,-1194,-789,-303,-66,156,-266
21071,1965,0,2023-03-01T18:51:43.528321,1693050,1404,1825,-527,-1194,-789,-303,-66,156,-266
21072,1966,0,2023-03-01T18:51:43.533311,1693056,1404,1825,-527,-1194,-789,-303,-66,156,-266
21073,1967,0,2023-03-01T18:51:43.538340,1693061,1405,1821,-523,-1185,-792,-303,-57,167,-259
21074,1968,0,2023-03-01T18:51:43.543992,1693066,1405,1821,-523,-1185,-792,-303,-57,167,-259
21075,1969,0,2023-03-01T18:51:43.549812,1693072,1405,1821,-523,-1185,-792,-303,-57,167,-259
21076,1970,0,2023-03-01T18:51:43.554660,1693077,1405,1821,-523,-1185,-792,-303,-57,167,-259
21077,1971,0,2023-03-01T18:51:43.559528,1693081,1402,1822,-523,-1185,-789,-296,-57,167,-259
21078,1972,0,2023-03-01T18:51:43.565736,1693087,1402,1822,-523,-1185,-789,-296,-57,167,-259
21079,1973,0,2023-03-01T18:51:43.571276,1693093,1402,1822,-523,-1185,-789,-296,-57,167,-259
21080,1974,0,2023-03-01T18:51:43.576187,1693099,1402,1822,-523,-1185,-789,-296,-57,167,-259
21081,1975,0,2023-03-01T18:51:43.581287,1693104,1404,1822,-520,-1193,-793,-298,-57,167,-259
21082,1976,0,2023-03-01T18:51:43.587548,1693110,1404,1822,-520,-1193,-793,-298,-57,167,-259
21083,1977,0,2023-03-01T18:51:43.593286,1693115,1404,1822,-520,-1193,-793,-298,-57,167,-259
21084,1978,0,2023-03-01T18:51:43.598477,1693121,1401,1822,-522,-1184,-791,-303,-57,167,-259
21085,1979,0,2023-03-01T18:51:43.604312,1693126,1401,1822,-522,-1184,-791,-303,-57,167,-259
21086,1980,0,2023-03-01T18:51:43.610306,1693132,1401,1822,-522,-1184,-791,-303,-57,167,-259
21087,1981,0,2023-03-01T18:51:43.614997,1693137,1401,1822,-522,-1184,-791,-303,-57,167,-259
21088,1982,0,2023-03-01T18:51:43.619837,1693143,1405,1822,-523,-1178,-786,-303,-57,167,-259
21089,1983,0,2023-03-01T18:51:43.625270,1693148,1405,1822,-523,-1178,-786,-303,-57,167,-259
21090,1984,0,2023-03-01T18:51:43.629997,1693152,1405,1822,-523,-1178,-786,-303,-57,167,-259
21091,1985,0,2023-03-01T18:51:43.634791,1693157,1405,1822,-523,-1178,-786,-303,-57,167,-259
21092,1986,0,2023-03-01T18:51:43.639328,1693162,1405,1823,-524,-1180,-783,-298,-57,167,-259
21093,1987,0,2023-03-01T18:51:43.645113,1693167,1405,1823,-524,-1180,-783,-298,-57,167,-259
21094,1988,0,2023-03-01T18:51:43.650964,1693173,1405,1823,-524,-1180,-783,-298,-57,167,-259
21095,1989,0,2023-03-01T18:51:43.655841,1693178,1405,1823,-524,-1180,-783,-298,-57,167,-259
21096,1990,0,2023-03-01T18:51:43.660914,1693182,1400,1823,-516,-1188,-789,-296,-60,162,-268
21097,1991,0,2023-03-01T18:51:43.667329,1693190,1400,1823,-516,-1188,-789,-296,-60,162,-268
21098,1992,0,2023-03-01T18:51:43.673165,1693195,1400,1823,-516,-1188,-789,-296,-60,162,-268
21099,1993,0,2023-03-01T18:51:43.677873,1693200,1401,1826,-520,-1184,-791,-300,-60,162,-268
21100,1994,0,2023-03-01T18:51:43.682948,1693205,1401,1826,-520,-1184,-791,-300,-60,162,-268
21101,1995,0,2023-03-01T18:51:43.688607,1693211,1401,1826,-520,-1184,-791,-300,-60,162,-268
21102,1996,0,2023-03-01T18:51:43.693693,1693215,1401,1826,-520,-1184,-791,-300,-60,162,-268
21103,1997,0,2023-03-01T18:51:43.698998,1693220,1405,1824,-519,-1183,-785,-302,-60,162,-268
21104,1998,0,2023-03-01T18:51:43.704081,1693227,1405,1824,-519,-1183,-785,-302,-60,162,-268
21105,1999,0,2023-03-01T18:51:43.710053,1693233,1405,1824,-519,-1183,-785,-302,-60,162,-268
21106,2000,0,2023-03-01T18:51:43.714694,1693237,1405,1824,-519,-1183,-785,-302,-60,162,-268
21107,2001,0,2023-03-01T18:51:43.719417,1693242,1403,1822,-515,-1189,-786,-302,-60,162,-268
21108,2002,0,2023-03-01T18:51:43.724945,1693247,1403,1822,-515,-1189,-786,-302,-60,162,-268
21109,2003,0,2023-03-01T18:51:43.731014,1693253,1403,1822,-515,-1189,-786,-302,-60,162,-268
21110,2004,0,2023-03-01T18:51:43.736022,1693258,1403,1822,-515,-1189,-786,-302,-60,162,-268
21111,2005,0,2023-03-01T18:51:43.741029,1693263,1404,1826,-517,-1182,-790,-301,-60,162,-268
21112,2006,0,2023-03-01T18:51:43.746908,1693270,1404,1826,-517,-1182,-790,-301,-60,162,-268
21113,2007,0,2023-03-01T18:51:43.752506,1693275,1404,1826,-517,-1182,-790,-301,-60,162,-268
21114,2008,0,2023-03-01T18:51:43.757272,1693280,1400,1822,-527,-1188,-787,-299,-60,162,-268
21115,2009,0,2023-03-01T18:51:43.763000,1693285,1400,1822,-527,-1188,-787,-299,-60,162,-268
21116,2010,0,2023-03-01T18:51:43.768875,1693291,1400,1822,-527,-1188,-787,-299,-60,162,-268
21117,2011,0,2023-03-01T18:51:43.773499,1693296,1400,1822,-527,-1188,-787,-299,-60,162,-268
21118,2012,0,2023-03-01T18:51:43.778286,1693300,1407,1823,-519,-1188,-787,-291,-60,162,-268
21119,2013,0,2023-03-01T18:51:43.783867,1693305,1407,1823,-519,-1188,-787,-291,-60,162,-268
21120,2014,0,2023-03-01T18:51:43.789647,1693312,1407,1823,-519,-1188,-787,-291,-60,162,-268
21121,2015,0,2023-03-01T18:51:43.794614,1693317,1407,1823,-519,-1188,-787,-291,-60,162,-268
21122,2016,0,2023-03-01T18:51:43.799579,1693322,1405,1825,-521,-1193,-795,-295,-67,155,-257
21123,2017,0,2023-03-01T18:51:43.805039,1693327,1405,1825,-521,-1193,-795,-295,-67,155,-257
21124,2018,0,2023-03-01T18:51:43.811431,1693333,1405,1825,-521,-1193,-795,-295,-67,155,-257
21125,2019,0,2023-03-01T18:51:43.816776,1693339,1405,1825,-521,-1193,-795,-295,-67,155,-257
21126,2020,0,2023-03-01T18:51:43.822075,1693344,1401,1819,-521,-1192,-795,-294,-67,155,-257
21127,2021,0,2023-03-01T18:51:43.828070,1693350,1401,1819,-521,-1192,-795,-294,-67,155,-257
21128,2022,0,2023-03-01T18:51:43.833486,1693356,1401,1819,-521,-1192,-795,-294,-67,155,-257
21129,2023,0,2023-03-01T18:51:43.838472,1693361,1407,1820,-526,-1190,-801,-301,-67,155,-257
21130,2024,0,2023-03-01T18:51:43.844375,1693367,1407,1820,-526,-1190,-801,-301,-67,155,-257
21131,2025,0,2023-03-01T18:51:43.851020,1693373,1407,1820,-526,-1190,-801,-301,-67,155,-257
21132,2026,0,2023-03-01T18:51:43.855964,1693378,1407,1820,-526,-1190,-801,-301,-67,155,-257
21133,2027,0,2023-03-01T18:51:43.860822,1693383,1404,1819,-525,-1191,-799,-307,-67,155,-257
21134,2028,0,2023-03-01T18:51:43.867127,1693389,1404,1819,-525,-1191,-799,-307,-67,155,-257
21135,2029,0,2023-03-01T18:51:43.873012,1693395,1404,1819,-525,-1191,-799,-307,-67,155,-257
21136,2030,0,2023-03-01T18:51:43.878433,1693401,1402,1820,-520,-1190,-796,-303,-67,155,-257
21137,2031,0,2023-03-01T18:51:43.884675,1693407,1402,1820,-520,-1190,-796,-303,-67,155,-257
21138,2032,0,2023-03-01T18:51:43.890762,1693413,1402,1820,-520,-1190,-796,-303,-67,155,-257
21139,2033,0,2023-03-01T18:51:43.895766,1693418,1402,1820,-520,-1190,-796,-303,-67,155,-257
21140,2034,0,2023-03-01T18:51:43.900368,1693423,1407,1824,-522,-1192,-800,-295,-67,155,-257
21141,2035,0,2023-03-01T18:51:43.906135,1693428,1407,1824,-522,-1192,-800,-295,-67,155,-257
21142,2036,0,2023-03-01T18:51:43.911534,1693433,1407,1824,-522,-1192,-800,-295,-67,155,-257
21143,2037,0,2023-03-01T18:51:43.917448,1693440,1402,1822,-521,-1190,-799,-296,-67,155,-257
21144,2038,0,2023-03-01T18:51:43.922924,1693446,1402,1822,-521,-1190,-799,-296,-63,167,-269
21145,2039,0,2023-03-01T18:51:43.929121,1693452,1402,1822,-521,-1190,-799,-296,-63,167,-269
21146,2040,0,2023-03-01T18:51:43.934094,1693456,1402,1822,-521,-1190,-799,-296,-63,167,-269
21147,2041,0,2023-03-01T18:51:43.939256,1693461,1405,1822,-517,-1187,-793,-306,-63,167,-269
21148,2042,0,2023-03-01T18:51:43.944562,1693467,1405,1822,-517,-1187,-793,-306,-63,167,-269
21149,2043,0,2023-03-01T18:51:43.950520,1693472,1405,1822,-517,-1187,-793,-306,-63,167,-269
21150,2044,0,2023-03-01T18:51:43.955401,1693477,1405,1822,-517,-1187,-793,-306,-63,167,-269
21151,2045,0,2023-03-01T18:51:43.960275,1693483,1407,1825,-523,-1195,-799,-300,-63,167,-269
21152,2046,0,2023-03-01T18:51:43.966079,1693489,1407,1825,-523,-1195,-799,-300,-63,167,-269
21153,2047,0,2023-03-01T18:51:43.971544,1693494,1407,1825,-523,-1195,-799,-300,-63,167,-269
21154,2048,0,2023-03-01T18:51:43.976512,1693499,1407,1825,-523,-1195,-799,-300,-63,167,-269
21155,2049,0,2023-03-01T18:51:43.981094,1693503,1406,1820,-520,-1188,-806,-296,-63,167,-269
21156,2050,0,2023-03-01T18:51:43.987221,1693509,1406,1820,-520,-1188,-806,-296,-63,167,-269
21157,2051,0,2023-03-01T18:51:43.993571,1693515,1406,1820,-520,-1188,-806,-296,-63,167,-269
21158,2052,0,2023-03-01T18:51:43.998662,1693520,1409,1823,-521,-1197,-805,-295,-63,167,-269
21159,2053,0,2023-03-01T18:51:44.004987,1693527,1409,1823,-521,-1197,-805,-295,-63,167,-269
21160,2054,0,2023-03-01T18:51:44.011276,1693534,1409,1823,-521,-1197,-805,-295,-63,167,-269
21161,2055,0,2023-03-01T18:51:44.016587,1693539,1409,1823,-521,-1197,-805,-295,-63,167,-269
21162,2056,0,2023-03-01T18:51:44.021857,1693544,1404,1822,-525,-1194,-802,-302,-63,167,-269
21163,2057,0,2023-03-01T18:51:44.027896,1693550,1404,1822,-525,-1194,-802,-302,-63,167,-269
21164,2058,0,2023-03-01T18:51:44.034581,1693555,1404,1822,-525,-1194,-802,-302,-63,167,-269
21165,2059,0,2023-03-01T18:51:44.040452,1693562,1404,1819,-520,-1184,-784,-298,-56,158,-262
21166,2060,0,2023-03-01T18:51:44.047048,1693569,1404,1819,-520,-1184,-784,-298,-56,158,-262
21167,2061,0,2023-03-01T18:51:44.053410,1693575,1404,1819,-520,-1184,-784,-298,-56,158,-262
21168,2062,0,2023-03-01T18:51:44.058758,1693581,1406,1823,-517,-1185,-783,-301,-56,158,-262
21169,2063,0,2023-03-01T18:51:44.064620,1693587,1406,1823,-517,-1185,-783,-301,-56,158,-262
21170,2064,0,2023-03-01T18:51:44.070384,1693592,1406,1823,-517,-1185,-783,-301,-56,158,-262
21171,2065,0,2023-03-01T18:51:44.075877,1693597,1406,1823,-517,-1185,-783,-301,-56,158,-262
21172,2066,0,2023-03-01T18:51:44.081485,1693603,1400,1820,-523,-1180,-784,-303,-56,158,-262
21173,2067,0,2023-03-01T18:51:44.088710,1693611,1400,1820,-523,-1180,-784,-303,-56,158,-262
21174,2068,0,2023-03-01T18:51:44.094604,1693617,1400,1820,-523,-1180,-784,-303,-56,158,-262
21175,2069,0,2023-03-01T18:51:44.099402,1693622,1406,1820,-522,-1180,-788,-299,-56,158,-262
21176,2070,0,2023-03-01T18:51:44.104649,1693627,1406,1820,-522,-1180,-788,-299,-56,158,-262
21177,2071,0,2023-03-01T18:51:44.111413,1693633,1406,1820,-522,-1180,-788,-299,-56,158,-262
21178,2072,0,2023-03-01T18:51:44.116806,1693639,1406,1820,-522,-1180,-788,-299,-56,158,-262
21179,2073,0,2023-03-01T18:51:44.122440,1693644,1405,1824,-526,-1178,-782,-306,-56,158,-262
21180,2074,0,2023-03-01T18:51:44.128969,1693650,1405,1824,-526,-1178,-782,-306,-56,158,-262
21181,2075,0,2023-03-01T18:51:44.135327,1693657,1405,1824,-526,-1178,-782,-306,-56,158,-262
21182,2076,0,2023-03-01T18:51:44.140387,1693663,1403,1819,-522,-1174,-778,-302,-56,158,-262
21183,2077,0,2023-03-01T18:51:44.146877,1693669,1403,1819,-522,-1174,-778,-302,-56,158,-262
21184,2078,0,2023-03-01T18:51:44.153034,1693675,1403,1819,-522,-1174,-778,-302,-56,158,-262
21185,2079,0,2023-03-01T18:51:44.158097,1693680,1405,1824,-524,-1182,-781,-303,-56,158,-262
21186,2080,0,2023-03-01T18:51:44.163899,1693685,1405,1824,-524,-1182,-781,-303,-56,158,-262
21187,2081,0,2023-03-01T18:51:44.168325,1693690,1405,1824,-524,-1182,-781,-303,-56,158,-262
21188,2082,0,2023-03-01T18:51:44.172833,1693696,1405,1824,-524,-1182,-781,-303,-56,158,-262
21189,2083,0,2023-03-01T18:51:44.178200,1693701,1406,1825,-521,-1186,-770,-293,-62,158,-262
21190,2084,0,2023-03-01T18:51:44.183850,1693706,1406,1825,-521,-1186,-770,-293,-62,156,-262
21191,2085,0,2023-03-01T18:51:44.189803,1693712,1406,1825,-521,-1186,-770,-293,-62,156,-262
21192,2086,0,2023-03-01T18:51:44.194974,1693717,1406,1825,-521,-1186,-770,-293,-62,156,-262
21193,2087,0,2023-03-01T18:51:44.199959,1693722,1402,1824,-519,-1175,-769,-291,-62,156,-262
21194,2088,0,2023-03-01T18:51:44.205790,1693728,1402,1824,-519,-1175,-769,-291,-62,156,-262
21195,2089,0,2023-03-01T18:51:44.211124,1693733,1402,1824,-519,-1175,-769,-291,-62,156,-262
21196,2090,0,2023-03-01T18:51:44.216168,1693739,1402,1824,-519,-1175,-769,-291,-62,156,-262
21197,2091,0,2023-03-01T18:51:44.221113,1693744,1405,1827,-523,-1174,-765,-299,-62,156,-262
21198,2092,0,2023-03-01T18:51:44.227561,1693750,1405,1827,-523,-1174,-765,-299,-62,156,-262
21199,2093,0,2023-03-01T18:51:44.233517,1693756,1405,1827,-523,-1174,-765,-299,-62,156,-262
21200,2094,0,2023-03-01T18:51:44.238048,1693760,1401,1819,-529,-1167,-764,-303,-62,156,-262
21201,2095,0,2023-03-01T18:51:44.243565,1693766,1401,1819,-529,-1167,-764,-303,-62,156,-262
21202,2096,0,2023-03-01T18:51:44.249790,1693771,1401,1819,-529,-1167,-764,-303,-62,156,-262
21203,2097,0,2023-03-01T18:51:44.254433,1693776,1401,1819,-529,-1167,-764,-303,-62,156,-262
21204,2098,0,2023-03-01T18:51:44.260569,1693783,1406,1821,-529,-1166,-765,-309,-62,156,-262
21205,2099,0,2023-03-01T18:51:44.266590,1693789,1406,1821,-529,-1166,-765,-309,-62,156,-262
21206,2100,0,2023-03-01T18:51:44.271908,1693794,1406,1821,-529,-1166,-765,-309,-62,156,-262
21207,2101,0,2023-03-01T18:51:44.277118,1693799,1406,1821,-529,-1166,-765,-309,-62,156,-262
21208,2102,0,2023-03-01T18:51:44.282100,1693804,1408,1823,-535,-1167,-765,-307,-62,156,-262
21209,2103,0,2023-03-01T18:51:44.288706,1693810,1408,1823,-535,-1167,-765,-307,-62,156,-262
21210,2104,0,2023-03-01T18:51:44.294110,1693816,1408,1823,-535,-1167,-765,-307,-62,156,-262
21211,2105,0,2023-03-01T18:51:44.298922,1693821,1405,1819,-519,-1169,-762,-302,-67,161,-261
21212,2106,0,2023-03-01T18:51:44.304572,1693827,1405,1819,-519,-1169,-762,-302,-67,161,-261
21213,2107,0,2023-03-01T18:51:44.311078,1693833,1405,1819,-519,-1169,-762,-302,-67,161,-261
21214,2108,0,2023-03-01T18:51:44.315901,1693838,1405,1819,-519,-1169,-762,-302,-67,161,-261
21215,2109,0,2023-03-01T18:51:44.320695,1693843,1405,1825,-525,-1172,-775,-310,-67,161,-261
21216,2110,0,2023-03-01T18:51:44.326885,1693849,1405,1825,-525,-1172,-775,-310,-67,161,-261
21217,2111,0,2023-03-01T18:51:44.333093,1693855,1405,1825,-525,-1172,-775,-310,-67,161,-261
21218,2112,0,2023-03-01T18:51:44.337664,1693860,1405,1825,-525,-1172,-775,-310,-67,161,-261
21219,2113,0,2023-03-01T18:51:44.342446,1693864,1403,1820,-526,-1182,-784,-300,-67,161,-261
21220,2114,0,2023-03-01T18:51:44.349018,1693872,1403,1820,-526,-1182,-784,-300,-67,161,-261
21221,2115,0,2023-03-01T18:51:44.353983,1693876,1403,1820,-526,-1182,-784,-300,-67,161,-261
21222,2116,0,2023-03-01T18:51:44.359102,1693881,1405,1819,-523,-1182,-798,-294,-67,161,-261
21223,2117,0,2023-03-01T18:51:44.364817,1693887,1405,1819,-523,-1182,-798,-294,-67,161,-261
21224,2118,0,2023-03-01T18:51:44.371218,1693893,1405,1819,-523,-1182,-798,-294,-67,161,-261
21225,2119,0,2023-03-01T18:51:44.376147,1693898,1405,1819,-523,-1182,-798,-294,-67,161,-261
21226,2120,0,2023-03-01T18:51:44.380883,1693903,1404,1823,-525,-1175,-792,-301,-67,161,-261
21227,2121,0,2023-03-01T18:51:44.386745,1693908,1404,1823,-525,-1175,-792,-301,-67,161,-261
21228,2122,0,2023-03-01T18:51:44.392319,1693915,1404,1823,-525,-1175,-792,-301,-67,161,-261
21229,2123,0,2023-03-01T18:51:44.397086,1693920,1404,1823,-525,-1175,-792,-301,-67,161,-261
21230,2124,0,2023-03-01T18:51:44.402094,1693924,1403,1820,-525,-1184,-791,-291,-67,161,-261
21231,2125,0,2023-03-01T18:51:44.407279,1693930,1403,1820,-525,-1184,-791,-291,-67,161,-261
21232,2126,0,2023-03-01T18:51:44.412296,1693935,1403,1820,-525,-1184,-791,-291,-67,161,-261
21233,2127,0,2023-03-01T18:51:44.417087,1693939,1403,1820,-525,-1184,-791,-291,-67,161,-261
21234,2128,0,2023-03-01T18:51:44.422246,1693944,1404,1821,-521,-1192,-799,-299,-67,161,-261
21235,2129,0,2023-03-01T18:51:44.428073,1693950,1404,1821,-521,-1192,-799,-299,-67,161,-261
21236,2130,0,2023-03-01T18:51:44.433438,1693956,1404,1821,-521,-1192,-799,-299,-67,161,-261
21237,2131,0,2023-03-01T18:51:44.437859,1693961,1404,1820,-522,-1198,-795,-300,-67,161,-261
21238,2132,0,2023-03-01T18:51:44.442853,1693965,1404,1820,-522,-1198,-795,-300,-64,156,-256
21239,2133,0,2023-03-01T18:51:44.448391,1693971,1404,1820,-522,-1198,-795,-300,-64,156,-256
21240,2134,0,2023-03-01T18:51:44.453161,1693975,1404,1820,-522,-1198,-795,-300,-64,156,-256
21241,2135,0,2023-03-01T18:51:44.457913,1693980,1404,1820,-522,-1198,-795,-300,-64,156,-256
21242,2136,0,2023-03-01T18:51:44.462446,1693985,1402,1817,-518,-1185,-790,-296,-64,156,-256
21243,2137,0,2023-03-01T18:51:44.468716,1693991,1402,1817,-518,-1185,-790,-296,-64,156,-256
21244,2138,0,2023-03-01T18:51:44.473670,1693996,1402,1817,-518,-1185,-790,-296,-64,156,-256
21245,2139,0,2023-03-01T18:51:44.478812,1694001,1406,1823,-528,-1187,-792,-294,-64,156,-256
21246,2140,0,2023-03-01T18:51:44.485028,1694007,1406,1823,-528,-1187,-792,-294,-64,156,-256
21247,2141,0,2023-03-01T18:51:44.491368,1694014,1406,1823,-528,-1187,-792,-294,-64,156,-256
21248,2142,0,2023-03-01T18:51:44.496181,1694018,1406,1823,-528,-1187,-792,-294,-64,156,-256
21249,2143,0,2023-03-01T18:51:44.501078,1694023,1403,1819,-530,-1183,-790,-305,-64,156,-256
21250,2144,0,2023-03-01T18:51:44.507040,1694029,1403,1819,-530,-1183,-790,-305,-64,156,-256
21251,2145,0,2023-03-01T18:51:44.512989,1694035,1403,1819,-530,-1183,-790,-305,-64,156,-256
21252,2146,0,2023-03-01T18:51:44.517964,1694041,1403,1819,-530,-1183,-790,-305,-64,156,-256
21253,2147,0,2023-03-01T18:51:44.523018,1694045,1404,1820,-521,-1188,-791,-301,-64,156,-256
21254,2148,0,2023-03-01T18:51:44.530424,1694053,1404,1820,-521,-1188,-791,-301,-64,156,-256
21255,2149,0,2023-03-01T18:51:44.535324,1694058,1404,1820,-521,-1188,-791,-301,-64,156,-256
21256,2150,0,2023-03-01T18:51:44.540158,1694062,1408,1822,-525,-1190,-799,-296,-64,156,-256
21257,2151,0,2023-03-01T18:51:44.545732,1694068,1408,1822,-525,-1190,-799,-296,-64,156,-256
21258,2152,0,2023-03-01T18:51:44.551908,1694073,1408,1822,-525,-1190,-799,-296,-64,156,-256
21259,2153,0,2023-03-01T18:51:44.556729,1694078,1408,1822,-525,-1190,-799,-296,-64,156,-256
21260,2154,0,2023-03-01T18:51:44.561716,1694084,1405,1817,-520,-1185,-796,-296,-65,163,-265
21261,2155,0,2023-03-01T18:51:44.568406,1694091,1405,1817,-520,-1185,-796,-296,-65,163,-265
21262,2156,0,2023-03-01T18:51:44.574278,1694097,1405,1817,-520,-1185,-796,-296,-65,163,-265
21263,2157,0,2023-03-01T18:51:44.579057,1694101,1404,1821,-520,-1183,-793,-301,-65,163,-265
21264,2158,0,2023-03-01T18:51:44.584357,1694106,1404,1821,-520,-1183,-793,-301,-65,163,-265
21265,2159,0,2023-03-01T18:51:44.591429,1694113,1404,1821,-520,-1183,-793,-301,-65,163,-265
21266,2160,0,2023-03-01T18:51:44.596418,1694118,1404,1821,-520,-1183,-793,-301,-65,163,-265
21267,2161,0,2023-03-01T18:51:44.601234,1694124,1400,1823,-530,-1189,-797,-302,-65,163,-265
21268,2162,0,2023-03-01T18:51:44.607522,1694130,1400,1823,-530,-1189,-797,-302,-65,163,-265
21269,2163,0,2023-03-01T18:51:44.613389,1694136,1400,1823,-530,-1189,-797,-302,-65,163,-265
21270,2164,0,2023-03-01T18:51:44.619009,1694141,1403,1819,-525,-1194,-801,-299,-65,163,-265
21271,2165,0,2023-03-01T18:51:44.624653,1694147,1403,1819,-525,-1194,-801,-299,-65,163,-265
21272,2166,0,2023-03-01T18:51:44.630666,1694153,1403,1819,-525,-1194,-801,-299,-65,163,-265
21273,2167,0,2023-03-01T18:51:44.635587,1694157,1403,1819,-525,-1194,-801,-299,-65,163,-265
21274,2168,0,2023-03-01T18:51:44.640498,1694162,1405,1825,-529,-1193,-802,-302,-65,163,-265
21275,2169,0,2023-03-01T18:51:44.646061,1694169,1405,1825,-529,-1193,-802,-302,-65,163,-265
21276,2170,0,2023-03-01T18:51:44.652542,1694175,1405,1825,-529,-1193,-802,-302,-65,163,-265
21277,2171,0,2023-03-01T18:51:44.657452,1694180,1405,1825,-529,-1193,-802,-302,-65,163,-265
21278,2172,0,2023-03-01T18:51:44.662357,1694185,1404,1825,-527,-1192,-789,-298,-65,163,-265
21279,2173,0,2023-03-01T18:51:44.667713,1694190,1404,1825,-527,-1192,-789,-298,-65,163,-265
21280,2174,0,2023-03-01T18:51:44.673288,1694195,1404,1825,-527,-1192,-789,-298,-65,163,-265
21281,2175,0,2023-03-01T18:51:44.678002,1694200,1404,1825,-527,-1192,-789,-298,-65,163,-265
21282,2176,0,2023-03-01T18:51:44.682668,1694204,1403,1818,-526,-1189,-793,-295,-65,163,-265
21283,2177,0,2023-03-01T18:51:44.689086,1694212,1403,1818,-526,-1189,-793,-295,-65,163,-265
21284,2178,0,2023-03-01T18:51:44.694214,1694216,1403,1818,-526,-1189,-793,-295,-65,163,-265
21285,2179,0,2023-03-01T18:51:44.699832,1694222,1407,1822,-526,-1186,-794,-300,-60,164,-268
21286,2180,0,2023-03-01T18:51:44.706154,1694228,1407,1822,-526,-1186,-794,-300,-60,164,-268
21287,2181,0,2023-03-01T18:51:44.712077,1694234,1407,1822,-526,-1186,-794,-300,-60,164,-268
21288,2182,0,2023-03-01T18:51:44.716736,1694239,1407,1822,-526,-1186,-794,-300,-60,164,-268
21289,2183,0,2023-03-01T18:51:44.721863,1694244,1403,1819,-524,-1193,-799,-296,-60,164,-268
21290,2184,0,2023-03-01T18:51:44.728269,1694251,1403,1819,-524,-1193,-799,-296,-60,164,-268
21291,2185,0,2023-03-01T18:51:44.733813,1694256,1403,1819,-524,-1193,-799,-296,-60,164,-268
21292,2186,0,2023-03-01T18:51:44.738544,1694261,1409,1819,-526,-1188,-798,-303,-60,164,-268
21293,2187,0,2023-03-01T18:51:44.744023,1694266,1409,1819,-526,-1188,-798,-303,-60,164,-268
21294,2188,0,2023-03-01T18:51:44.750096,1694272,1409,1819,-526,-1188,-798,-303,-60,164,-268
21295,2189,0,2023-03-01T18:51:44.755377,1694277,1409,1819,-526,-1188,-798,-303,-60,164,-268
21296,2190,0,2023-03-01T18:51:44.760110,1694282,1406,1820,-528,-1199,-804,-299,-60,164,-268
21297,2191,0,2023-03-01T18:51:44.765320,1694287,1406,1820,-528,-1199,-804,-299,-60,164,-268
21298,2192,0,2023-03-01T18:51:44.771281,1694294,1406,1820,-528,-1199,-804,-299,-60,164,-268
21299,2193,0,2023-03-01T18:51:44.776299,1694299,1406,1820,-528,-1199,-804,-299,-60,164,-268
21300,2194,0,2023-03-01T18:51:44.780968,1694304,1403,1818,-528,-1187,-799,-298,-60,164,-268
21301,2195,0,2023-03-01T18:51:44.787150,1694309,1403,1818,-528,-1187,-799,-298,-60,164,-268
21302,2196,0,2023-03-01T18:51:44.792339,1694315,1403,1818,-528,-1187,-799,-298,-60,164,-268
21303,2197,0,2023-03-01T18:51:44.797080,1694319,1403,1818,-528,-1187,-799,-298,-60,164,-268
21304,2198,0,2023-03-01T18:51:44.801851,1694324,1404,1824,-530,-1197,-800,-306,-60,164,-268
21305,2199,0,2023-03-01T18:51:44.808291,1694330,1404,1824,-530,-1197,-800,-306,-60,164,-268
21306,2200,0,2023-03-01T18:51:44.813883,1694337,1404,1824,-530,-1197,-800,-306,-60,164,-268
21307,2201,0,2023-03-01T18:51:44.818401,1694341,1403,1821,-517,-1200,-793,-300,-60,164,-268
21308,2202,0,2023-03-01T18:51:44.823941,1694346,1403,1821,-517,-1200,-793,-300,-65,163,-261
21309,2203,0,2023-03-01T18:51:44.829668,1694352,1403,1821,-517,-1200,-793,-300,-65,163,-261
21310,2204,0,2023-03-01T18:51:44.834463,1694357,1403,1821,-517,-1200,-793,-300,-65,163,-261
21311,2205,0,2023-03-01T18:51:44.840156,1694362,1405,1821,-524,-1189,-785,-292,-65,163,-261
21312,2206,0,2023-03-01T18:51:44.845624,1694368,1405,1821,-524,-1189,-785,-292,-65,163,-261
21313,2207,0,2023-03-01T18:51:44.851028,1694373,1405,1821,-524,-1189,-785,-292,-65,163,-261
21314,2208,0,2023-03-01T18:51:44.856232,1694379,1405,1821,-524,-1189,-785,-292,-65,163,-261
21315,2209,0,2023-03-01T18:51:44.861172,1694384,1406,1825,-530,-1201,-799,-297,-65,163,-261
21316,2210,0,2023-03-01T18:51:44.867169,1694390,1406,1825,-530,-1201,-799,-297,-65,163,-261
21317,2211,0,2023-03-01T18:51:44.872644,1694395,1406,1825,-530,-1201,-799,-297,-65,163,-261
21318,2212,0,2023-03-01T18:51:44.877307,1694400,1406,1825,-530,-1201,-799,-297,-65,163,-261
21319,2213,0,2023-03-01T18:51:44.882114,1694404,1409,1818,-525,-1210,-800,-295,-65,163,-261
21320,2214,0,2023-03-01T18:51:44.888434,1694410,1409,1818,-525,-1210,-800,-295,-65,163,-261
21321,2215,0,2023-03-01T18:51:44.894225,1694416,1409,1818,-525,-1210,-800,-295,-65,163,-261
21322,2216,0,2023-03-01T18:51:44.899025,1694422,1408,1823,-526,-1189,-798,-287,-65,163,-261
21323,2217,0,2023-03-01T18:51:44.904771,1694427,1408,1823,-526,-1189,-798,-287,-65,163,-261
21324,2218,0,2023-03-01T18:51:44.910459,1694433,1408,1823,-526,-1189,-798,-287,-65,163,-261
21325,2219,0,2023-03-01T18:51:44.917214,1694438,1408,1823,-526,-1189,-798,-287,-65,163,-261
21326,2220,0,2023-03-01T18:51:44.923395,1694445,1405,1821,-528,-1193,-794,-297,-65,163,-261
21327,2221,0,2023-03-01T18:51:44.929383,1694451,1405,1821,-528,-1193,-794,-297,-65,163,-261
21328,2222,0,2023-03-01T18:51:44.934497,1694456,1405,1821,-528,-1193,-794,-297,-65,163,-261
21329,2223,0,2023-03-01T18:51:44.940300,1694462,1402,1818,-528,-1197,-801,-297,-63,167,-259
21330,2224,0,2023-03-01T18:51:44.946046,1694469,1402,1818,-528,-1197,-801,-297,-63,167,-259
21331,2225,0,2023-03-01T18:51:44.951998,1694475,1402,1818,-528,-1197,-801,-297,-63,167,-259
21332,2226,0,2023-03-01T18:51:44.956834,1694479,1402,1818,-528,-1197,-801,-297,-63,167,-259
21333,2227,0,2023-03-01T18:51:44.961524,1694484,1407,1822,-523,-1195,-800,-299,-63,167,-259
21334,2228,0,2023-03-01T18:51:44.967394,1694490,1407,1822,-523,-1195,-800,-299,-63,167,-259
21335,2229,0,2023-03-01T18:51:44.973108,1694495,1407,1822,-523,-1195,-800,-299,-63,167,-259
21336,2230,0,2023-03-01T18:51:44.977948,1694500,1407,1822,-523,-1195,-800,-299,-63,167,-259
21337,2231,0,2023-03-01T18:51:44.983672,1694505,1405,1818,-520,-1192,-794,-300,-63,167,-259
21338,2232,0,2023-03-01T18:51:44.990743,1694513,1405,1818,-520,-1192,-794,-300,-63,167,-259
21339,2233,0,2023-03-01T18:51:44.995742,1694518,1405,1818,-520,-1192,-794,-300,-63,167,-259
21340,2234,0,2023-03-01T18:51:45.000614,1694523,1404,1819,-525,-1181,-786,-301,-63,167,-259
21341,2235,0,2023-03-01T18:51:45.006797,1694528,1404,1819,-525,-1181,-786,-301,-63,167,-259
21342,2236,0,2023-03-01T18:51:45.013180,1694535,1404,1819,-525,-1181,-786,-301,-63,167,-259
21343,2237,0,2023-03-01T18:51:45.018164,1694540,1404,1819,-525,-1181,-786,-301,-63,167,-259
21344,2238,0,2023-03-01T18:51:45.024180,1694545,1405,1823,-528,-1193,-790,-297,-63,167,-259
21345,2239,0,2023-03-01T18:51:45.030766,1694553,1405,1823,-528,-1193,-790,-297,-63,167,-259
21346,2240,0,2023-03-01T18:51:45.035891,1694558,1405,1823,-528,-1193,-790,-297,-63,167,-259
21347,2241,0,2023-03-01T18:51:45.041014,1694563,1403,1819,-526,-1186,-787,-297,-63,167,-259
21348,2242,0,2023-03-01T18:51:45.046508,1694569,1403,1819,-526,-1186,-787,-297,-63,167,-259
21349,2243,0,2023-03-01T18:51:45.053286,1694575,1403,1819,-526,-1186,-787,-297,-63,167,-259
21350,2244,0,2023-03-01T18:51:45.058564,1694580,1403,1819,-526,-1186,-787,-297,-63,167,-259
21351,2245,0,2023-03-01T18:51:45.063428,1694585,1405,1820,-527,-1185,-799,-298,-63,167,-259
21352,2246,0,2023-03-01T18:51:45.069330,1694592,1405,1820,-527,-1185,-799,-298,-63,167,-259
21353,2247,0,2023-03-01T18:51:45.074477,1694597,1405,1820,-527,-1185,-799,-298,-63,167,-259
21354,2248,0,2023-03-01T18:51:45.079500,1694602,1405,1824,-521,-1192,-792,-295,-66,158,-260
21355,2249,0,2023-03-01T18:51:45.085161,1694607,1405,1824,-521,-1192,-792,-295,-66,158,-260
21356,2250,0,2023-03-01T18:51:45.090742,1694613,1405,1824,-521,-1192,-792,-295,-66,158,-260
21357,2251,0,2023-03-01T18:51:45.096259,1694618,1405,1824,-521,-1192,-792,-295,-66,158,-260
21358,2252,0,2023-03-01T18:51:45.101291,1694623,1403,1820,-522,-1187,-798,-295,-66,158,-260
21359,2253,0,2023-03-01T18:51:45.107471,1694629,1403,1820,-522,-1187,-798,-295,-66,158,-260
21360,2254,0,2023-03-01T18:51:45.113235,1694636,1403,1820,-522,-1187,-798,-295,-66,158,-260
21361,2255,0,2023-03-01T18:51:45.118205,1694641,1403,1820,-522,-1187,-798,-295,-66,158,-260
21362,2256,0,2023-03-01T18:51:45.123992,1694646,1404,1826,-528,-1188,-792,-296,-66,158,-260
21363,2257,0,2023-03-01T18:51:45.131126,1694653,1404,1826,-528,-1188,-792,-296,-66,158,-260
21364,2258,0,2023-03-01T18:51:45.136324,1694658,1404,1826,-528,-1188,-792,-296,-66,158,-260
21365,2259,0,2023-03-01T18:51:45.141485,1694663,1406,1820,-522,-1180,-785,-294,-66,158,-260
21366,2260,0,2023-03-01T18:51:45.147564,1694669,1406,1820,-522,-1180,-785,-294,-66,158,-260
21367,2261,0,2023-03-01T18:51:45.153387,1694675,1406,1820,-522,-1180,-785,-294,-66,158,-260
21368,2262,0,2023-03-01T18:51:45.158468,1694681,1406,1820,-522,-1180,-785,-294,-66,158,-260
21369,2263,0,2023-03-01T18:51:45.163851,1694686,1406,1820,-530,-1191,-792,-296,-66,158,-260
21370,2264,0,2023-03-01T18:51:45.170642,1694693,1406,1820,-530,-1191,-792,-296,-66,158,-260
21371,2265,0,2023-03-01T18:51:45.175995,1694698,1406,1820,-530,-1191,-792,-296,-66,158,-260
21372,2266,0,2023-03-01T18:51:45.181234,1694703,1407,1820,-530,-1186,-796,-302,-66,158,-260
21373,2267,0,2023-03-01T18:51:45.187271,1694709,1407,1820,-530,-1186,-796,-302,-66,158,-260
21374,2268,0,2023-03-01T18:51:45.192530,1694714,1407,1820,-530,-1186,-796,-302,-66,158,-260
21375,2269,0,2023-03-01T18:51:45.197382,1694720,1407,1820,-530,-1186,-796,-302,-66,158,-260
21376,2270,0,2023-03-01T18:51:45.202820,1694725,1403,1816,-521,-1187,-791,-297,-65,155,-257
21377,2271,0,2023-03-01T18:51:45.208977,1694732,1403,1816,-521,-1187,-791,-297,-65,155,-257
21378,2272,0,2023-03-01T18:51:45.214385,1694737,1403,1816,-521,-1187,-791,-297,-65,155,-257
21379,2273,0,2023-03-01T18:51:45.219483,1694742,1409,1824,-523,-1200,-798,-299,-65,155,-257
21380,2274,0,2023-03-01T18:51:45.225075,1694747,1409,1824,-523,-1200,-798,-299,-65,155,-257
21381,2275,0,2023-03-01T18:51:45.231391,1694753,1409,1824,-523,-1200,-798,-299,-65,155,-257
21382,2276,0,2023-03-01T18:51:45.236334,1694758,1409,1824,-523,-1200,-798,-299,-65,155,-257
21383,2277,0,2023-03-01T18:51:45.241419,1694764,1406,1821,-522,-1192,-792,-299,-65,155,-257
21384,2278,0,2023-03-01T18:51:45.247620,1694770,1406,1821,-522,-1192,-792,-299,-65,155,-257
21385,2279,0,2023-03-01T18:51:45.253668,1694776,1406,1821,-522,-1192,-792,-299,-65,155,-257
21386,2280,0,2023-03-01T18:51:45.258797,1694781,1406,1821,-522,-1192,-792,-299,-65,155,-257
21387,2281,0,2023-03-01T18:51:45.263849,1694786,1403,1820,-526,-1191,-793,-292,-65,155,-257
21388,2282,0,2023-03-01T18:51:45.270151,1694792,1403,1820,-526,-1191,-793,-292,-65,155,-257
21389,2283,0,2023-03-01T18:51:45.275365,1694797,1403,1820,-526,-1191,-793,-292,-65,155,-257
21390,2284,0,2023-03-01T18:51:45.280129,1694802,1403,1821,-530,-1191,-792,-299,-65,155,-257
21391,2285,0,2023-03-01T18:51:45.285815,1694809,1403,1821,-530,-1191,-792,-299,-65,155,-257
21392,2286,0,2023-03-01T18:51:45.291683,1694814,1403,1821,-530,-1191,-792,-299,-65,155,-257
21393,2287,0,2023-03-01T18:51:45.296469,1694819,1403,1821,-530,-1191,-792,-299,-65,155,-257
21394,2288,0,2023-03-01T18:51:45.301087,1694824,1408,1816,-520,-1185,-788,-291,-65,155,-257
21395,2289,0,2023-03-01T18:51:45.306795,1694829,1408,1816,-520,-1185,-788,-291,-65,155,-257
21396,2290,0,2023-03-01T18:51:45.312088,1694834,1408,1816,-520,-1185,-788,-291,-65,155,-257
21397,2291,0,2023-03-01T18:51:45.317166,1694839,1408,1816,-520,-1185,-788,-291,-65,155,-257
21398,2292,0,2023-03-01T18:51:45.322418,1694844,1407,1820,-525,-1190,-797,-289,-65,155,-257
21399,2293,0,2023-03-01T18:51:45.328307,1694851,1407,1820,-525,-1190,-797,-289,-65,155,-257
21400,2294,0,2023-03-01T18:51:45.333681,1694856,1407,1820,-525,-1190,-797,-289,-65,155,-257
21401,2295,0,2023-03-01T18:51:45.338672,1694861,1407,1820,-525,-1190,-797,-289,-65,155,-257
21402,2296,0,2023-03-01T18:51:45.343571,1694866,1410,1823,-524,-1193,-796,-297,-58,158,-260
21403,2297,0,2023-03-01T18:51:45.350465,1694873,1410,1823,-524,-1193,-796,-297,-58,158,-260
21404,2298,0,2023-03-01T18:51:45.355751,1694877,1410,1823,-524,-1193,-796,-297,-58,158,-260
21405,2299,0,2023-03-01T18:51:45.361126,1694883,1405,1817,-520,-1183,-794,-303,-58,158,-260
21406,2300,0,2023-03-01T18:51:45.367366,1694889,1405,1817,-520,-1183,-794,-303,-58,158,-260
21407,2301,0,2023-03-01T18:51:45.373366,1694896,1405,1817,-520,-1183,-794,-303,-58,158,-260
21408,2302,0,2023-03-01T18:51:45.378934,1694901,1405,1817,-520,-1183,-794,-303,-58,158,-260
21409,2303,0,2023-03-01T18:51:45.384902,1694907,1406,1825,-528,-1197,-798,-305,-58,158,-260
21410,2304,0,2023-03-01T18:51:45.391327,1694913,1406,1825,-528,-1197,-798,-305,-58,158,-260
21411,2305,0,2023-03-01T18:51:45.396103,1694918,1406,1825,-528,-1197,-798,-305,-58,158,-260
21412,2306,0,2023-03-01T18:51:45.401242,1694923,1409,1819,-527,-1197,-793,-299,-58,158,-260
21413,2307,0,2023-03-01T18:51:45.407423,1694929,1409,1819,-527,-1197,-793,-299,-58,158,-260
21414,2308,0,2023-03-01T18:51:45.413300,1694936,1409,1819,-527,-1197,-793,-299,-58,158,-260
21415,2309,0,2023-03-01T18:51:45.417978,1694941,1409,1819,-527,-1197,-793,-299,-58,158,-260
21416,2310,0,2023-03-01T18:51:45.422996,1694945,1405,1822,-526,-1186,-792,-302,-58,158,-260
21417,2311,0,2023-03-01T18:51:45.429475,1694952,1405,1822,-526,-1186,-792,-302,-58,158,-260
21418,2312,0,2023-03-01T18:51:45.434306,1694957,1405,1822,-526,-1186,-792,-302,-58,158,-260
21419,2313,0,2023-03-01T18:51:45.439341,1694961,1405,1822,-529,-1187,-793,-300,-58,158,-260
21420,2314,0,2023-03-01T18:51:45.444662,1694967,1405,1822,-529,-1187,-793,-300,-58,158,-260
21421,2315,0,2023-03-01T18:51:45.450674,1694972,1405,1822,-529,-1187,-793,-300,-58,158,-260
21422,2316,0,2023-03-01T18:51:45.456051,1694978,1405,1822,-529,-1187,-793,-300,-58,158,-260
21423,2317,0,2023-03-01T18:51:45.461239,1694984,1403,1816,-522,-1183,-791,-296,-76,166,-260
21424,2318,0,2023-03-01T18:51:45.467073,1694989,1403,1816,-522,-1183,-791,-296,-76,166,-260
21425,2319,0,2023-03-01T18:51:45.472469,1694995,1403,1816,-522,-1183,-791,-296,-76,166,-260
21426,2320,0,2023-03-01T18:51:45.477571,1695000,1403,1816,-522,-1183,-791,-296,-76,166,-260
21427,2321,0,2023-03-01T18:51:45.482133,1695004,1406,1823,-522,-1193,-797,-305,-76,166,-260
21428,2322,0,2023-03-01T18:51:45.488050,1695010,1406,1823,-522,-1193,-797,-305,-76,166,-260
21429,2323,0,2023-03-01T18:51:45.493607,1695015,1406,1823,-522,-1193,-797,-305,-76,166,-260
21430,2324,0,2023-03-01T18:51:45.498462,1695021,1406,1823,-522,-1193,-797,-305,-76,166,-260
21431,2325,0,2023-03-01T18:51:45.503612,1695026,1409,1822,-527,-1183,-785,-301,-76,166,-260
21432,2326,0,2023-03-01T18:51:45.510314,1695033,1409,1822,-527,-1183,-785,-301,-76,166,-260
21433,2327,0,2023-03-01T18:51:45.515519,1695038,1409,1822,-527,-1183,-785,-301,-76,166,-260
21434,2328,0,2023-03-01T18:51:45.520530,1695043,1405,1819,-525,-1186,-785,-294,-76,166,-260
21435,2329,0,2023-03-01T18:51:45.526135,1695048,1405,1819,-525,-1186,-785,-294,-76,166,-260
21436,2330,0,2023-03-01T18:51:45.532016,1695054,1405,1819,-525,-1186,-785,-294,-76,166,-260
21437,2331,0,2023-03-01T18:51:45.537055,1695059,1405,1819,-525,-1186,-785,-294,-76,166,-260
21438,2332,0,2023-03-01T18:51:45.541473,1695064,1408,1822,-534,-1187,-798,-308,-76,166,-260
21439,2333,0,2023-03-01T18:51:45.547808,1695070,1408,1822,-534,-1187,-798,-308,-76,166,-260
21440,2334,0,2023-03-01T18:51:45.553927,1695076,1408,1822,-534,-1187,-798,-308,-76,166,-260
21441,2335,0,2023-03-01T18:51:45.558553,1695081,1408,1822,-534,-1187,-798,-308,-76,166,-260
21442,2336,0,2023-03-01T18:51:45.563509,1695086,1405,1819,-527,-1193,-801,-305,-76,166,-260
21443,2337,0,2023-03-01T18:51:45.570162,1695092,1405,1819,-527,-1193,-801,-305,-76,166,-260
21444,2338,0,2023-03-01T18:51:45.575510,1695097,1405,1819,-527,-1193,-801,-305,-76,166,-260
21445,2339,0,2023-03-01T18:51:45.581073,1695104,1407,1819,-530,-1195,-794,-301,-60,152,-256
21446,2340,0,2023-03-01T18:51:45.586734,1695109,1407,1819,-530,-1195,-794,-301,-60,152,-256
21447,2341,0,2023-03-01T18:51:45.593175,1695116,1407,1819,-530,-1195,-794,-301,-60,152,-256
21448,2342,0,2023-03-01T18:51:45.598261,1695120,1407,1819,-530,-1195,-794,-301,-60,152,-256
21449,2343,0,2023-03-01T18:51:45.602891,1695125,1406,1825,-526,-1194,-787,-298,-60,152,-256
21450,2344,0,2023-03-01T18:51:45.609443,1695132,1406,1825,-526,-1194,-787,-298,-60,152,-256
21451,2345,0,2023-03-01T18:51:45.614538,1695137,1406,1825,-526,-1194,-787,-298,-60,152,-256
21452,2346,0,2023-03-01T18:51:45.619611,1695141,1406,1825,-526,-1194,-787,-298,-60,152,-256
21453,2347,0,2023-03-01T18:51:45.624712,1695147,1403,1819,-524,-1192,-791,-295,-60,152,-256
21454,2348,0,2023-03-01T18:51:45.631389,1695154,1403,1819,-524,-1192,-791,-295,-60,152,-256
21455,2349,0,2023-03-01T18:51:45.636360,1695159,1403,1819,-524,-1192,-791,-295,-60,152,-256
21456,2350,0,2023-03-01T18:51:45.641508,1695164,1405,1819,-525,-1184,-788,-300,-60,152,-256
21457,2351,0,2023-03-01T18:51:45.647864,1695170,1405,1819,-525,-1184,-788,-300,-60,152,-256
21458,2352,0,2023-03-01T18:51:45.653381,1695175,1405,1819,-525,-1184,-788,-300,-60,152,-256
21459,2353,0,2023-03-01T18:51:45.658633,1695181,1405,1819,-525,-1184,-788,-300,-60,152,-256
21460,2354,0,2023-03-01T18:51:45.663645,1695185,1408,1818,-526,-1185,-790,-302,-60,152,-256
21461,2355,0,2023-03-01T18:51:45.669763,1695193,1408,1818,-526,-1185,-790,-302,-60,152,-256
21462,2356,0,2023-03-01T18:51:45.674528,1695197,1408,1818,-526,-1185,-790,-302,-60,152,-256
21463,2357,0,2023-03-01T18:51:45.679160,1695202,1408,1818,-526,-1185,-790,-302,-60,152,-256
21464,2358,0,2023-03-01T18:51:45.684582,1695206,1404,1822,-526,-1178,-795,-296,-60,152,-256
21465,2359,0,2023-03-01T18:51:45.690963,1695213,1404,1822,-526,-1178,-795,-296,-60,152,-256
21466,2360,0,2023-03-01T18:51:45.695791,1695218,1404,1822,-526,-1178,-795,-296,-60,152,-256
21467,2361,0,2023-03-01T18:51:45.700491,1695222,1407,1819,-529,-1187,-805,-297,-60,152,-256
21468,2362,0,2023-03-01T18:51:45.706557,1695228,1407,1819,-529,-1187,-805,-297,-60,152,-256
21469,2363,0,2023-03-01T18:51:45.712449,1695235,1407,1819,-529,-1187,-805,-297,-60,152,-256
21470,2364,0,2023-03-01T18:51:45.717046,1695240,1407,1819,-529,-1187,-805,-297,-60,152,-256
21471,2365,0,2023-03-01T18:51:45.721988,1695245,1406,1819,-524,-1186,-803,-300,-57,161,-263
21472,2366,0,2023-03-01T18:51:45.727746,1695250,1406,1819,-524,-1186,-803,-300,-57,161,-263
21473,2367,0,2023-03-01T18:51:45.733389,1695256,1406,1819,-524,-1186,-803,-300,-57,161,-263
21474,2368,0,2023-03-01T18:51:45.738336,1695260,1406,1819,-524,-1186,-803,-300,-57,161,-263
21475,2369,0,2023-03-01T18:51:45.743134,1695265,1406,1818,-536,-1195,-796,-301,-57,161,-263
21476,2370,0,2023-03-01T18:51:45.750325,1695272,1406,1818,-536,-1195,-796,-301,-57,161,-263
21477,2371,0,2023-03-01T18:51:45.755312,1695278,1406,1818,-536,-1195,-796,-301,-57,161,-263
21478,2372,0,2023-03-01T18:51:45.760390,1695283,1409,1821,-528,-1190,-789,-303,-57,161,-263
21479,2373,0,2023-03-01T18:51:45.765968,1695289,1409,1821,-528,-1190,-789,-303,-57,161,-263
21480,2374,0,2023-03-01T18:51:45.771143,1695293,1409,1821,-528,-1190,-789,-303,-57,161,-263
21481,2375,0,2023-03-01T18:51:45.776012,1695298,1409,1821,-528,-1190,-789,-303,-57,161,-263
21482,2376,0,2023-03-01T18:51:45.780535,1695303,1405,1818,-529,-1179,-788,-299,-57,161,-263
21483,2377,0,2023-03-01T18:51:45.785957,1695308,1405,1818,-529,-1179,-788,-299,-57,161,-263
21484,2378,0,2023-03-01T18:51:45.791285,1695313,1405,1818,-529,-1179,-788,-299,-57,161,-263
21485,2379,0,2023-03-01T18:51:45.796885,1695320,1405,1818,-529,-1179,-788,-299,-57,161,-263
21486,2380,0,2023-03-01T18:51:45.801419,1695324,1406,1820,-529,-1176,-783,-299,-57,161,-263
21487,2381,0,2023-03-01T18:51:45.807599,1695330,1406,1820,-529,-1176,-783,-299,-57,161,-263
21488,2382,0,2023-03-01T18:51:45.812150,1695335,1406,1820,-529,-1176,-783,-299,-57,161,-263
21489,2383,0,2023-03-01T18:51:45.817128,1695339,1406,1820,-529,-1176,-783,-299,-57,161,-263
21490,2384,0,2023-03-01T18:51:45.821937,1695344,1407,1819,-529,-1178,-793,-298,-57,161,-263
21491,2385,0,2023-03-01T18:51:45.828282,1695350,1407,1819,-529,-1178,-793,-298,-57,161,-263
21492,2386,0,2023-03-01T18:51:45.833908,1695356,1407,1819,-529,-1178,-793,-298,-57,161,-263
21493,2387,0,2023-03-01T18:51:45.839216,1695362,1407,1819,-529,-1178,-793,-298,-57,161,-263
21494,2388,0,2023-03-01T18:51:45.844031,1695366,1407,1817,-529,-1186,-787,-299,-66,164,-258
21495,2389,0,2023-03-01T18:51:45.850409,1695373,1407,1817,-529,-1186,-787,-299,-66,164,-258
21496,2390,0,2023-03-01T18:51:45.855135,1695378,1407,1817,-529,-1186,-787,-299,-66,164,-258
21497,2391,0,2023-03-01T18:51:45.860040,1695382,1406,1819,-530,-1184,-776,-304,-66,164,-258
21498,2392,0,2023-03-01T18:51:45.865862,1695388,1406,1819,-530,-1184,-776,-304,-66,164,-258
21499,2393,0,2023-03-01T18:51:45.871606,1695394,1406,1819,-530,-1184,-776,-304,-66,164,-258
21500,2394,0,2023-03-01T18:51:45.876176,1695398,1406,1819,-530,-1184,-776,-304,-66,164,-258
21501,2395,0,2023-03-01T18:51:45.881171,1695404,1403,1816,-524,-1182,-783,-300,-66,164,-258
21502,2396,0,2023-03-01T18:51:45.886848,1695409,1403,1816,-524,-1182,-783,-300,-66,164,-258
21503,2397,0,2023-03-01T18:51:45.893171,1695415,1403,1816,-524,-1182,-783,-300,-66,164,-258
21504,2398,0,2023-03-01T18:51:45.898161,1695421,1403,1816,-524,-1182,-783,-300,-66,164,-258
21505,2399,0,2023-03-01T18:51:45.903464,1695425,1407,1821,-530,-1180,-782,-300,-66,164,-258
21506,2400,0,2023-03-01T18:51:45.908547,1695431,1407,1821,-530,-1180,-782,-300,-66,164,-258
21507,2401,0,2023-03-01T18:51:45.913133,1695435,1407,1821,-530,-1180,-782,-300,-66,164,-258
21508,2402,0,2023-03-01T18:51:45.918040,1695440,1407,1821,-530,-1180,-782,-300,-66,164,-258
21509,2403,0,2023-03-01T18:51:45.922751,1695444,1408,1818,-529,-1185,-776,-297,-66,164,-258
21510,2404,0,2023-03-01T18:51:45.928668,1695451,1408,1818,-529,-1185,-776,-297,-66,164,-258
21511,2405,0,2023-03-01T18:51:45.933943,1695457,1408,1818,-529,-1185,-776,-297,-66,164,-258
21512,2406,0,2023-03-01T18:51:45.939012,1695461,1408,1818,-529,-1185,-776,-297,-66,164,-258
21513,2407,0,2023-03-01T18:51:45.943766,1695466,1407,1818,-528,-1183,-778,-296,-66,164,-258
21514,2408,0,2023-03-01T18:51:45.950360,1695473,1407,1818,-528,-1183,-778,-296,-66,164,-258
21515,2409,0,2023-03-01T18:51:45.956345,1695478,1407,1818,-528,-1183,-778,-296,-66,164,-258
21516,2410,0,2023-03-01T18:51:45.961197,1695483,1407,1820,-524,-1181,-778,-292,-66,164,-258
21517,2411,0,2023-03-01T18:51:45.966485,1695489,1407,1820,-524,-1181,-778,-292,-66,164,-258
21518,2412,0,2023-03-01T18:51:45.972240,1695495,1407,1820,-524,-1181,-778,-292,-66,164,-258
21519,2413,0,2023-03-01T18:51:45.977004,1695500,1407,1820,-524,-1181,-778,-292,-66,164,-258
21520,2414,0,2023-03-01T18:51:45.981821,1695504,1404,1817,-523,-1170,-770,-300,-63,149,-265
21521,2415,0,2023-03-01T18:51:45.987041,1695509,1404,1817,-523,-1170,-770,-300,-63,149,-265
21522,2416,0,2023-03-01T18:51:45.992441,1695515,1404,1817,-523,-1170,-770,-300,-63,149,-265
21523,2417,0,2023-03-01T18:51:45.996971,1695519,1404,1817,-523,-1170,-770,-300,-63,149,-265
21524,2418,0,2023-03-01T18:51:46.002082,1695524,1408,1820,-525,-1168,-756,-306,-63,149,-265
21525,2419,0,2023-03-01T18:51:46.008064,1695531,1408,1820,-525,-1168,-756,-306,-63,149,-265
21526,2420,0,2023-03-01T18:51:46.013559,1695536,1408,1820,-525,-1168,-756,-306,-63,149,-265
21527,2421,0,2023-03-01T18:51:46.020180,1695543,1406,1820,-523,-1173,-753,-297,-63,149,-265
21528,2422,0,2023-03-01T18:51:46.025917,1695548,1406,1820,-523,-1173,-753,-297,-63,149,-265
21529,2423,0,2023-03-01T18:51:46.031993,1695554,1406,1820,-523,-1173,-753,-297,-63,149,-265
21530,2424,0,2023-03-01T18:51:46.036807,1695559,1406,1820,-523,-1173,-753,-297,-63,149,-265
21531,2425,0,2023-03-01T18:51:46.041271,1695563,1406,1822,-527,-1170,-772,-298,-63,149,-265
21532,2426,0,2023-03-01T18:51:46.046372,1695568,1406,1822,-527,-1170,-772,-298,-63,149,-265
21533,2427,0,2023-03-01T18:51:46.052308,1695575,1406,1822,-527,-1170,-772,-298,-63,149,-265
21534,2428,0,2023-03-01T18:51:46.057111,1695580,1406,1822,-527,-1170,-772,-298,-63,149,-265
21535,2429,0,2023-03-01T18:51:46.062543,1695585,1408,1820,-534,-1176,-775,-298,-63,149,-265
21536,2430,0,2023-03-01T18:51:46.068969,1695591,1408,1820,-534,-1176,-775,-298,-63,149,-265
21537,2431,0,2023-03-01T18:51:46.074413,1695597,1408,1820,-534,-1176,-775,-298,-63,149,-265
21538,2432,0,2023-03-01T18:51:46.079711,1695602,1408,1820,-534,-1176,-775,-298,-63,149,-265
21539,2433,0,2023-03-01T18:51:46.084618,1695607,1405,1820,-530,-1177,-761,-298,-63,149,-265
21540,2434,0,2023-03-01T18:51:46.091370,1695613,1405,1820,-530,-1177,-761,-298,-63,149,-265
21541,2435,0,2023-03-01T18:51:46.096798,1695619,1405,1820,-530,-1177,-761,-298,-63,149,-265
21542,2436,0,2023-03-01T18:51:46.101847,1695624,1406,1821,-527,-1173,-758,-301,-62,162,-262
21543,2437,0,2023-03-01T18:51:46.108168,1695631,1406,1821,-527,-1173,-758,-301,-62,162,-262
21544,2438,0,2023-03-01T18:51:46.114124,1695636,1406,1821,-527,-1173,-758,-301,-62,162,-262
21545,2439,0,2023-03-01T18:51:46.119310,1695641,1406,1821,-527,-1173,-758,-301,-62,162,-262
21546,2440,0,2023-03-01T18:51:46.124092,1695646,1408,1822,-529,-1165,-756,-299,-62,162,-262
21547,2441,0,2023-03-01T18:51:46.131204,1695653,1408,1822,-529,-1165,-756,-299,-62,162,-262
21548,2442,0,2023-03-01T18:51:46.136066,1695659,1408,1822,-529,-1165,-756,-299,-62,162,-262
21549,2443,0,2023-03-01T18:51:46.140879,1695664,1409,1817,-531,-1166,-759,-300,-62,162,-262
21550,2444,0,2023-03-01T18:51:46.146684,1695669,1409,1817,-531,-1166,-759,-300,-62,162,-262
21551,2445,0,2023-03-01T18:51:46.152821,1695675,1409,1817,-531,-1166,-759,-300,-62,162,-262
21552,2446,0,2023-03-01T18:51:46.158152,1695680,1409,1817,-531,-1166,-759,-300,-62,162,-262
21553,2447,0,2023-03-01T18:51:46.163225,1695685,1409,1817,-531,-1166,-759,-300,-62,162,-262
21554,2448,0,2023-03-01T18:51:46.169486,1695691,1409,1817,-531,-1166,-759,-300,-62,162,-262
21555,2449,0,2023-03-01T18:51:46.174250,1695696,1409,1817,-531,-1166,-759,-300,-62,162,-262
21556,2450,0,2023-03-01T18:51:46.179096,1695702,1409,1817,-531,-1166,-759,-300,-62,162,-262
21557,2451,0,2023-03-01T18:51:46.183922,1695706,1406,1820,-531,-1173,-777,-290,-62,162,-262
21558,2452,0,2023-03-01T18:51:46.190322,1695713,1406,1820,-531,-1173,-777,-290,-62,162,-262
21559,2453,0,2023-03-01T18:51:46.195397,1695717,1406,1820,-531,-1173,-777,-290,-62,162,-262
21560,2454,0,2023-03-01T18:51:46.200397,1695723,1405,1817,-530,-1182,-781,-294,-62,162,-262
21561,2455,0,2023-03-01T18:51:46.206023,1695728,1405,1817,-530,-1182,-781,-294,-62,162,-262
21562,2456,0,2023-03-01T18:51:46.212049,1695734,1405,1817,-530,-1182,-781,-294,-62,162,-262
21563,2457,0,2023-03-01T18:51:46.217068,1695739,1405,1817,-530,-1182,-781,-294,-62,162,-262
21564,2458,0,2023-03-01T18:51:46.221939,1695745,1409,1822,-538,-1191,-795,-300,-62,162,-262
21565,2459,0,2023-03-01T18:51:46.227854,1695750,1409,1822,-538,-1191,-795,-300,-62,162,-262
21566,2460,0,2023-03-01T18:51:46.232940,1695755,1409,1822,-538,-1191,-795,-300,-62,162,-262
21567,2461,0,2023-03-01T18:51:46.237895,1695761,1409,1822,-538,-1191,-795,-300,-62,162,-262
21568,2462,0,2023-03-01T18:51:46.242313,1695765,1406,1817,-529,-1192,-785,-300,-53,155,-255
21569,2463,0,2023-03-01T18:51:46.248503,1695771,1406,1817,-529,-1192,-785,-300,-53,155,-255
21570,2464,0,2023-03-01T18:51:46.254254,1695776,1406,1817,-529,-1192,-785,-300,-53,155,-255
21571,2465,0,2023-03-01T18:51:46.258913,1695781,1406,1817,-529,-1192,-785,-300,-53,155,-255
21572,2466,0,2023-03-01T18:51:46.263504,1695785,1406,1820,-533,-1188,-785,-306,-53,155,-255
21573,2467,0,2023-03-01T18:51:46.269620,1695792,1406,1820,-533,-1188,-785,-306,-53,155,-255
21574,2468,0,2023-03-01T18:51:46.274376,1695797,1406,1820,-533,-1188,-785,-306,-53,155,-255
21575,2469,0,2023-03-01T18:51:46.279597,1695802,1406,1820,-533,-1188,-785,-306,-53,155,-255
21576,2470,0,2023-03-01T18:51:46.284239,1695807,1408,1819,-529,-1193,-787,-294,-53,155,-255
21577,2471,0,2023-03-01T18:51:46.290874,1695813,1408,1819,-529,-1193,-787,-294,-53,155,-255
21578,2472,0,2023-03-01T18:51:46.296023,1695818,1408,1819,-529,-1193,-787,-294,-53,155,-255
21579,2473,0,2023-03-01T18:51:46.301009,1695823,1405,1815,-529,-1178,-784,-289,-53,155,-255
21580,2474,0,2023-03-01T18:51:46.306661,1695828,1405,1815,-529,-1178,-784,-289,-53,155,-255
21581,2475,0,2023-03-01T18:51:46.312591,1695835,1405,1815,-529,-1178,-784,-289,-53,155,-255
21582,2476,0,2023-03-01T18:51:46.317848,1695840,1405,1815,-529,-1178,-784,-289,-53,155,-255
21583,2477,0,2023-03-01T18:51:46.322433,1695845,1407,1818,-536,-1174,-781,-296,-53,155,-255
21584,2478,0,2023-03-01T18:51:46.327703,1695850,1407,1818,-536,-1174,-781,-296,-53,155,-255
21585,2479,0,2023-03-01T18:51:46.333035,1695855,1407,1818,-536,-1174,-781,-296,-53,155,-255
21586,2480,0,2023-03-01T18:51:46.338174,1695860,1407,1818,-536,-1174,-781,-296,-53,155,-255
21587,2481,0,2023-03-01T18:51:46.343127,1695865,1405,1818,-532,-1171,-770,-301,-53,155,-255
21588,2482,0,2023-03-01T18:51:46.349310,1695872,1405,1818,-532,-1171,-770,-301,-53,155,-255
21589,2483,0,2023-03-01T18:51:46.354364,1695877,1405,1818,-532,-1171,-770,-301,-53,155,-255
21590,2484,0,2023-03-01T18:51:46.359351,1695882,1405,1818,-532,-1171,-770,-301,-53,155,-255
21591,2485,0,2023-03-01T18:51:46.364155,1695887,1409,1817,-524,-1173,-771,-301,-61,161,-253
21592,2486,0,2023-03-01T18:51:46.371378,1695894,1409,1817,-524,-1173,-771,-301,-61,161,-253
21593,2487,0,2023-03-01T18:51:46.376291,1695899,1409,1817,-524,-1173,-771,-301,-61,161,-253
21594,2488,0,2023-03-01T18:51:46.381070,1695903,1407,1821,-529,-1173,-772,-302,-61,161,-253
21595,2489,0,2023-03-01T18:51:46.385630,1695907,1407,1821,-529,-1173,-772,-302,-61,161,-253
21596,2490,0,2023-03-01T18:51:46.391669,1695913,1407,1821,-529,-1173,-772,-302,-61,161,-253
21597,2491,0,2023-03-01T18:51:46.396543,1695919,1407,1821,-529,-1173,-772,-302,-61,161,-253
21598,2492,0,2023-03-01T18:51:46.401499,1695924,1408,1816,-527,-1173,-770,-303,-61,161,-253
21599,2493,0,2023-03-01T18:51:46.407040,1695929,1408,1816,-527,-1173,-770,-303,-61,161,-253
21600,2494,0,2023-03-01T18:51:46.412335,1695935,1408,1816,-527,-1173,-770,-303,-61,161,-253
21601,2495,0,2023-03-01T18:51:46.417425,1695940,1408,1816,-527,-1173,-770,-303,-61,161,-253
21602,2496,0,2023-03-01T18:51:46.422406,1695945,1410,1818,-530,-1169,-780,-307,-61,161,-253
21603,2497,0,2023-03-01T18:51:46.428327,1695950,1410,1818,-530,-1169,-780,-307,-61,161,-253
21604,2498,0,2023-03-01T18:51:46.433930,1695956,1410,1818,-530,-1169,-780,-307,-61,161,-253
21605,2499,0,2023-03-01T18:51:46.438563,1695961,1410,1818,-530,-1169,-780,-307,-61,161,-253
21606,2500,0,2023-03-01T18:51:46.443262,1695966,1409,1817,-534,-1178,-776,-303,-61,161,-253
21607,2501,0,2023-03-01T18:51:46.449986,1695972,1409,1817,-534,-1178,-776,-303,-61,161,-253
21608,2502,0,2023-03-01T18:51:46.455079,1695978,1409,1817,-534,-1178,-776,-303,-61,161,-253
21609,2503,0,2023-03-01T18:51:46.459904,1695982,1409,1817,-534,-1178,-776,-303,-61,161,-253
21610,2504,0,2023-03-01T18:51:46.464877,1695987,1406,1816,-525,-1181,-775,-300,-61,161,-253
21611,2505,0,2023-03-01T18:51:46.472032,1695994,1406,1816,-525,-1181,-775,-300,-61,161,-253
21612,2506,0,2023-03-01T18:51:46.477091,1696000,1406,1816,-525,-1181,-775,-300,-61,161,-253
21613,2507,0,2023-03-01T18:51:46.482089,1696005,1409,1820,-528,-1186,-783,-311,-67,159,-261
21614,2508,0,2023-03-01T18:51:46.487406,1696010,1409,1820,-528,-1186,-783,-311,-67,159,-261
21615,2509,0,2023-03-01T18:51:46.492656,1696015,1409,1820,-528,-1186,-783,-311,-67,159,-261
21616,2510,0,2023-03-01T18:51:46.497851,1696020,1409,1820,-528,-1186,-783,-311,-67,159,-261
21617,2511,0,2023-03-01T18:51:46.502678,1696025,1409,1817,-529,-1185,-785,-305,-67,159,-261
21618,2512,0,2023-03-01T18:51:46.508334,1696031,1409,1817,-529,-1185,-785,-305,-67,159,-261
21619,2513,0,2023-03-01T18:51:46.513596,1696036,1409,1817,-529,-1185,-785,-305,-67,159,-261
21620,2514,0,2023-03-01T18:51:46.518699,1696041,1409,1817,-529,-1185,-785,-305,-67,159,-261
21621,2515,0,2023-03-01T18:51:46.523399,1696046,1408,1818,-532,-1181,-781,-300,-67,159,-261
21622,2516,0,2023-03-01T18:51:46.529377,1696052,1408,1818,-532,-1181,-781,-300,-67,159,-261
21623,2517,0,2023-03-01T18:51:46.534282,1696057,1408,1818,-532,-1181,-781,-300,-67,159,-261
21624,2518,0,2023-03-01T18:51:46.538995,1696061,1408,1818,-532,-1181,-781,-300,-67,159,-261
21625,2519,0,2023-03-01T18:51:46.543934,1696066,1407,1816,-534,-1182,-780,-306,-67,159,-261
21626,2520,0,2023-03-01T18:51:46.550417,1696072,1407,1816,-534,-1182,-780,-306,-67,159,-261
21627,2521,0,2023-03-01T18:51:46.555360,1696077,1407,1816,-534,-1182,-780,-306,-67,159,-261
21628,2522,0,2023-03-01T18:51:46.560091,1696082,1407,1816,-534,-1182,-780,-306,-67,159,-261
21629,2523,0,2023-03-01T18:51:46.564992,1696088,1407,1813,-530,-1175,-776,-303,-67,159,-261
21630,2524,0,2023-03-01T18:51:46.571435,1696094,1407,1813,-530,-1175,-776,-303,-67,159,-261
21631,2525,0,2023-03-01T18:51:46.576254,1696099,1407,1813,-530,-1175,-776,-303,-67,159,-261
21632,2526,0,2023-03-01T18:51:46.581323,1696103,1410,1819,-531,-1180,-775,-304,-67,159,-261
21633,2527,0,2023-03-01T18:51:46.586311,1696108,1410,1819,-531,-1180,-775,-304,-67,159,-261
21634,2528,0,2023-03-01T18:51:46.592666,1696115,1410,1819,-531,-1180,-775,-304,-67,159,-261
21635,2529,0,2023-03-01T18:51:46.597646,1696120,1410,1819,-531,-1180,-775,-304,-67,159,-261
21636,2530,0,2023-03-01T18:51:46.602683,1696124,1406,1816,-531,-1176,-777,-301,-67,159,-261
21637,2531,0,2023-03-01T18:51:46.607922,1696131,1406,1816,-531,-1176,-777,-301,-67,159,-261
21638,2532,0,2023-03-01T18:51:46.613545,1696136,1406,1816,-531,-1176,-777,-301,-67,159,-261
21639,2533,0,2023-03-01T18:51:46.618529,1696141,1406,1816,-531,-1176,-777,-301,-67,159,-261
21640,2534,0,2023-03-01T18:51:46.623589,1696146,1407,1818,-527,-1182,-781,-297,-64,154,-258
21641,2535,0,2023-03-01T18:51:46.631425,1696153,1407,1818,-527,-1182,-781,-297,-64,154,-258
21642,2536,0,2023-03-01T18:51:46.636006,1696158,1407,1818,-527,-1182,-781,-297,-64,154,-258
21643,2537,0,2023-03-01T18:51:46.641538,1696163,1409,1819,-538,-1189,-791,-298,-64,154,-258
21644,2538,0,2023-03-01T18:51:46.646335,1696168,1409,1819,-538,-1189,-791,-298,-64,154,-258
21645,2539,0,2023-03-01T18:51:46.652334,1696175,1409,1819,-538,-1189,-791,-298,-64,154,-258
21646,2540,0,2023-03-01T18:51:46.657046,1696180,1409,1819,-538,-1189,-791,-298,-64,154,-258
21647,2541,0,2023-03-01T18:51:46.661814,1696184,1410,1816,-529,-1175,-778,-300,-64,154,-258
21648,2542,0,2023-03-01T18:51:46.668078,1696190,1410,1816,-529,-1175,-778,-300,-64,154,-258
21649,2543,0,2023-03-01T18:51:46.674382,1696197,1410,1816,-529,-1175,-778,-300,-64,154,-258
21650,2544,0,2023-03-01T18:51:46.679601,1696202,1410,1816,-529,-1175,-778,-300,-64,154,-258
21651,2545,0,2023-03-01T18:51:46.684624,1696206,1407,1820,-528,-1164,-768,-301,-64,154,-258
21652,2546,0,2023-03-01T18:51:46.691571,1696214,1407,1820,-528,-1164,-768,-301,-64,154,-258
21653,2547,0,2023-03-01T18:51:46.697172,1696219,1407,1820,-528,-1164,-768,-301,-64,154,-258
21654,2548,0,2023-03-01T18:51:46.702051,1696225,1405,1815,-533,-1168,-782,-304,-64,154,-258
21655,2549,0,2023-03-01T18:51:46.707377,1696230,1405,1815,-533,-1168,-782,-304,-64,154,-258
21656,2550,0,2023-03-01T18:51:46.712378,1696234,1405,1815,-533,-1168,-782,-304,-64,154,-258
21657,2551,0,2023-03-01T18:51:46.717471,1696239,1405,1815,-533,-1168,-782,-304,-64,154,-258
21658,2552,0,2023-03-01T18:51:46.722689,1696245,1405,1817,-533,-1173,-777,-303,-64,154,-258
21659,2553,0,2023-03-01T18:51:46.728019,1696250,1405,1817,-533,-1173,-777,-303,-64,154,-258
21660,2554,0,2023-03-01T18:51:46.733598,1696256,1405,1817,-533,-1173,-777,-303,-64,154,-258
21661,2555,0,2023-03-01T18:51:46.738427,1696261,1405,1817,-533,-1173,-777,-303,-64,154,-258
21662,2556,0,2023-03-01T18:51:46.743314,1696266,1409,1820,-537,-1181,-783,-301,-61,165,-259
21663,2557,0,2023-03-01T18:51:46.750112,1696272,1409,1820,-537,-1181,-783,-301,-61,165,-259
21664,2558,0,2023-03-01T18:51:46.754869,1696277,1409,1820,-537,-1181,-783,-301,-61,165,-259
21665,2559,0,2023-03-01T18:51:46.759699,1696282,1409,1820,-537,-1181,-783,-301,-61,165,-259
21666,2560,0,2023-03-01T18:51:46.764688,1696287,1407,1816,-531,-1178,-771,-301,-61,165,-259
21667,2561,0,2023-03-01T18:51:46.771234,1696293,1407,1816,-531,-1178,-771,-301,-61,165,-259
21668,2562,0,2023-03-01T18:51:46.776788,1696299,1407,1816,-531,-1178,-771,-301,-61,165,-259
21669,2563,0,2023-03-01T18:51:46.782712,1696305,1410,1817,-528,-1176,-775,-300,-61,165,-259
21670,2564,0,2023-03-01T18:51:46.788038,1696311,1410,1817,-528,-1176,-775,-300,-61,165,-259
21671,2565,0,2023-03-01T18:51:46.793073,1696316,1410,1817,-528,-1176,-775,-300,-61,165,-259
21672,2566,0,2023-03-01T18:51:46.798284,1696320,1410,1817,-528,-1176,-775,-300,-61,165,-259
21673,2567,0,2023-03-01T18:51:46.803655,1696326,1409,1821,-531,-1176,-777,-295,-61,165,-259
21674,2568,0,2023-03-01T18:51:46.810307,1696332,1409,1821,-531,-1176,-777,-295,-61,165,-259
21675,2569,0,2023-03-01T18:51:46.815187,1696337,1409,1821,-531,-1176,-777,-295,-61,165,-259
21676,2570,0,2023-03-01T18:51:46.820343,1696343,1409,1821,-531,-1176,-777,-295,-61,165,-259
21677,2571,0,2023-03-01T18:51:46.824828,1696348,1406,1817,-527,-1171,-773,-292,-61,165,-259
21678,2572,0,2023-03-01T18:51:46.832140,1696355,1406,1817,-527,-1171,-773,-292,-61,165,-259
21679,2573,0,2023-03-01T18:51:46.836965,1696360,1406,1817,-527,-1171,-773,-292,-61,165,-259
21680,2574,0,2023-03-01T18:51:46.842234,1696364,1413,1820,-531,-1177,-773,-303,-61,165,-259
21681,2575,0,2023-03-01T18:51:46.848109,1696370,1413,1820,-531,-1177,-773,-303,-61,165,-259
21682,2576,0,2023-03-01T18:51:46.854136,1696376,1413,1820,-531,-1177,-773,-303,-61,165,-259
21683,2577,0,2023-03-01T18:51:46.859004,1696381,1413,1820,-531,-1177,-773,-303,-61,165,-259
21684,2578,0,2023-03-01T18:51:46.863601,1696386,1410,1817,-532,-1182,-785,-297,-61,165,-259
21685,2579,0,2023-03-01T18:51:46.869821,1696393,1410,1817,-532,-1182,-785,-297,-61,165,-259
21686,2580,0,2023-03-01T18:51:46.875003,1696397,1410,1817,-532,-1182,-785,-297,-61,165,-259
21687,2581,0,2023-03-01T18:51:46.879936,1696402,1410,1817,-532,-1182,-785,-297,-61,165,-259
21688,2582,0,2023-03-01T18:51:46.885114,1696407,1407,1818,-525,-1188,-787,-307,-67,159,-261
21689,2583,0,2023-03-01T18:51:46.893313,1696415,1407,1818,-525,-1188,-787,-307,-67,159,-261
21690,2584,0,2023-03-01T18:51:46.898371,1696420,1407,1818,-525,-1188,-787,-307,-67,159,-261
21691,2585,0,2023-03-01T18:51:46.903011,1696425,1409,1818,-529,-1190,-783,-306,-67,159,-261
21692,2586,0,2023-03-01T18:51:46.909501,1696432,1409,1818,-529,-1190,-783,-306,-67,159,-261
21693,2587,0,2023-03-01T18:51:46.914943,1696438,1409,1818,-529,-1190,-783,-306,-67,159,-261
21694,2588,0,2023-03-01T18:51:46.919744,1696442,1409,1818,-529,-1190,-783,-306,-67,159,-261
21695,2589,0,2023-03-01T18:51:46.924786,1696447,1408,1817,-528,-1182,-786,-304,-67,159,-261
21696,2590,0,2023-03-01T18:51:46.931151,1696453,1408,1817,-528,-1182,-786,-304,-67,159,-261
21697,2591,0,2023-03-01T18:51:46.935991,1696458,1408,1817,-528,-1182,-786,-304,-67,159,-261
21698,2592,0,2023-03-01T18:51:46.940920,1696463,1408,1817,-528,-1182,-786,-304,-67,159,-261
21699,2593,0,2023-03-01T18:51:46.945727,1696468,1408,1817,-528,-1182,-786,-304,-67,159,-261
