,Unnamed: 0,imu,server_time,arduino_time,ax,ay,az,gx,gy,gz,mx,my,mz
21700,2594,0,2023-03-01T18:51:46.952025,1696474,1408,1817,-528,-1182,-786,-304,-67,159,-261
21701,2595,0,2023-03-01T18:51:46.957153,1696480,1408,1817,-528,-1182,-786,-304,-67,159,-261
21702,2596,0,2023-03-01T18:51:46.962230,1696485,1408,1816,-533,-1186,-790,-303,-67,159,-261
21703,2597,0,2023-03-01T18:51:46.967787,1696490,1408,1816,-533,-1186,-790,-303,-67,159,-261
21704,2598,0,2023-03-01T18:51:46.974422,1696496,1408,1816,-533,-1186,-790,-303,-67,159,-261
21705,2599,0,2023-03-01T18:51:46.979947,1696501,1408,1816,-533,-1186,-790,-303,-67,159,-261
21706,2600,0,2023-03-01T18:51:46.984929,1696507,1407,1814,-530,-1178,-789,-300,-67,159,-261
21707,2601,0,2023-03-01T18:51:46.990601,1696513,1407,1814,-530,-1178,-789,-300,-67,159,-261
21708,2602,0,2023-03-01T18:51:46.996757,1696518,1407,1814,-530,-1178,-789,-300,-67,159,-261
21709,2603,0,2023-03-01T18:51:47.002476,1696525,1410,1817,-530,-1187,-794,-307,-61,151,-259
21710,2604,0,2023-03-01T18:51:47.008285,1696531,1410,1817,-530,-1187,-794,-307,-61,151,-259
21711,2605,0,2023-03-01T18:51:47.013963,1696536,1410,1817,-530,-1187,-794,-307,-61,151,-259
21712,2606,0,2023-03-01T18:51:47.018944,1696541,1410,1817,-530,-1187,-794,-307,-61,151,-259
21713,2607,0,2023-03-01T18:51:47.023957,1696546,1407,1813,-532,-1191,-793,-299,-61,151,-259
21714,2608,0,2023-03-01T18:51:47.031003,1696553,1407,1813,-532,-1191,-793,-299,-61,151,-259
21715,2609,0,2023-03-01T18:51:47.035833,1696559,1407,1813,-532,-1191,-793,-299,-61,151,-259
21716,2610,0,2023-03-01T18:51:47.040566,1696563,1407,1813,-532,-1191,-793,-299,-61,151,-259
21717,2611,0,2023-03-01T18:51:47.045459,1696568,1404,1815,-527,-1196,-798,-299,-61,151,-259
21718,2612,0,2023-03-01T18:51:47.052170,1696574,1404,1815,-527,-1196,-798,-299,-61,151,-259
21719,2613,0,2023-03-01T18:51:47.057125,1696579,1404,1815,-527,-1196,-798,-299,-61,151,-259
21720,2614,0,2023-03-01T18:51:47.062079,1696584,1404,1815,-527,-1196,-798,-299,-61,151,-259
21721,2615,0,2023-03-01T18:51:47.067111,1696589,1404,1815,-527,-1196,-798,-299,-61,151,-259
21722,2616,0,2023-03-01T18:51:47.073121,1696595,1404,1815,-527,-1196,-798,-299,-61,151,-259
21723,2617,0,2023-03-01T18:51:47.078356,1696601,1404,1815,-527,-1196,-798,-299,-61,151,-259
21724,2618,0,2023-03-01T18:51:47.084001,1696606,1409,1818,-531,-1188,-786,-302,-61,151,-259
21725,2619,0,2023-03-01T18:51:47.090442,1696613,1409,1818,-531,-1188,-786,-302,-61,151,-259
21726,2620,0,2023-03-01T18:51:47.095282,1696618,1409,1818,-531,-1188,-786,-302,-61,151,-259
21727,2621,0,2023-03-01T18:51:47.099980,1696622,1409,1818,-531,-1188,-786,-302,-61,151,-259
21728,2622,0,2023-03-01T18:51:47.104708,1696627,1406,1820,-529,-1179,-787,-296,-61,151,-259
21729,2623,0,2023-03-01T18:51:47.112683,1696634,1406,1820,-529,-1179,-787,-296,-61,151,-259
21730,2624,0,2023-03-01T18:51:47.117798,1696641,1406,1820,-529,-1179,-787,-296,-61,151,-259
21731,2625,0,2023-03-01T18:51:47.122557,1696645,1409,1819,-533,-1185,-785,-304,-61,151,-259
21732,2626,0,2023-03-01T18:51:47.128163,1696650,1409,1819,-533,-1185,-785,-304,-61,151,-259
21733,2627,0,2023-03-01T18:51:47.134065,1696656,1409,1819,-533,-1185,-785,-304,-61,151,-259
21734,2628,0,2023-03-01T18:51:47.138832,1696661,1409,1819,-533,-1185,-785,-304,-61,151,-259
21735,2629,0,2023-03-01T18:51:47.143899,1696666,1407,1819,-527,-1183,-782,-298,-64,156,-260
21736,2630,0,2023-03-01T18:51:47.150490,1696672,1407,1819,-527,-1183,-782,-298,-64,156,-260
21737,2631,0,2023-03-01T18:51:47.155475,1696678,1407,1819,-527,-1183,-782,-298,-64,156,-260
21738,2632,0,2023-03-01T18:51:47.160173,1696683,1407,1819,-527,-1183,-782,-298,-64,156,-260
21739,2633,0,2023-03-01T18:51:47.164846,1696687,1408,1818,-531,-1186,-790,-294,-64,156,-260
21740,2634,0,2023-03-01T18:51:47.172115,1696695,1408,1818,-531,-1186,-790,-294,-64,156,-260
21741,2635,0,2023-03-01T18:51:47.177113,1696700,1408,1818,-531,-1186,-790,-294,-64,156,-260
21742,2636,0,2023-03-01T18:51:47.181736,1696704,1408,1816,-535,-1193,-793,-299,-64,156,-260
21743,2637,0,2023-03-01T18:51:47.187518,1696710,1408,1816,-535,-1193,-793,-299,-64,156,-260
21744,2638,0,2023-03-01T18:51:47.194003,1696716,1408,1816,-535,-1193,-793,-299,-64,156,-260
21745,2639,0,2023-03-01T18:51:47.199142,1696721,1408,1816,-535,-1193,-793,-299,-64,156,-260
21746,2640,0,2023-03-01T18:51:47.203736,1696727,1407,1815,-537,-1189,-792,-301,-64,156,-260
21747,2641,0,2023-03-01T18:51:47.209940,1696733,1407,1815,-537,-1189,-792,-301,-64,156,-260
21748,2642,0,2023-03-01T18:51:47.215378,1696738,1407,1815,-537,-1189,-792,-301,-64,156,-260
21749,2643,0,2023-03-01T18:51:47.220744,1696743,1407,1815,-537,-1189,-792,-301,-64,156,-260
21750,2644,0,2023-03-01T18:51:47.225900,1696748,1410,1818,-528,-1193,-789,-304,-64,156,-260
21751,2645,0,2023-03-01T18:51:47.232650,1696755,1410,1818,-528,-1193,-789,-304,-64,156,-260
21752,2646,0,2023-03-01T18:51:47.237276,1696759,1410,1818,-528,-1193,-789,-304,-64,156,-260
21753,2647,0,2023-03-01T18:51:47.241887,1696764,1405,1815,-533,-1191,-798,-301,-64,156,-260
21754,2648,0,2023-03-01T18:51:47.247323,1696770,1405,1815,-533,-1191,-798,-301,-64,156,-260
21755,2649,0,2023-03-01T18:51:47.253289,1696776,1405,1815,-533,-1191,-798,-301,-64,156,-260
21756,2650,0,2023-03-01T18:51:47.258243,1696781,1405,1815,-533,-1191,-798,-301,-64,156,-260
21757,2651,0,2023-03-01T18:51:47.262950,1696786,1410,1821,-531,-1195,-787,-299,-63,159,-265
21758,2652,0,2023-03-01T18:51:47.268580,1696791,1410,1821,-531,-1195,-787,-299,-63,159,-265
21759,2653,0,2023-03-01T18:51:47.273036,1696795,1410,1821,-531,-1195,-787,-299,-63,159,-265
21760,2654,0,2023-03-01T18:51:47.278111,1696800,1410,1821,-531,-1195,-787,-299,-63,159,-265
21761,2655,0,2023-03-01T18:51:47.283217,1696805,1409,1816,-529,-1186,-775,-300,-63,159,-265
21762,2656,0,2023-03-01T18:51:47.289154,1696812,1409,1816,-529,-1186,-775,-300,-63,159,-265
21763,2657,0,2023-03-01T18:51:47.294817,1696817,1409,1816,-529,-1186,-775,-300,-63,159,-265
21764,2658,0,2023-03-01T18:51:47.299765,1696822,1409,1816,-529,-1186,-775,-300,-63,159,-265
21765,2659,0,2023-03-01T18:51:47.304639,1696827,1409,1817,-533,-1179,-770,-300,-63,159,-265
21766,2660,0,2023-03-01T18:51:47.311364,1696834,1409,1817,-533,-1179,-770,-300,-63,159,-265
21767,2661,0,2023-03-01T18:51:47.315821,1696838,1409,1817,-533,-1179,-770,-300,-63,159,-265
21768,2662,0,2023-03-01T18:51:47.320726,1696843,1409,1817,-533,-1179,-770,-300,-63,159,-265
21769,2663,0,2023-03-01T18:51:47.326007,1696848,1411,1817,-535,-1174,-777,-302,-63,159,-265
21770,2664,0,2023-03-01T18:51:47.332941,1696856,1411,1817,-535,-1174,-777,-302,-63,159,-265
21771,2665,0,2023-03-01T18:51:47.338233,1696861,1411,1817,-535,-1174,-777,-302,-63,159,-265
21772,2666,0,2023-03-01T18:51:47.342747,1696865,1411,1815,-528,-1171,-766,-300,-63,159,-265
21773,2667,0,2023-03-01T18:51:47.347716,1696870,1411,1815,-528,-1171,-766,-300,-63,159,-265
21774,2668,0,2023-03-01T18:51:47.352620,1696875,1411,1815,-528,-1171,-766,-300,-63,159,-265
21775,2669,0,2023-03-01T18:51:47.357474,1696880,1411,1815,-528,-1171,-766,-300,-63,159,-265
21776,2670,0,2023-03-01T18:51:47.362491,1696884,1408,1818,-536,-1175,-774,-301,-63,159,-265
21777,2671,0,2023-03-01T18:51:47.368031,1696890,1408,1818,-536,-1175,-774,-301,-63,159,-265
21778,2672,0,2023-03-01T18:51:47.373952,1696897,1408,1818,-536,-1175,-774,-301,-63,159,-265
21779,2673,0,2023-03-01T18:51:47.379044,1696902,1408,1818,-536,-1175,-774,-301,-63,159,-265
21780,2674,0,2023-03-01T18:51:47.384119,1696906,1408,1816,-533,-1174,-767,-302,-67,159,-259
21781,2675,0,2023-03-01T18:51:47.391124,1696913,1408,1816,-533,-1174,-767,-302,-67,159,-259
21782,2676,0,2023-03-01T18:51:47.395961,1696918,1408,1816,-533,-1174,-767,-302,-67,159,-259
21783,2677,0,2023-03-01T18:51:47.400969,1696923,1408,1816,-533,-1174,-767,-302,-67,159,-259
21784,2678,0,2023-03-01T18:51:47.405661,1696928,1408,1814,-532,-1172,-762,-308,-67,159,-259
21785,2679,0,2023-03-01T18:51:47.412144,1696934,1408,1814,-532,-1172,-762,-308,-67,159,-259
21786,2680,0,2023-03-01T18:51:47.417217,1696940,1408,1814,-532,-1172,-762,-308,-67,159,-259
21787,2681,0,2023-03-01T18:51:47.422008,1696945,1408,1814,-532,-1172,-762,-308,-67,159,-259
21788,2682,0,2023-03-01T18:51:47.427060,1696950,1408,1814,-532,-1172,-762,-308,-67,159,-259
21789,2683,0,2023-03-01T18:51:47.433068,1696955,1408,1814,-532,-1172,-762,-308,-67,159,-259
21790,2684,0,2023-03-01T18:51:47.438019,1696960,1408,1814,-532,-1172,-762,-308,-67,159,-259
21791,2685,0,2023-03-01T18:51:47.443229,1696965,1408,1818,-536,-1179,-770,-302,-67,159,-259
21792,2686,0,2023-03-01T18:51:47.449522,1696972,1408,1818,-536,-1179,-770,-302,-67,159,-259
21793,2687,0,2023-03-01T18:51:47.454839,1696977,1408,1818,-536,-1179,-770,-302,-67,159,-259
21794,2688,0,2023-03-01T18:51:47.459259,1696982,1408,1818,-536,-1179,-770,-302,-67,159,-259
21795,2689,0,2023-03-01T18:51:47.463951,1696987,1409,1817,-534,-1167,-771,-297,-67,159,-259
21796,2690,0,2023-03-01T18:51:47.470299,1696993,1409,1817,-534,-1167,-771,-297,-67,159,-259
21797,2691,0,2023-03-01T18:51:47.475127,1696998,1409,1817,-534,-1167,-771,-297,-67,159,-259
21798,2692,0,2023-03-01T18:51:47.479846,1697002,1409,1817,-534,-1167,-771,-297,-67,159,-259
21799,2693,0,2023-03-01T18:51:47.484650,1697007,1405,1818,-538,-1169,-779,-299,-67,159,-259
21800,2694,0,2023-03-01T18:51:47.491289,1697013,1405,1818,-538,-1169,-779,-299,-67,159,-259
21801,2695,0,2023-03-01T18:51:47.496240,1697018,1405,1818,-538,-1169,-779,-299,-67,159,-259
21802,2696,0,2023-03-01T18:51:47.501404,1697024,1405,1818,-538,-1169,-779,-299,-67,159,-259
21803,2697,0,2023-03-01T18:51:47.506077,1697029,1407,1815,-534,-1171,-768,-304,-67,159,-259
21804,2698,0,2023-03-01T18:51:47.512563,1697035,1407,1815,-534,-1171,-768,-304,-67,159,-259
21805,2699,0,2023-03-01T18:51:47.517483,1697040,1407,1815,-534,-1171,-768,-304,-67,159,-259
21806,2700,0,2023-03-01T18:51:47.522530,1697045,1408,1819,-533,-1174,-770,-307,-72,160,-256
21807,2701,0,2023-03-01T18:51:47.528107,1697050,1408,1819,-533,-1174,-770,-307,-72,160,-256
21808,2702,0,2023-03-01T18:51:47.533759,1697056,1408,1819,-533,-1174,-770,-307,-72,160,-256
21809,2703,0,2023-03-01T18:51:47.538516,1697061,1408,1819,-533,-1174,-770,-307,-72,160,-256
21810,2704,0,2023-03-01T18:51:47.543305,1697065,1408,1816,-533,-1176,-763,-308,-72,160,-256
21811,2705,0,2023-03-01T18:51:47.550029,1697072,1408,1816,-533,-1176,-763,-308,-72,160,-256
21812,2706,0,2023-03-01T18:51:47.554892,1697077,1408,1816,-533,-1176,-763,-308,-72,160,-256
21813,2707,0,2023-03-01T18:51:47.559735,1697082,1408,1816,-533,-1176,-763,-308,-72,160,-256
21814,2708,0,2023-03-01T18:51:47.564392,1697087,1410,1817,-535,-1187,-760,-303,-72,160,-256
21815,2709,0,2023-03-01T18:51:47.570706,1697093,1410,1817,-535,-1187,-760,-303,-72,160,-256
21816,2710,0,2023-03-01T18:51:47.575469,1697098,1410,1817,-535,-1187,-760,-303,-72,160,-256
21817,2711,0,2023-03-01T18:51:47.580269,1697102,1410,1817,-535,-1187,-760,-303,-72,160,-256
21818,2712,0,2023-03-01T18:51:47.584963,1697107,1411,1817,-533,-1182,-770,-302,-72,160,-256
21819,2713,0,2023-03-01T18:51:47.591389,1697114,1411,1817,-533,-1182,-770,-302,-72,160,-256
21820,2714,0,2023-03-01T18:51:47.596199,1697119,1411,1817,-533,-1182,-770,-302,-72,160,-256
21821,2715,0,2023-03-01T18:51:47.601311,1697124,1411,1817,-533,-1182,-770,-302,-72,160,-256
21822,2716,0,2023-03-01T18:51:47.605967,1697128,1409,1812,-531,-1166,-768,-305,-72,160,-256
21823,2717,0,2023-03-01T18:51:47.613811,1697136,1409,1812,-531,-1166,-768,-305,-72,160,-256
21824,2718,0,2023-03-01T18:51:47.618543,1697141,1409,1812,-531,-1166,-768,-305,-72,160,-256
21825,2719,0,2023-03-01T18:51:47.624027,1697146,1409,1821,-529,-1167,-772,-298,-72,160,-256
21826,2720,0,2023-03-01T18:51:47.630794,1697153,1409,1821,-529,-1167,-772,-298,-72,160,-256
21827,2721,0,2023-03-01T18:51:47.635716,1697158,1409,1821,-529,-1167,-772,-298,-72,160,-256
21828,2722,0,2023-03-01T18:51:47.640960,1697163,1409,1821,-529,-1167,-772,-298,-72,160,-256
21829,2723,0,2023-03-01T18:51:47.645876,1697168,1408,1817,-526,-1174,-772,-304,-65,153,-255
21830,2724,0,2023-03-01T18:51:47.652242,1697175,1408,1817,-526,-1174,-772,-304,-65,153,-255
21831,2725,0,2023-03-01T18:51:47.656999,1697179,1408,1817,-526,-1174,-772,-304,-65,153,-255
21832,2726,0,2023-03-01T18:51:47.662221,1697184,1409,1814,-529,-1178,-773,-306,-65,153,-255
21833,2727,0,2023-03-01T18:51:47.668818,1697191,1409,1814,-529,-1178,-773,-306,-65,153,-255
21834,2728,0,2023-03-01T18:51:47.675782,1697198,1409,1814,-529,-1178,-773,-306,-65,153,-255
21835,2729,0,2023-03-01T18:51:47.681331,1697204,1409,1814,-529,-1178,-773,-306,-65,153,-255
21836,2730,0,2023-03-01T18:51:47.686556,1697209,1412,1817,-535,-1188,-782,-310,-65,153,-255
21837,2731,0,2023-03-01T18:51:47.691501,1697214,1412,1817,-535,-1188,-782,-310,-65,153,-255
21838,2732,0,2023-03-01T18:51:47.697146,1697219,1412,1817,-535,-1188,-782,-310,-65,153,-255
21839,2733,0,2023-03-01T18:51:47.702138,1697224,1409,1815,-534,-1188,-781,-306,-65,153,-255
21840,2734,0,2023-03-01T18:51:47.707574,1697230,1409,1815,-534,-1188,-781,-306,-65,153,-255
21841,2735,0,2023-03-01T18:51:47.713569,1697235,1409,1815,-534,-1188,-781,-306,-65,153,-255
21842,2736,0,2023-03-01T18:51:47.718569,1697241,1409,1815,-534,-1188,-781,-306,-65,153,-255
21843,2737,0,2023-03-01T18:51:47.723745,1697246,1408,1818,-533,-1189,-784,-299,-65,153,-255
21844,2738,0,2023-03-01T18:51:47.731683,1697254,1408,1818,-533,-1189,-784,-299,-65,153,-255
21845,2739,0,2023-03-01T18:51:47.736642,1697259,1408,1818,-533,-1189,-784,-299,-65,153,-255
21846,2740,0,2023-03-01T18:51:47.741456,1697264,1408,1818,-533,-1189,-784,-299,-65,153,-255
21847,2741,0,2023-03-01T18:51:47.746459,1697268,1411,1821,-531,-1191,-790,-297,-65,153,-255
21848,2742,0,2023-03-01T18:51:47.753601,1697276,1411,1821,-531,-1191,-790,-297,-65,153,-255
21849,2743,0,2023-03-01T18:51:47.758234,1697281,1411,1821,-531,-1191,-790,-297,-65,153,-255
21850,2744,0,2023-03-01T18:51:47.762964,1697286,1405,1814,-530,-1188,-789,-297,-65,153,-255
21851,2745,0,2023-03-01T18:51:47.769864,1697292,1405,1814,-530,-1188,-789,-297,-65,153,-255
21852,2746,0,2023-03-01T18:51:47.775592,1697298,1405,1814,-530,-1188,-789,-297,-65,153,-255
21853,2747,0,2023-03-01T18:51:47.780679,1697303,1405,1814,-530,-1188,-789,-297,-65,153,-255
21854,2748,0,2023-03-01T18:51:47.785542,1697308,1410,1816,-531,-1184,-788,-293,-72,154,-264
21855,2749,0,2023-03-01T18:51:47.791552,1697314,1410,1816,-531,-1184,-788,-293,-72,154,-264
21856,2750,0,2023-03-01T18:51:47.796627,1697318,1410,1816,-531,-1184,-788,-293,-72,154,-264
21857,2751,0,2023-03-01T18:51:47.801827,1697324,1410,1816,-531,-1184,-788,-293,-72,154,-264
21858,2752,0,2023-03-01T18:51:47.806887,1697330,1407,1815,-536,-1186,-791,-301,-72,154,-264
21859,2753,0,2023-03-01T18:51:47.813129,1697336,1407,1815,-536,-1186,-791,-301,-72,154,-264
21860,2754,0,2023-03-01T18:51:47.817682,1697340,1407,1815,-536,-1186,-791,-301,-72,154,-264
21861,2755,0,2023-03-01T18:51:47.822227,1697345,1407,1812,-536,-1186,-789,-308,-72,154,-264
21862,2756,0,2023-03-01T18:51:47.827584,1697350,1407,1812,-536,-1186,-789,-308,-72,154,-264
21863,2757,0,2023-03-01T18:51:47.833684,1697356,1407,1812,-536,-1186,-789,-308,-72,154,-264
21864,2758,0,2023-03-01T18:51:47.838475,1697360,1407,1812,-536,-1186,-789,-308,-72,154,-264
21865,2759,0,2023-03-01T18:51:47.843586,1697366,1412,1823,-538,-1190,-785,-299,-72,154,-264
21866,2760,0,2023-03-01T18:51:47.849852,1697373,1412,1823,-538,-1190,-785,-299,-72,154,-264
21867,2761,0,2023-03-01T18:51:47.854634,1697377,1412,1823,-538,-1190,-785,-299,-72,154,-264
21868,2762,0,2023-03-01T18:51:47.859437,1697382,1412,1823,-538,-1190,-785,-299,-72,154,-264
21869,2763,0,2023-03-01T18:51:47.864112,1697387,1405,1814,-532,-1189,-789,-292,-72,154,-264
21870,2764,0,2023-03-01T18:51:47.870468,1697393,1405,1814,-532,-1189,-789,-292,-72,154,-264
21871,2765,0,2023-03-01T18:51:47.875683,1697398,1405,1814,-532,-1189,-789,-292,-72,154,-264
21872,2766,0,2023-03-01T18:51:47.880272,1697402,1405,1814,-532,-1189,-789,-292,-72,154,-264
21873,2767,0,2023-03-01T18:51:47.884787,1697408,1409,1815,-531,-1190,-789,-297,-72,154,-264
21874,2768,0,2023-03-01T18:51:47.892158,1697415,1409,1815,-531,-1190,-789,-297,-72,154,-264
21875,2769,0,2023-03-01T18:51:47.897598,1697420,1409,1815,-531,-1190,-789,-297,-72,154,-264
21876,2770,0,2023-03-01T18:51:47.902650,1697425,1412,1818,-535,-1191,-794,-297,-58,158,-264
21877,2771,0,2023-03-01T18:51:47.908348,1697431,1412,1818,-535,-1191,-794,-297,-58,158,-254
21878,2772,0,2023-03-01T18:51:47.914773,1697437,1412,1818,-535,-1191,-794,-297,-58,158,-254
21879,2773,0,2023-03-01T18:51:47.919673,1697442,1412,1818,-535,-1191,-794,-297,-58,158,-254
21880,2774,0,2023-03-01T18:51:47.924301,1697446,1406,1815,-530,-1183,-787,-296,-58,158,-254
21881,2775,0,2023-03-01T18:51:47.930762,1697454,1406,1815,-530,-1183,-787,-296,-58,158,-254
21882,2776,0,2023-03-01T18:51:47.935842,1697458,1406,1815,-530,-1183,-787,-296,-58,158,-254
21883,2777,0,2023-03-01T18:51:47.940624,1697463,1406,1815,-530,-1183,-787,-296,-58,158,-254
21884,2778,0,2023-03-01T18:51:47.945763,1697468,1411,1819,-532,-1184,-778,-299,-58,158,-254
21885,2779,0,2023-03-01T18:51:47.952540,1697475,1411,1819,-532,-1184,-778,-299,-58,158,-254
21886,2780,0,2023-03-01T18:51:47.957635,1697480,1411,1819,-532,-1184,-778,-299,-58,158,-254
21887,2781,0,2023-03-01T18:51:47.962427,1697485,1410,1816,-533,-1187,-782,-295,-58,158,-254
21888,2782,0,2023-03-01T18:51:47.968216,1697490,1410,1816,-533,-1187,-782,-295,-58,158,-254
21889,2783,0,2023-03-01T18:51:47.974150,1697497,1410,1816,-533,-1187,-782,-295,-58,158,-254
21890,2784,0,2023-03-01T18:51:47.978992,1697502,1410,1816,-533,-1187,-782,-295,-58,158,-254
21891,2785,0,2023-03-01T18:51:47.983911,1697506,1411,1812,-538,-1180,-791,-296,-58,158,-254
21892,2786,0,2023-03-01T18:51:47.990884,1697513,1411,1812,-538,-1180,-791,-296,-58,158,-254
21893,2787,0,2023-03-01T18:51:47.995579,1697518,1411,1812,-538,-1180,-791,-296,-58,158,-254
21894,2788,0,2023-03-01T18:51:48.000502,1697523,1411,1812,-538,-1180,-791,-296,-58,158,-254
21895,2789,0,2023-03-01T18:51:48.005510,1697527,1412,1819,-537,-1186,-796,-301,-58,158,-254
21896,2790,0,2023-03-01T18:51:48.013148,1697534,1412,1819,-537,-1186,-796,-301,-58,158,-254
21897,2791,0,2023-03-01T18:51:48.017944,1697541,1412,1819,-537,-1186,-796,-301,-58,158,-254
21898,2792,0,2023-03-01T18:51:48.022922,1697545,1408,1812,-541,-1197,-794,-296,-58,158,-254
21899,2793,0,2023-03-01T18:51:48.029170,1697551,1408,1812,-541,-1197,-794,-296,-58,158,-254
21900,2794,0,2023-03-01T18:51:48.035117,1697558,1408,1812,-541,-1197,-794,-296,-58,158,-254
21901,2795,0,2023-03-01T18:51:48.039957,1697562,1408,1812,-541,-1197,-794,-296,-58,158,-254
21902,2796,0,2023-03-01T18:51:48.044644,1697567,1412,1816,-533,-1193,-790,-306,-67,161,-257
21903,2797,0,2023-03-01T18:51:48.051642,1697574,1412,1816,-533,-1193,-790,-306,-67,161,-257
21904,2798,0,2023-03-01T18:51:48.056516,1697579,1412,1816,-533,-1193,-790,-306,-67,161,-257
21905,2799,0,2023-03-01T18:51:48.061587,1697584,1412,1816,-533,-1193,-790,-306,-67,161,-257
21906,2800,0,2023-03-01T18:51:48.066464,1697589,1410,1817,-539,-1193,-794,-301,-67,161,-257
21907,2801,0,2023-03-01T18:51:48.072780,1697595,1410,1817,-539,-1193,-794,-301,-67,161,-257
21908,2802,0,2023-03-01T18:51:48.077490,1697600,1410,1817,-539,-1193,-794,-301,-67,161,-257
21909,2803,0,2023-03-01T18:51:48.082383,1697605,1410,1817,-530,-1193,-792,-297,-67,161,-257
21910,2804,0,2023-03-01T18:51:48.088345,1697610,1410,1817,-530,-1193,-792,-297,-67,161,-257
21911,2805,0,2023-03-01T18:51:48.094367,1697616,1410,1817,-530,-1193,-792,-297,-67,161,-257
21912,2806,0,2023-03-01T18:51:48.099486,1697622,1410,1817,-530,-1193,-792,-297,-67,161,-257
21913,2807,0,2023-03-01T18:51:48.104365,1697627,1410,1819,-540,-1187,-793,-304,-67,161,-257
21914,2808,0,2023-03-01T18:51:48.111251,1697634,1410,1819,-540,-1187,-793,-304,-67,161,-257
21915,2809,0,2023-03-01T18:51:48.116138,1697639,1410,1819,-540,-1187,-793,-304,-67,161,-257
21916,2810,0,2023-03-01T18:51:48.121259,1697644,1410,1819,-540,-1187,-793,-304,-67,161,-257
21917,2811,0,2023-03-01T18:51:48.126427,1697648,1412,1814,-544,-1193,-792,-302,-67,161,-257
21918,2812,0,2023-03-01T18:51:48.133273,1697655,1412,1814,-544,-1193,-792,-302,-67,161,-257
21919,2813,0,2023-03-01T18:51:48.139444,1697660,1412,1814,-544,-1193,-792,-302,-67,161,-257
21920,2814,0,2023-03-01T18:51:48.144349,1697667,1409,1816,-537,-1193,-793,-296,-67,161,-257
21921,2815,0,2023-03-01T18:51:48.150934,1697674,1409,1816,-537,-1193,-793,-296,-67,161,-257
21922,2816,0,2023-03-01T18:51:48.155682,1697678,1409,1816,-537,-1193,-793,-296,-67,161,-257
21923,2817,0,2023-03-01T18:51:48.160747,1697683,1409,1816,-537,-1193,-793,-296,-67,161,-257
21924,2818,0,2023-03-01T18:51:48.165944,1697688,1414,1817,-533,-1198,-795,-303,-64,154,-252
21925,2819,0,2023-03-01T18:51:48.172616,1697695,1414,1817,-533,-1198,-795,-303,-64,154,-252
21926,2820,0,2023-03-01T18:51:48.177552,1697700,1414,1817,-533,-1198,-795,-303,-64,154,-252
21927,2821,0,2023-03-01T18:51:48.182692,1697705,1410,1815,-530,-1200,-803,-301,-64,154,-252
21928,2822,0,2023-03-01T18:51:48.188964,1697711,1410,1815,-530,-1200,-803,-301,-64,154,-252
21929,2823,0,2023-03-01T18:51:48.194129,1697716,1410,1815,-530,-1200,-803,-301,-64,154,-252
21930,2824,0,2023-03-01T18:51:48.199154,1697722,1410,1815,-530,-1200,-803,-301,-64,154,-252
21931,2825,0,2023-03-01T18:51:48.204156,1697727,1410,1814,-535,-1197,-805,-304,-64,154,-252
21932,2826,0,2023-03-01T18:51:48.211208,1697733,1410,1814,-535,-1197,-805,-304,-64,154,-252
21933,2827,0,2023-03-01T18:51:48.216316,1697738,1410,1814,-535,-1197,-805,-304,-64,154,-252
21934,2828,0,2023-03-01T18:51:48.221431,1697743,1410,1814,-535,-1197,-805,-304,-64,154,-252
21935,2829,0,2023-03-01T18:51:48.226452,1697748,1413,1818,-541,-1201,-799,-300,-64,154,-252
21936,2830,0,2023-03-01T18:51:48.232991,1697756,1413,1818,-541,-1201,-799,-300,-64,154,-252
21937,2831,0,2023-03-01T18:51:48.238199,1697761,1413,1818,-541,-1201,-799,-300,-64,154,-252
21938,2832,0,2023-03-01T18:51:48.242996,1697765,1408,1816,-533,-1182,-791,-297,-64,154,-252
21939,2833,0,2023-03-01T18:51:48.248712,1697771,1408,1816,-533,-1182,-791,-297,-64,154,-252
21940,2834,0,2023-03-01T18:51:48.255317,1697777,1408,1816,-533,-1182,-791,-297,-64,154,-252
21941,2835,0,2023-03-01T18:51:48.259885,1697782,1408,1816,-533,-1182,-791,-297,-64,154,-252
21942,2836,0,2023-03-01T18:51:48.264691,1697787,1411,1817,-534,-1184,-778,-295,-64,154,-252
21943,2837,0,2023-03-01T18:51:48.271271,1697794,1411,1817,-534,-1184,-778,-295,-64,154,-252
21944,2838,0,2023-03-01T18:51:48.276126,1697799,1411,1817,-534,-1184,-778,-295,-64,154,-252
21945,2839,0,2023-03-01T18:51:48.280988,1697804,1411,1817,-534,-1184,-778,-295,-64,154,-252
21946,2840,0,2023-03-01T18:51:48.286105,1697808,1410,1816,-536,-1184,-779,-297,-62,162,-262
21947,2841,0,2023-03-01T18:51:48.292531,1697815,1410,1816,-536,-1184,-779,-297,-62,162,-262
21948,2842,0,2023-03-01T18:51:48.297600,1697820,1410,1816,-536,-1184,-779,-297,-62,162,-262
21949,2843,0,2023-03-01T18:51:48.302300,1697825,1410,1816,-536,-1184,-779,-297,-62,162,-262
21950,2844,0,2023-03-01T18:51:48.307322,1697829,1407,1814,-536,-1174,-768,-296,-62,162,-262
21951,2845,0,2023-03-01T18:51:48.314095,1697837,1407,1814,-536,-1174,-768,-296,-62,162,-262
21952,2846,0,2023-03-01T18:51:48.319068,1697842,1407,1814,-536,-1174,-768,-296,-62,162,-262
21953,2847,0,2023-03-01T18:51:48.324070,1697847,1411,1817,-537,-1173,-771,-298,-62,162,-262
21954,2848,0,2023-03-01T18:51:48.329895,1697852,1411,1817,-537,-1173,-771,-298,-62,162,-262
21955,2849,0,2023-03-01T18:51:48.334667,1697857,1411,1817,-537,-1173,-771,-298,-62,162,-262
21956,2850,0,2023-03-01T18:51:48.340002,1697862,1411,1817,-537,-1173,-771,-298,-62,162,-262
21957,2851,0,2023-03-01T18:51:48.345251,1697867,1410,1815,-532,-1174,-766,-294,-62,162,-262
21958,2852,0,2023-03-01T18:51:48.351606,1697874,1410,1815,-532,-1174,-766,-294,-62,162,-262
21959,2853,0,2023-03-01T18:51:48.356371,1697879,1410,1815,-532,-1174,-766,-294,-62,162,-262
21960,2854,0,2023-03-01T18:51:48.361784,1697884,1410,1815,-532,-1174,-766,-294,-62,162,-262
21961,2855,0,2023-03-01T18:51:48.366792,1697889,1411,1815,-540,-1175,-763,-305,-62,162,-262
21962,2856,0,2023-03-01T18:51:48.373124,1697896,1411,1815,-540,-1175,-763,-305,-62,162,-262
21963,2857,0,2023-03-01T18:51:48.377923,1697900,1411,1815,-540,-1175,-763,-305,-62,162,-262
21964,2858,0,2023-03-01T18:51:48.382270,1697905,1411,1815,-540,-1175,-763,-305,-62,162,-262
21965,2859,0,2023-03-01T18:51:48.387068,1697909,1412,1818,-539,-1173,-770,-305,-62,162,-262
21966,2860,0,2023-03-01T18:51:48.392895,1697915,1412,1818,-539,-1173,-770,-305,-62,162,-262
21967,2861,0,2023-03-01T18:51:48.398064,1697921,1412,1818,-539,-1173,-770,-305,-62,162,-262
21968,2862,0,2023-03-01T18:51:48.402824,1697926,1409,1814,-535,-1175,-766,-305,-62,162,-262
21969,2863,0,2023-03-01T18:51:48.408048,1697931,1409,1814,-535,-1175,-766,-305,-62,162,-262
21970,2864,0,2023-03-01T18:51:48.414153,1697936,1409,1814,-535,-1175,-766,-305,-62,162,-262
21971,2865,0,2023-03-01T18:51:48.419147,1697941,1409,1814,-535,-1175,-766,-305,-62,162,-262
21972,2866,0,2023-03-01T18:51:48.425416,1697947,1410,1815,-529,-1181,-776,-303,-57,155,-255
21973,2867,0,2023-03-01T18:51:48.431177,1697953,1410,1815,-529,-1181,-776,-303,-57,155,-255
21974,2868,0,2023-03-01T18:51:48.435591,1697958,1410,1815,-529,-1181,-776,-303,-57,155,-255
21975,2869,0,2023-03-01T18:51:48.440528,1697963,1410,1815,-529,-1181,-776,-303,-57,155,-255
21976,2870,0,2023-03-01T18:51:48.445067,1697968,1412,1817,-540,-1172,-786,-292,-57,155,-255
21977,2871,0,2023-03-01T18:51:48.451898,1697974,1412,1817,-540,-1172,-786,-292,-57,155,-255
21978,2872,0,2023-03-01T18:51:48.456714,1697979,1412,1817,-540,-1172,-786,-292,-57,155,-255
21979,2873,0,2023-03-01T18:51:48.461588,1697984,1412,1817,-540,-1172,-786,-292,-57,155,-255
21980,2874,0,2023-03-01T18:51:48.466415,1697989,1411,1816,-536,-1171,-776,-291,-57,155,-255
21981,2875,0,2023-03-01T18:51:48.472233,1697994,1411,1816,-536,-1171,-776,-291,-57,155,-255
21982,2876,0,2023-03-01T18:51:48.477709,1697999,1411,1816,-536,-1171,-776,-291,-57,155,-255
21983,2877,0,2023-03-01T18:51:48.482904,1698006,1413,1816,-537,-1185,-779,-298,-57,155,-255
21984,2878,0,2023-03-01T18:51:48.488492,1698011,1413,1816,-537,-1185,-779,-298,-57,155,-255
21985,2879,0,2023-03-01T18:51:48.493400,1698016,1413,1816,-537,-1185,-779,-298,-57,155,-255
21986,2880,0,2023-03-01T18:51:48.498373,1698021,1413,1816,-537,-1185,-779,-298,-57,155,-255
21987,2881,0,2023-03-01T18:51:48.504440,1698027,1410,1816,-537,-1192,-771,-304,-57,155,-255
21988,2882,0,2023-03-01T18:51:48.511098,1698033,1410,1816,-537,-1192,-771,-304,-57,155,-255
21989,2883,0,2023-03-01T18:51:48.516103,1698038,1410,1816,-537,-1192,-771,-304,-57,155,-255
21990,2884,0,2023-03-01T18:51:48.520630,1698043,1410,1816,-537,-1192,-771,-304,-57,155,-255
21991,2885,0,2023-03-01T18:51:48.525569,1698048,1410,1815,-537,-1188,-775,-295,-57,155,-255
21992,2886,0,2023-03-01T18:51:48.533275,1698056,1410,1815,-537,-1188,-775,-295,-57,155,-255
21993,2887,0,2023-03-01T18:51:48.538135,1698061,1410,1815,-537,-1188,-775,-295,-57,155,-255
21994,2888,0,2023-03-01T18:51:48.543112,1698065,1410,1815,-537,-1188,-775,-295,-57,155,-255
21995,2889,0,2023-03-01T18:51:48.547997,1698070,1412,1819,-538,-1195,-793,-296,-65,155,-251
21996,2890,0,2023-03-01T18:51:48.554447,1698077,1412,1819,-538,-1195,-793,-296,-65,155,-251
21997,2891,0,2023-03-01T18:51:48.560086,1698082,1412,1819,-538,-1195,-793,-296,-65,155,-251
21998,2892,0,2023-03-01T18:51:48.564837,1698087,1406,1817,-531,-1195,-795,-299,-65,155,-251
21999,2893,0,2023-03-01T18:51:48.571408,1698094,1406,1817,-531,-1195,-795,-299,-65,155,-251
22000,2894,0,2023-03-01T18:51:48.576189,1698099,1406,1817,-531,-1195,-795,-299,-65,155,-251
22001,2895,0,2023-03-01T18:51:48.580790,1698103,1406,1817,-531,-1195,-795,-299,-65,155,-251
22002,2896,0,2023-03-01T18:51:48.585975,1698108,1413,1819,-532,-1184,-786,-297,-65,155,-251
22003,2897,0,2023-03-01T18:51:48.592590,1698115,1413,1819,-532,-1184,-786,-297,-65,155,-251
22004,2898,0,2023-03-01T18:51:48.597866,1698120,1413,1819,-532,-1184,-786,-297,-65,155,-251
22005,2899,0,2023-03-01T18:51:48.602748,1698125,1413,1819,-532,-1184,-786,-297,-65,155,-251
22006,2900,0,2023-03-01T18:51:48.607276,1698129,1413,1819,-532,-1184,-786,-297,-65,155,-251
22007,2901,0,2023-03-01T18:51:48.613000,1698136,1413,1819,-532,-1184,-786,-297,-65,155,-251
22008,2902,0,2023-03-01T18:51:48.617914,1698141,1413,1819,-532,-1184,-786,-297,-65,155,-251
22009,2903,0,2023-03-01T18:51:48.622749,1698145,1413,1819,-532,-1184,-786,-297,-65,155,-251
22010,2904,0,2023-03-01T18:51:48.627834,1698150,1408,1813,-535,-1198,-806,-287,-65,155,-251
22011,2905,0,2023-03-01T18:51:48.634120,1698157,1408,1813,-535,-1198,-806,-287,-65,155,-251
22012,2906,0,2023-03-01T18:51:48.639668,1698161,1408,1813,-535,-1198,-806,-287,-65,155,-251
22013,2907,0,2023-03-01T18:51:48.645096,1698167,1413,1822,-537,-1193,-801,-297,-65,155,-251
22014,2908,0,2023-03-01T18:51:48.651682,1698174,1413,1822,-537,-1193,-801,-297,-65,155,-251
22015,2909,0,2023-03-01T18:51:48.656870,1698180,1413,1822,-537,-1193,-801,-297,-65,155,-251
22016,2910,0,2023-03-01T18:51:48.661530,1698184,1413,1822,-537,-1193,-801,-297,-65,155,-251
22017,2911,0,2023-03-01T18:51:48.666072,1698189,1407,1818,-546,-1192,-794,-298,-65,155,-251
22018,2912,0,2023-03-01T18:51:48.672507,1698195,1407,1818,-546,-1192,-794,-298,-65,155,-251
22019,2913,0,2023-03-01T18:51:48.677529,1698200,1407,1818,-546,-1192,-794,-298,-65,155,-251
22020,2914,0,2023-03-01T18:51:48.682477,1698205,1407,1818,-546,-1192,-794,-298,-65,155,-251
22021,2915,0,2023-03-01T18:51:48.687115,1698209,1411,1816,-536,-1194,-787,-297,-66,162,-260
22022,2916,0,2023-03-01T18:51:48.693630,1698215,1411,1816,-536,-1194,-787,-297,-66,162,-260
22023,2917,0,2023-03-01T18:51:48.698690,1698221,1411,1816,-536,-1194,-787,-297,-66,162,-260
22024,2918,0,2023-03-01T18:51:48.704122,1698227,1411,1819,-539,-1190,-793,-291,-66,162,-260
22025,2919,0,2023-03-01T18:51:48.710711,1698233,1411,1819,-539,-1190,-793,-291,-66,162,-260
22026,2920,0,2023-03-01T18:51:48.716362,1698239,1411,1819,-539,-1190,-793,-291,-66,162,-260
22027,2921,0,2023-03-01T18:51:48.720941,1698243,1411,1819,-539,-1190,-793,-291,-66,162,-260
22028,2922,0,2023-03-01T18:51:48.725538,1698248,1412,1812,-536,-1189,-789,-302,-66,162,-260
22029,2923,0,2023-03-01T18:51:48.732689,1698255,1412,1812,-536,-1189,-789,-302,-66,162,-260
22030,2924,0,2023-03-01T18:51:48.737560,1698260,1412,1812,-536,-1189,-789,-302,-66,162,-260
22031,2925,0,2023-03-01T18:51:48.742334,1698265,1412,1812,-536,-1189,-789,-302,-66,162,-260
22032,2926,0,2023-03-01T18:51:48.747388,1698270,1414,1816,-541,-1190,-799,-300,-66,162,-260
22033,2927,0,2023-03-01T18:51:48.754597,1698277,1414,1816,-541,-1190,-799,-300,-66,162,-260
22034,2928,0,2023-03-01T18:51:48.759645,1698282,1414,1816,-541,-1190,-799,-300,-66,162,-260
22035,2929,0,2023-03-01T18:51:48.764675,1698287,1413,1815,-539,-1179,-791,-301,-66,162,-260
22036,2930,0,2023-03-01T18:51:48.771505,1698294,1413,1815,-539,-1179,-791,-301,-66,162,-260
22037,2931,0,2023-03-01T18:51:48.776735,1698298,1413,1815,-539,-1179,-791,-301,-66,162,-260
22038,2932,0,2023-03-01T18:51:48.782057,1698305,1413,1815,-539,-1179,-791,-301,-66,162,-260
22039,2933,0,2023-03-01T18:51:48.787088,1698310,1409,1814,-538,-1188,-800,-301,-66,162,-260
22040,2934,0,2023-03-01T18:51:48.793418,1698316,1409,1814,-538,-1188,-800,-301,-66,162,-260
22041,2935,0,2023-03-01T18:51:48.798559,1698321,1409,1814,-538,-1188,-800,-301,-66,162,-260
22042,2936,0,2023-03-01T18:51:48.803541,1698326,1409,1814,-538,-1188,-800,-301,-66,162,-260
22043,2937,0,2023-03-01T18:51:48.808504,1698331,1414,1818,-537,-1199,-799,-302,-61,163,-259
22044,2938,0,2023-03-01T18:51:48.815099,1698337,1414,1818,-537,-1199,-799,-302,-61,163,-259
22045,2939,0,2023-03-01T18:51:48.820152,1698342,1414,1818,-537,-1199,-799,-302,-61,163,-259
22046,2940,0,2023-03-01T18:51:48.825134,1698348,1410,1813,-534,-1199,-791,-296,-61,163,-259
22047,2941,0,2023-03-01T18:51:48.831668,1698354,1410,1813,-534,-1199,-791,-296,-61,163,-259
22048,2942,0,2023-03-01T18:51:48.836217,1698359,1410,1813,-534,-1199,-791,-296,-61,163,-259
22049,2943,0,2023-03-01T18:51:48.840943,1698364,1410,1813,-534,-1199,-791,-296,-61,163,-259
22050,2944,0,2023-03-01T18:51:48.845852,1698368,1411,1817,-540,-1194,-783,-296,-61,163,-259
22051,2945,0,2023-03-01T18:51:48.852145,1698374,1411,1817,-540,-1194,-783,-296,-61,163,-259
22052,2946,0,2023-03-01T18:51:48.857115,1698379,1411,1817,-540,-1194,-783,-296,-61,163,-259
22053,2947,0,2023-03-01T18:51:48.862207,1698384,1411,1817,-540,-1194,-783,-296,-61,163,-259
22054,2948,0,2023-03-01T18:51:48.868068,1698391,1411,1817,-540,-1194,-783,-296,-61,163,-259
22055,2949,0,2023-03-01T18:51:48.874015,1698397,1411,1817,-540,-1194,-783,-296,-61,163,-259
22056,2950,0,2023-03-01T18:51:48.878777,1698401,1411,1817,-540,-1194,-783,-296,-61,163,-259
22057,2951,0,2023-03-01T18:51:48.883537,1698406,1411,1815,-541,-1196,-803,-296,-61,163,-259
22058,2952,0,2023-03-01T18:51:48.888913,1698411,1411,1815,-541,-1196,-803,-296,-61,163,-259
22059,2953,0,2023-03-01T18:51:48.894837,1698417,1411,1815,-541,-1196,-803,-296,-61,163,-259
22060,2954,0,2023-03-01T18:51:48.899866,1698422,1411,1815,-541,-1196,-803,-296,-61,163,-259
22061,2955,0,2023-03-01T18:51:48.904837,1698427,1413,1818,-542,-1191,-795,-303,-61,163,-259
22062,2956,0,2023-03-01T18:51:48.910158,1698433,1413,1818,-542,-1191,-795,-303,-61,163,-259
22063,2957,0,2023-03-01T18:51:48.914981,1698438,1413,1818,-542,-1191,-795,-303,-61,163,-259
22064,2958,0,2023-03-01T18:51:48.920000,1698443,1413,1818,-542,-1191,-795,-303,-61,163,-259
22065,2959,0,2023-03-01T18:51:48.924848,1698447,1411,1817,-536,-1203,-796,-302,-61,163,-259
22066,2960,0,2023-03-01T18:51:48.931718,1698454,1411,1817,-536,-1203,-796,-302,-61,163,-259
22067,2961,0,2023-03-01T18:51:48.936317,1698459,1411,1817,-536,-1203,-796,-302,-61,163,-259
22068,2962,0,2023-03-01T18:51:48.941043,1698463,1411,1817,-536,-1203,-796,-302,-61,163,-259
22069,2963,0,2023-03-01T18:51:48.945828,1698468,1408,1815,-530,-1193,-803,-296,-61,155,-257
22070,2964,0,2023-03-01T18:51:48.950328,1698472,1408,1815,-530,-1193,-803,-296,-61,155,-257
22071,2965,0,2023-03-01T18:51:48.955013,1698478,1408,1815,-530,-1193,-803,-296,-61,155,-257
22072,2966,0,2023-03-01T18:51:48.959659,1698482,1408,1815,-530,-1193,-803,-296,-61,155,-257
22073,2967,0,2023-03-01T18:51:48.964263,1698487,1413,1815,-537,-1195,-796,-301,-61,155,-257
22074,2968,0,2023-03-01T18:51:48.971185,1698493,1413,1815,-537,-1195,-796,-301,-61,155,-257
22075,2969,0,2023-03-01T18:51:48.975981,1698498,1413,1815,-537,-1195,-796,-301,-61,155,-257
22076,2970,0,2023-03-01T18:51:48.980905,1698503,1413,1815,-537,-1195,-796,-301,-61,155,-257
22077,2971,0,2023-03-01T18:51:48.985577,1698508,1408,1815,-541,-1194,-792,-298,-61,155,-257
22078,2972,0,2023-03-01T18:51:48.991555,1698513,1408,1815,-541,-1194,-792,-298,-61,155,-257
22079,2973,0,2023-03-01T18:51:48.996597,1698520,1408,1815,-541,-1194,-792,-298,-61,155,-257
22080,2974,0,2023-03-01T18:51:49.002194,1698525,1408,1815,-541,-1194,-792,-298,-61,155,-257
22081,2975,0,2023-03-01T18:51:49.007059,1698530,1413,1816,-539,-1200,-786,-294,-61,155,-257
22082,2976,0,2023-03-01T18:51:49.013464,1698536,1413,1816,-539,-1200,-786,-294,-61,155,-257
22083,2977,0,2023-03-01T18:51:49.018010,1698541,1413,1816,-539,-1200,-786,-294,-61,155,-257
22084,2978,0,2023-03-01T18:51:49.022815,1698545,1413,1816,-539,-1200,-786,-294,-61,155,-257
22085,2979,0,2023-03-01T18:51:49.028058,1698550,1411,1818,-539,-1195,-790,-300,-61,155,-257
22086,2980,0,2023-03-01T18:51:49.034625,1698556,1411,1818,-539,-1195,-790,-300,-61,155,-257
22087,2981,0,2023-03-01T18:51:49.040038,1698563,1411,1818,-539,-1195,-790,-300,-61,155,-257
22088,2982,0,2023-03-01T18:51:49.044812,1698568,1413,1815,-537,-1191,-799,-297,-61,155,-257
22089,2983,0,2023-03-01T18:51:49.049423,1698572,1413,1815,-537,-1191,-799,-297,-61,155,-257
22090,2984,0,2023-03-01T18:51:49.054637,1698577,1413,1815,-537,-1191,-799,-297,-61,155,-257
22091,2985,0,2023-03-01T18:51:49.059825,1698582,1413,1815,-537,-1191,-799,-297,-61,155,-257
22092,2986,0,2023-03-01T18:51:49.065012,1698587,1415,1817,-532,-1182,-796,-298,-68,152,-256
22093,2987,0,2023-03-01T18:51:49.071364,1698593,1415,1817,-532,-1182,-796,-298,-68,152,-256
22094,2988,0,2023-03-01T18:51:49.076217,1698598,1415,1817,-532,-1182,-796,-298,-68,152,-256
22095,2989,0,2023-03-01T18:51:49.081151,1698604,1415,1817,-532,-1182,-796,-298,-68,152,-256
22096,2990,0,2023-03-01T18:51:49.085932,1698609,1414,1818,-539,-1194,-796,-299,-68,152,-256
22097,2991,0,2023-03-01T18:51:49.092099,1698615,1414,1818,-539,-1194,-796,-299,-68,152,-256
22098,2992,0,2023-03-01T18:51:49.097200,1698620,1414,1818,-539,-1194,-796,-299,-68,152,-256
22099,2993,0,2023-03-01T18:51:49.102142,1698625,1414,1818,-539,-1194,-796,-299,-68,152,-256
22100,2994,0,2023-03-01T18:51:49.107392,1698629,1411,1811,-538,-1193,-798,-301,-68,152,-256
22101,2995,0,2023-03-01T18:51:49.112223,1698634,1411,1811,-538,-1193,-798,-301,-68,152,-256
22102,2996,0,2023-03-01T18:51:49.116844,1698639,1411,1811,-538,-1193,-798,-301,-68,152,-256
22103,2997,0,2023-03-01T18:51:49.122179,1698644,1411,1811,-538,-1193,-798,-301,-68,152,-256
22104,2998,0,2023-03-01T18:51:49.127506,1698650,1416,1817,-537,-1188,-803,-302,-68,152,-256
22105,2999,0,2023-03-01T18:51:49.133936,1698657,1416,1817,-537,-1188,-803,-302,-68,152,-256
22106,3000,0,2023-03-01T18:51:49.138889,1698661,1416,1817,-537,-1188,-803,-302,-68,152,-256
22107,3001,0,2023-03-01T18:51:49.143917,1698666,1411,1812,-541,-1194,-807,-293,-68,152,-256
22108,3002,0,2023-03-01T18:51:49.149678,1698672,1411,1812,-541,-1194,-807,-293,-68,152,-256
22109,3003,0,2023-03-01T18:51:49.155172,1698677,1411,1812,-541,-1194,-807,-293,-68,152,-256
22110,3004,0,2023-03-01T18:51:49.159991,1698682,1411,1812,-541,-1194,-807,-293,-68,152,-256
22111,3005,0,2023-03-01T18:51:49.164889,1698688,1412,1816,-537,-1203,-794,-300,-68,152,-256
22112,3006,0,2023-03-01T18:51:49.171496,1698694,1412,1816,-537,-1203,-794,-300,-68,152,-256
22113,3007,0,2023-03-01T18:51:49.176546,1698699,1412,1816,-537,-1203,-794,-300,-68,152,-256
22114,3008,0,2023-03-01T18:51:49.181591,1698704,1412,1816,-537,-1203,-794,-300,-68,152,-256
22115,3009,0,2023-03-01T18:51:49.186553,1698709,1411,1818,-538,-1200,-792,-298,-63,155,-259
22116,3010,0,2023-03-01T18:51:49.193994,1698716,1411,1818,-538,-1200,-792,-298,-63,155,-259
22117,3011,0,2023-03-01T18:51:49.198770,1698721,1411,1818,-538,-1200,-792,-298,-63,155,-259
22118,3012,0,2023-03-01T18:51:49.203648,1698726,1411,1818,-538,-1200,-792,-298,-63,155,-259
22119,3013,0,2023-03-01T18:51:49.209021,1698732,1411,1813,-529,-1194,-801,-297,-63,155,-259
22120,3014,0,2023-03-01T18:51:49.216154,1698739,1411,1813,-529,-1194,-801,-297,-63,155,-259
22121,3015,0,2023-03-01T18:51:49.222107,1698744,1411,1813,-529,-1194,-801,-297,-63,155,-259
22122,3016,0,2023-03-01T18:51:49.227031,1698750,1411,1818,-536,-1188,-801,-306,-63,155,-259
22123,3017,0,2023-03-01T18:51:49.234227,1698756,1411,1818,-536,-1188,-801,-306,-63,155,-259
22124,3018,0,2023-03-01T18:51:49.239188,1698761,1411,1818,-536,-1188,-801,-306,-63,155,-259
22125,3019,0,2023-03-01T18:51:49.244206,1698766,1409,1816,-540,-1187,-799,-300,-63,155,-259
22126,3020,0,2023-03-01T18:51:49.250777,1698772,1409,1816,-540,-1187,-799,-300,-63,155,-259
22127,3021,0,2023-03-01T18:51:49.256695,1698779,1409,1816,-540,-1187,-799,-300,-63,155,-259
22128,3022,0,2023-03-01T18:51:49.262020,1698785,1409,1816,-540,-1187,-799,-300,-63,155,-259
22129,3023,0,2023-03-01T18:51:49.266994,1698789,1409,1817,-542,-1191,-798,-293,-63,155,-259
22130,3024,0,2023-03-01T18:51:49.272599,1698795,1409,1817,-542,-1191,-798,-293,-63,155,-259
22131,3025,0,2023-03-01T18:51:49.277584,1698800,1409,1817,-542,-1191,-798,-293,-63,155,-259
22132,3026,0,2023-03-01T18:51:49.282329,1698804,1409,1817,-542,-1191,-798,-293,-63,155,-259
22133,3027,0,2023-03-01T18:51:49.287135,1698809,1411,1818,-538,-1196,-802,-303,-63,155,-259
22134,3028,0,2023-03-01T18:51:49.295295,1698818,1411,1818,-538,-1196,-802,-303,-63,155,-259
22135,3029,0,2023-03-01T18:51:49.301162,1698824,1411,1818,-538,-1196,-802,-303,-63,155,-259
22136,3030,0,2023-03-01T18:51:49.306659,1698829,1413,1812,-545,-1195,-797,-296,-63,155,-259
22137,3031,0,2023-03-01T18:51:49.313848,1698836,1413,1812,-545,-1195,-797,-296,-63,155,-259
22138,3032,0,2023-03-01T18:51:49.319145,1698841,1413,1812,-545,-1195,-797,-296,-63,155,-259
22139,3033,0,2023-03-01T18:51:49.324025,1698846,1413,1812,-545,-1195,-797,-296,-63,155,-259
22140,3034,0,2023-03-01T18:51:49.329500,1698852,1410,1817,-536,-1201,-798,-299,-61,161,-257
22141,3035,0,2023-03-01T18:51:49.335439,1698857,1410,1817,-536,-1201,-798,-299,-61,161,-257
22142,3036,0,2023-03-01T18:51:49.340586,1698863,1410,1817,-536,-1201,-798,-299,-61,161,-257
22143,3037,0,2023-03-01T18:51:49.345782,1698868,1416,1818,-540,-1194,-802,-298,-61,161,-257
22144,3038,0,2023-03-01T18:51:49.352767,1698875,1416,1818,-540,-1194,-802,-298,-61,161,-257
22145,3039,0,2023-03-01T18:51:49.357656,1698880,1416,1818,-540,-1194,-802,-298,-61,161,-257
22146,3040,0,2023-03-01T18:51:49.362420,1698885,1416,1818,-540,-1194,-802,-298,-61,161,-257
22147,3041,0,2023-03-01T18:51:49.367627,1698890,1409,1813,-537,-1195,-794,-293,-61,161,-257
22148,3042,0,2023-03-01T18:51:49.374220,1698896,1409,1813,-537,-1195,-794,-293,-61,161,-257
22149,3043,0,2023-03-01T18:51:49.379198,1698902,1409,1813,-537,-1195,-794,-293,-61,161,-257
22150,3044,0,2023-03-01T18:51:49.384169,1698907,1413,1817,-542,-1198,-796,-296,-61,161,-257
22151,3045,0,2023-03-01T18:51:49.389911,1698913,1413,1817,-542,-1198,-796,-296,-61,161,-257
22152,3046,0,2023-03-01T18:51:49.394667,1698917,1413,1817,-542,-1198,-796,-296,-61,161,-257
22153,3047,0,2023-03-01T18:51:49.399978,1698922,1413,1817,-542,-1198,-796,-296,-61,161,-257
22154,3048,0,2023-03-01T18:51:49.405863,1698927,1410,1814,-541,-1197,-781,-297,-61,161,-257
22155,3049,0,2023-03-01T18:51:49.411453,1698934,1410,1814,-541,-1197,-781,-297,-61,161,-257
22156,3050,0,2023-03-01T18:51:49.416409,1698938,1410,1814,-541,-1197,-781,-297,-61,161,-257
22157,3051,0,2023-03-01T18:51:49.421960,1698944,1410,1814,-541,-1197,-781,-297,-61,161,-257
22158,3052,0,2023-03-01T18:51:49.426614,1698950,1409,1812,-543,-1201,-786,-297,-61,161,-257
22159,3053,0,2023-03-01T18:51:49.433223,1698956,1409,1812,-543,-1201,-786,-297,-61,161,-257
22160,3054,0,2023-03-01T18:51:49.437956,1698960,1409,1812,-543,-1201,-786,-297,-61,161,-257
22161,3055,0,2023-03-01T18:51:49.442508,1698965,1409,1812,-543,-1201,-786,-297,-61,161,-257
22162,3056,0,2023-03-01T18:51:49.447362,1698970,1412,1817,-538,-1196,-795,-305,-56,156,-266
22163,3057,0,2023-03-01T18:51:49.452612,1698975,1412,1817,-538,-1196,-795,-305,-56,156,-266
22164,3058,0,2023-03-01T18:51:49.457523,1698980,1412,1817,-538,-1196,-795,-305,-56,156,-266
22165,3059,0,2023-03-01T18:51:49.462863,1698985,1412,1817,-538,-1196,-795,-305,-56,156,-266
22166,3060,0,2023-03-01T18:51:49.467870,1698991,1408,1810,-541,-1194,-791,-300,-56,156,-266
22167,3061,0,2023-03-01T18:51:49.474208,1698997,1408,1810,-541,-1194,-791,-300,-56,156,-266
22168,3062,0,2023-03-01T18:51:49.479066,1699002,1408,1810,-541,-1194,-791,-300,-56,156,-266
22169,3063,0,2023-03-01T18:51:49.484019,1699006,1408,1810,-541,-1194,-791,-300,-56,156,-266
22170,3064,0,2023-03-01T18:51:49.490095,1699012,1411,1811,-540,-1189,-786,-300,-56,156,-266
22171,3065,0,2023-03-01T18:51:49.496197,1699018,1411,1811,-540,-1189,-786,-300,-56,156,-266
22172,3066,0,2023-03-01T18:51:49.501493,1699023,1411,1811,-540,-1189,-786,-300,-56,156,-266
22173,3067,0,2023-03-01T18:51:49.506225,1699028,1413,1815,-536,-1190,-794,-302,-56,156,-266
22174,3068,0,2023-03-01T18:51:49.513111,1699036,1413,1815,-536,-1190,-794,-302,-56,156,-266
22175,3069,0,2023-03-01T18:51:49.519642,1699042,1413,1815,-536,-1190,-794,-302,-56,156,-266
22176,3070,0,2023-03-01T18:51:49.524384,1699047,1410,1815,-536,-1193,-802,-297,-56,156,-266
22177,3071,0,2023-03-01T18:51:49.530416,1699052,1410,1815,-536,-1193,-802,-297,-56,156,-266
22178,3072,0,2023-03-01T18:51:49.535852,1699058,1410,1815,-536,-1193,-802,-297,-56,156,-266
22179,3073,0,2023-03-01T18:51:49.541694,1699063,1410,1815,-536,-1193,-802,-297,-56,156,-266
22180,3074,0,2023-03-01T18:51:49.546732,1699069,1412,1821,-537,-1198,-797,-296,-56,156,-266
22181,3075,0,2023-03-01T18:51:49.553122,1699076,1412,1821,-537,-1198,-797,-296,-56,156,-266
22182,3076,0,2023-03-01T18:51:49.558021,1699081,1412,1821,-537,-1198,-797,-296,-56,156,-266
22183,3077,0,2023-03-01T18:51:49.562384,1699085,1412,1821,-537,-1198,-797,-296,-56,156,-266
22184,3078,0,2023-03-01T18:51:49.567439,1699090,1411,1812,-538,-1195,-792,-304,-56,156,-266
22185,3079,0,2023-03-01T18:51:49.574290,1699096,1411,1812,-538,-1195,-792,-304,-56,156,-266
22186,3080,0,2023-03-01T18:51:49.579334,1699102,1411,1812,-538,-1195,-792,-304,-56,156,-266
22187,3081,0,2023-03-01T18:51:49.584358,1699106,1411,1812,-538,-1195,-792,-304,-56,156,-266
22188,3082,0,2023-03-01T18:51:49.589941,1699112,1409,1811,-539,-1195,-789,-301,-61,153,-253
22189,3083,0,2023-03-01T18:51:49.596366,1699119,1409,1811,-539,-1195,-789,-301,-61,153,-253
22190,3084,0,2023-03-01T18:51:49.601333,1699124,1409,1811,-539,-1195,-789,-301,-61,153,-253
22191,3085,0,2023-03-01T18:51:49.606423,1699129,1414,1817,-542,-1195,-792,-300,-61,153,-253
22192,3086,0,2023-03-01T18:51:49.612690,1699135,1414,1817,-542,-1195,-792,-300,-61,153,-253
22193,3087,0,2023-03-01T18:51:49.617718,1699140,1414,1817,-542,-1195,-792,-300,-61,153,-253
22194,3088,0,2023-03-01T18:51:49.622523,1699145,1414,1817,-542,-1195,-792,-300,-61,153,-253
22195,3089,0,2023-03-01T18:51:49.629620,1699152,1412,1813,-538,-1189,-795,-301,-61,153,-253
22196,3090,0,2023-03-01T18:51:49.636005,1699159,1412,1813,-538,-1189,-795,-301,-61,153,-253
22197,3091,0,2023-03-01T18:51:49.641108,1699164,1412,1813,-538,-1189,-795,-301,-61,153,-253
22198,3092,0,2023-03-01T18:51:49.645945,1699169,1411,1816,-541,-1190,-787,-305,-61,153,-253
22199,3093,0,2023-03-01T18:51:49.652728,1699175,1411,1816,-541,-1190,-787,-305,-61,153,-253
22200,3094,0,2023-03-01T18:51:49.657639,1699180,1411,1816,-541,-1190,-787,-305,-61,153,-253
22201,3095,0,2023-03-01T18:51:49.662332,1699185,1411,1816,-541,-1190,-787,-305,-61,153,-253
22202,3096,0,2023-03-01T18:51:49.667244,1699189,1414,1816,-548,-1195,-792,-300,-61,153,-253
22203,3097,0,2023-03-01T18:51:49.673156,1699195,1414,1816,-548,-1195,-792,-300,-61,153,-253
22204,3098,0,2023-03-01T18:51:49.678210,1699201,1414,1816,-548,-1195,-792,-300,-61,153,-253
22205,3099,0,2023-03-01T18:51:49.683031,1699206,1414,1816,-548,-1195,-792,-300,-61,153,-253
22206,3100,0,2023-03-01T18:51:49.688063,1699211,1412,1810,-538,-1197,-797,-302,-61,153,-253
22207,3101,0,2023-03-01T18:51:49.694967,1699217,1412,1810,-538,-1197,-797,-302,-61,153,-253
22208,3102,0,2023-03-01T18:51:49.699636,1699222,1412,1810,-538,-1197,-797,-302,-61,153,-253
22209,3103,0,2023-03-01T18:51:49.704697,1699227,1412,1817,-541,-1192,-789,-299,-61,153,-253
22210,3104,0,2023-03-01T18:51:49.709299,1699232,1412,1817,-541,-1192,-789,-299,-59,153,-259
22211,3105,0,2023-03-01T18:51:49.714203,1699236,1412,1817,-541,-1192,-789,-299,-59,153,-259
22212,3106,0,2023-03-01T18:51:49.719586,1699241,1412,1817,-541,-1192,-789,-299,-59,153,-259
22213,3107,0,2023-03-01T18:51:49.724440,1699247,1412,1817,-541,-1192,-789,-299,-59,153,-259
22214,3108,0,2023-03-01T18:51:49.730377,1699253,1412,1818,-535,-1193,-787,-295,-59,153,-259
22215,3109,0,2023-03-01T18:51:49.736800,1699259,1412,1818,-535,-1193,-787,-295,-59,153,-259
22216,3110,0,2023-03-01T18:51:49.741879,1699264,1412,1818,-535,-1193,-787,-295,-59,153,-259
22217,3111,0,2023-03-01T18:51:49.747599,1699270,1414,1816,-545,-1196,-808,-297,-59,153,-259
22218,3112,0,2023-03-01T18:51:49.754567,1699277,1414,1816,-545,-1196,-808,-297,-59,153,-259
22219,3113,0,2023-03-01T18:51:49.759746,1699282,1414,1816,-545,-1196,-808,-297,-59,153,-259
22220,3114,0,2023-03-01T18:51:49.765021,1699288,1413,1818,-541,-1196,-798,-303,-59,153,-259
22221,3115,0,2023-03-01T18:51:49.771140,1699294,1413,1818,-541,-1196,-798,-303,-59,153,-259
22222,3116,0,2023-03-01T18:51:49.777000,1699299,1413,1818,-541,-1196,-798,-303,-59,153,-259
22223,3117,0,2023-03-01T18:51:49.781606,1699304,1413,1818,-541,-1196,-798,-303,-59,153,-259
22224,3118,0,2023-03-01T18:51:49.786689,1699309,1410,1813,-539,-1188,-783,-303,-59,153,-259
22225,3119,0,2023-03-01T18:51:49.793819,1699316,1410,1813,-539,-1188,-783,-303,-59,153,-259
22226,3120,0,2023-03-01T18:51:49.798706,1699321,1410,1813,-539,-1188,-783,-303,-59,153,-259
22227,3121,0,2023-03-01T18:51:49.803540,1699326,1410,1813,-539,-1188,-783,-303,-59,153,-259
22228,3122,0,2023-03-01T18:51:49.808360,1699331,1413,1816,-546,-1202,-800,-292,-59,153,-259
22229,3123,0,2023-03-01T18:51:49.814466,1699337,1413,1816,-546,-1202,-800,-292,-59,153,-259
22230,3124,0,2023-03-01T18:51:49.819823,1699342,1413,1816,-546,-1202,-800,-292,-59,153,-259
22231,3125,0,2023-03-01T18:51:49.825130,1699347,1412,1816,-545,-1201,-805,-290,-59,153,-259
22232,3126,0,2023-03-01T18:51:49.831419,1699354,1412,1816,-545,-1201,-805,-290,-61,155,-255
22233,3127,0,2023-03-01T18:51:49.836615,1699359,1412,1816,-545,-1201,-805,-290,-61,155,-255
22234,3128,0,2023-03-01T18:51:49.841333,1699364,1412,1816,-545,-1201,-805,-290,-61,155,-255
22235,3129,0,2023-03-01T18:51:49.846489,1699368,1413,1816,-533,-1192,-784,-296,-61,155,-255
22236,3130,0,2023-03-01T18:51:49.853408,1699376,1413,1816,-533,-1192,-784,-296,-61,155,-255
22237,3131,0,2023-03-01T18:51:49.858254,1699381,1413,1816,-533,-1192,-784,-296,-61,155,-255
22238,3132,0,2023-03-01T18:51:49.863360,1699386,1413,1816,-533,-1192,-784,-296,-61,155,-255
22239,3133,0,2023-03-01T18:51:49.868314,1699390,1411,1819,-542,-1186,-788,-303,-61,155,-255
22240,3134,0,2023-03-01T18:51:49.875337,1699398,1411,1819,-542,-1186,-788,-303,-61,155,-255
22241,3135,0,2023-03-01T18:51:49.880330,1699403,1411,1819,-542,-1186,-788,-303,-61,155,-255
22242,3136,0,2023-03-01T18:51:49.884815,1699407,1413,1815,-541,-1198,-805,-293,-61,155,-255
22243,3137,0,2023-03-01T18:51:49.891056,1699414,1413,1815,-541,-1198,-805,-293,-61,155,-255
22244,3138,0,2023-03-01T18:51:49.895606,1699419,1413,1815,-541,-1198,-805,-293,-61,155,-255
22245,3139,0,2023-03-01T18:51:49.900850,1699423,1413,1815,-541,-1198,-805,-293,-61,155,-255
22246,3140,0,2023-03-01T18:51:49.906003,1699428,1413,1811,-534,-1201,-803,-290,-61,155,-255
22247,3141,0,2023-03-01T18:51:49.913233,1699436,1413,1811,-534,-1201,-803,-290,-61,155,-255
22248,3142,0,2023-03-01T18:51:49.918031,1699441,1413,1811,-534,-1201,-803,-290,-61,155,-255
22249,3143,0,2023-03-01T18:51:49.922573,1699445,1413,1811,-534,-1201,-803,-290,-61,155,-255
22250,3144,0,2023-03-01T18:51:49.927703,1699450,1414,1816,-543,-1194,-799,-300,-61,155,-255
22251,3145,0,2023-03-01T18:51:49.934367,1699457,1414,1816,-543,-1194,-799,-300,-61,155,-255
22252,3146,0,2023-03-01T18:51:49.938964,1699462,1414,1816,-543,-1194,-799,-300,-61,155,-255
22253,3147,0,2023-03-01T18:51:49.943894,1699467,1414,1816,-543,-1194,-799,-300,-61,155,-255
22254,3148,0,2023-03-01T18:51:49.948493,1699471,1410,1816,-539,-1200,-799,-297,-61,155,-255
22255,3149,0,2023-03-01T18:51:49.955873,1699478,1410,1816,-539,-1200,-799,-297,-61,155,-255
22256,3150,0,2023-03-01T18:51:49.961048,1699483,1410,1816,-539,-1200,-799,-297,-61,155,-255
22257,3151,0,2023-03-01T18:51:49.966040,1699488,1411,1817,-533,-1197,-792,-293,-56,150,-254
22258,3152,0,2023-03-01T18:51:49.972406,1699495,1411,1817,-533,-1197,-792,-293,-56,150,-254
22259,3153,0,2023-03-01T18:51:49.977333,1699500,1411,1817,-533,-1197,-792,-293,-56,150,-254
22260,3154,0,2023-03-01T18:51:49.982361,1699505,1411,1817,-533,-1197,-792,-293,-56,150,-254
22261,3155,0,2023-03-01T18:51:49.987785,1699511,1412,1814,-538,-1193,-789,-299,-56,150,-254
22262,3156,0,2023-03-01T18:51:49.993665,1699516,1412,1814,-538,-1193,-789,-299,-56,150,-254
22263,3157,0,2023-03-01T18:51:49.999097,1699521,1412,1814,-538,-1193,-789,-299,-56,150,-254
22264,3158,0,2023-03-01T18:51:50.004121,1699526,1412,1814,-538,-1193,-789,-299,-56,150,-254
22265,3159,0,2023-03-01T18:51:50.010040,1699532,1412,1812,-540,-1185,-796,-297,-56,150,-254
22266,3160,0,2023-03-01T18:51:50.016409,1699538,1412,1812,-540,-1185,-796,-297,-56,150,-254
22267,3161,0,2023-03-01T18:51:50.021448,1699544,1412,1812,-540,-1185,-796,-297,-56,150,-254
22268,3162,0,2023-03-01T18:51:50.026195,1699549,1415,1819,-546,-1189,-798,-299,-56,150,-254
22269,3163,0,2023-03-01T18:51:50.032364,1699555,1415,1819,-546,-1189,-798,-299,-56,150,-254
22270,3164,0,2023-03-01T18:51:50.037375,1699560,1415,1819,-546,-1189,-798,-299,-56,150,-254
22271,3165,0,2023-03-01T18:51:50.042227,1699565,1415,1819,-546,-1189,-798,-299,-56,150,-254
22272,3166,0,2023-03-01T18:51:50.047051,1699570,1408,1809,-548,-1187,-790,-295,-56,150,-254
22273,3167,0,2023-03-01T18:51:50.053724,1699576,1408,1809,-548,-1187,-790,-295,-56,150,-254
22274,3168,0,2023-03-01T18:51:50.058555,1699581,1408,1809,-548,-1187,-790,-295,-56,150,-254
22275,3169,0,2023-03-01T18:51:50.064997,1699588,1414,1810,-544,-1187,-783,-296,-56,150,-254
22276,3170,0,2023-03-01T18:51:50.071349,1699594,1414,1810,-544,-1187,-783,-296,-56,150,-254
22277,3171,0,2023-03-01T18:51:50.076881,1699599,1414,1810,-544,-1187,-783,-296,-56,150,-254
22278,3172,0,2023-03-01T18:51:50.081795,1699604,1414,1810,-544,-1187,-783,-296,-56,150,-254
22279,3173,0,2023-03-01T18:51:50.086604,1699609,1411,1817,-540,-1189,-789,-300,-70,156,-258
22280,3174,0,2023-03-01T18:51:50.093298,1699615,1411,1817,-540,-1189,-789,-300,-70,156,-258
22281,3175,0,2023-03-01T18:51:50.098275,1699620,1411,1817,-540,-1189,-789,-300,-70,156,-258
22282,3176,0,2023-03-01T18:51:50.103032,1699625,1411,1817,-540,-1189,-789,-300,-70,156,-258
22283,3177,0,2023-03-01T18:51:50.107758,1699631,1408,1812,-536,-1195,-782,-294,-70,156,-258
22284,3178,0,2023-03-01T18:51:50.113883,1699637,1408,1812,-536,-1195,-782,-294,-70,156,-258
22285,3179,0,2023-03-01T18:51:50.118658,1699641,1408,1812,-536,-1195,-782,-294,-70,156,-258
22286,3180,0,2023-03-01T18:51:50.123637,1699646,1408,1812,-536,-1195,-782,-294,-70,156,-258
22287,3181,0,2023-03-01T18:51:50.128311,1699651,1412,1815,-550,-1184,-783,-299,-70,156,-258
22288,3182,0,2023-03-01T18:51:50.134708,1699657,1412,1815,-550,-1184,-783,-299,-70,156,-258
22289,3183,0,2023-03-01T18:51:50.139485,1699662,1412,1815,-550,-1184,-783,-299,-70,156,-258
22290,3184,0,2023-03-01T18:51:50.144503,1699666,1412,1815,-550,-1184,-783,-299,-70,156,-258
22291,3185,0,2023-03-01T18:51:50.149570,1699673,1409,1812,-545,-1177,-779,-306,-70,156,-258
22292,3186,0,2023-03-01T18:51:50.155396,1699678,1409,1812,-545,-1177,-779,-306,-70,156,-258
22293,3187,0,2023-03-01T18:51:50.160270,1699683,1409,1812,-545,-1177,-779,-306,-70,156,-258
22294,3188,0,2023-03-01T18:51:50.165306,1699688,1409,1813,-540,-1177,-772,-305,-70,156,-258
22295,3189,0,2023-03-01T18:51:50.171375,1699694,1409,1813,-540,-1177,-772,-305,-70,156,-258
22296,3190,0,2023-03-01T18:51:50.176254,1699699,1409,1813,-540,-1177,-772,-305,-70,156,-258
22297,3191,0,2023-03-01T18:51:50.180836,1699703,1409,1813,-540,-1177,-772,-305,-70,156,-258
22298,3192,0,2023-03-01T18:51:50.185861,1699708,1411,1814,-546,-1172,-779,-302,-70,156,-258
22299,3193,0,2023-03-01T18:51:50.192449,1699715,1411,1814,-546,-1172,-779,-302,-70,156,-258
22300,3194,0,2023-03-01T18:51:50.197424,1699720,1411,1814,-546,-1172,-779,-302,-70,156,-258
22301,3195,0,2023-03-01T18:51:50.202379,1699725,1411,1814,-546,-1172,-779,-302,-70,156,-258
22302,3196,0,2023-03-01T18:51:50.207483,1699730,1411,1814,-540,-1176,-782,-296,-70,156,-258
22303,3197,0,2023-03-01T18:51:50.214032,1699737,1411,1814,-540,-1176,-782,-296,-70,156,-258
22304,3198,0,2023-03-01T18:51:50.218764,1699741,1411,1814,-540,-1176,-782,-296,-70,156,-258
22305,3199,0,2023-03-01T18:51:50.223755,1699746,1411,1814,-540,-1176,-782,-296,-70,156,-258
22306,3200,0,2023-03-01T18:51:50.228467,1699751,1417,1813,-545,-1175,-780,-297,-61,157,-259
22307,3201,0,2023-03-01T18:51:50.234814,1699758,1417,1813,-545,-1175,-780,-297,-61,157,-259
22308,3202,0,2023-03-01T18:51:50.240057,1699763,1417,1813,-545,-1175,-780,-297,-61,157,-259
22309,3203,0,2023-03-01T18:51:50.244782,1699768,1417,1813,-545,-1175,-780,-297,-61,157,-259
22310,3204,0,2023-03-01T18:51:50.249434,1699772,1416,1817,-546,-1173,-774,-306,-61,157,-259
22311,3205,0,2023-03-01T18:51:50.255419,1699778,1416,1817,-546,-1173,-774,-306,-61,157,-259
22312,3206,0,2023-03-01T18:51:50.260453,1699783,1416,1817,-546,-1173,-774,-306,-61,157,-259
22313,3207,0,2023-03-01T18:51:50.265114,1699787,1409,1811,-539,-1178,-769,-310,-61,157,-259
22314,3208,0,2023-03-01T18:51:50.271217,1699793,1409,1811,-539,-1178,-769,-310,-61,157,-259
22315,3209,0,2023-03-01T18:51:50.276020,1699799,1409,1811,-539,-1178,-769,-310,-61,157,-259
22316,3210,0,2023-03-01T18:51:50.281159,1699804,1409,1811,-539,-1178,-769,-310,-61,157,-259
22317,3211,0,2023-03-01T18:51:50.285907,1699809,1415,1815,-549,-1183,-769,-301,-61,157,-259
22318,3212,0,2023-03-01T18:51:50.292620,1699815,1415,1815,-549,-1183,-769,-301,-61,157,-259
22319,3213,0,2023-03-01T18:51:50.297848,1699820,1415,1815,-549,-1183,-769,-301,-61,157,-259
22320,3214,0,2023-03-01T18:51:50.302780,1699825,1415,1815,-549,-1183,-769,-301,-61,157,-259
22321,3215,0,2023-03-01T18:51:50.308044,1699830,1414,1813,-546,-1172,-756,-298,-61,157,-259
22322,3216,0,2023-03-01T18:51:50.313966,1699836,1414,1813,-546,-1172,-756,-298,-61,157,-259
22323,3217,0,2023-03-01T18:51:50.318560,1699842,1414,1813,-546,-1172,-756,-298,-61,157,-259
22324,3218,0,2023-03-01T18:51:50.323791,1699846,1414,1813,-546,-1172,-756,-298,-61,157,-259
22325,3219,0,2023-03-01T18:51:50.329139,1699851,1410,1812,-543,-1166,-761,-304,-61,157,-259
22326,3220,0,2023-03-01T18:51:50.336110,1699859,1410,1812,-543,-1166,-761,-304,-61,157,-259
22327,3221,0,2023-03-01T18:51:50.340902,1699863,1410,1812,-543,-1166,-761,-304,-61,157,-259
22328,3222,0,2023-03-01T18:51:50.345954,1699868,1416,1819,-541,-1169,-762,-305,-66,160,-252
22329,3223,0,2023-03-01T18:51:50.352528,1699875,1416,1819,-541,-1169,-762,-305,-66,160,-252
22330,3224,0,2023-03-01T18:51:50.357614,1699880,1416,1819,-541,-1169,-762,-305,-66,160,-252
22331,3225,0,2023-03-01T18:51:50.362303,1699885,1416,1819,-541,-1169,-762,-305,-66,160,-252
22332,3226,0,2023-03-01T18:51:50.367213,1699890,1414,1812,-540,-1169,-764,-302,-66,160,-252
22333,3227,0,2023-03-01T18:51:50.373439,1699896,1414,1812,-540,-1169,-764,-302,-66,160,-252
22334,3228,0,2023-03-01T18:51:50.378342,1699901,1414,1812,-540,-1169,-764,-302,-66,160,-252
22335,3229,0,2023-03-01T18:51:50.383436,1699906,1414,1812,-540,-1169,-764,-302,-66,160,-252
22336,3230,0,2023-03-01T18:51:50.387946,1699910,1411,1814,-541,-1170,-773,-304,-66,160,-252
22337,3231,0,2023-03-01T18:51:50.395243,1699917,1411,1814,-541,-1170,-773,-304,-66,160,-252
22338,3232,0,2023-03-01T18:51:50.399909,1699922,1411,1814,-541,-1170,-773,-304,-66,160,-252
22339,3233,0,2023-03-01T18:51:50.405092,1699928,1411,1814,-541,-1170,-773,-304,-66,160,-252
22340,3234,0,2023-03-01T18:51:50.410846,1699934,1415,1818,-547,-1185,-782,-305,-66,160,-252
22341,3235,0,2023-03-01T18:51:50.415456,1699938,1415,1818,-547,-1185,-782,-305,-66,160,-252
22342,3236,0,2023-03-01T18:51:50.419918,1699943,1415,1818,-547,-1185,-782,-305,-66,160,-252
22343,3237,0,2023-03-01T18:51:50.424834,1699947,1415,1818,-547,-1185,-782,-305,-66,160,-252
22344,3238,0,2023-03-01T18:51:50.430666,1699953,1412,1815,-542,-1185,-772,-303,-66,160,-252
22345,3239,0,2023-03-01T18:51:50.437302,1699959,1412,1815,-542,-1185,-772,-303,-66,160,-252
22346,3240,0,2023-03-01T18:51:50.442269,1699964,1412,1815,-542,-1185,-772,-303,-66,160,-252
22347,3241,0,2023-03-01T18:51:50.447066,1699970,1413,1818,-540,-1185,-776,-297,-66,160,-252
22348,3242,0,2023-03-01T18:51:50.453488,1699976,1413,1818,-540,-1185,-776,-297,-66,160,-252
22349,3243,0,2023-03-01T18:51:50.458667,1699981,1413,1818,-540,-1185,-776,-297,-66,160,-252
22350,3244,0,2023-03-01T18:51:50.463493,1699986,1413,1818,-540,-1185,-776,-297,-66,160,-252
22351,3245,0,2023-03-01T18:51:50.468944,1699992,1411,1815,-537,-1184,-771,-308,-66,160,-252
22352,3246,0,2023-03-01T18:51:50.475105,1699998,1411,1815,-537,-1184,-771,-308,-66,160,-252
22353,3247,0,2023-03-01T18:51:50.479895,1700002,1411,1815,-537,-1184,-771,-308,-66,160,-252
22354,3248,0,2023-03-01T18:51:50.484676,1700007,1411,1815,-537,-1184,-771,-308,-66,160,-252
22355,3249,0,2023-03-01T18:51:50.490639,1700013,1410,1812,-539,-1175,-769,-302,-63,157,-255
22356,3250,0,2023-03-01T18:51:50.496836,1700020,1410,1812,-539,-1175,-769,-302,-63,157,-255
22357,3251,0,2023-03-01T18:51:50.501767,1700025,1410,1812,-539,-1175,-769,-302,-63,157,-255
22358,3252,0,2023-03-01T18:51:50.506387,1700029,1414,1814,-540,-1175,-771,-307,-63,157,-255
22359,3253,0,2023-03-01T18:51:50.512759,1700035,1414,1814,-540,-1175,-771,-307,-63,157,-255
22360,3254,0,2023-03-01T18:51:50.518128,1700040,1414,1814,-540,-1175,-771,-307,-63,157,-255
22361,3255,0,2023-03-01T18:51:50.523193,1700045,1414,1814,-540,-1175,-771,-307,-63,157,-255
22362,3256,0,2023-03-01T18:51:50.528287,1700050,1414,1812,-542,-1162,-763,-302,-63,157,-255
22363,3257,0,2023-03-01T18:51:50.534424,1700058,1414,1812,-542,-1162,-763,-302,-63,157,-255
22364,3258,0,2023-03-01T18:51:50.539490,1700062,1414,1812,-542,-1162,-763,-302,-63,157,-255
22365,3259,0,2023-03-01T18:51:50.544166,1700067,1414,1812,-542,-1162,-763,-302,-63,157,-255
22366,3260,0,2023-03-01T18:51:50.549405,1700072,1415,1813,-543,-1169,-760,-302,-63,157,-255
22367,3261,0,2023-03-01T18:51:50.556317,1700079,1415,1813,-543,-1169,-760,-302,-63,157,-255
22368,3262,0,2023-03-01T18:51:50.561209,1700084,1415,1813,-543,-1169,-760,-302,-63,157,-255
22369,3263,0,2023-03-01T18:51:50.566072,1700088,1411,1815,-542,-1163,-768,-306,-63,157,-255
22370,3264,0,2023-03-01T18:51:50.572736,1700096,1411,1815,-542,-1163,-768,-306,-63,157,-255
22371,3265,0,2023-03-01T18:51:50.577797,1700101,1411,1815,-542,-1163,-768,-306,-63,157,-255
22372,3266,0,2023-03-01T18:51:50.583083,1700106,1411,1815,-542,-1163,-768,-306,-63,157,-255
22373,3267,0,2023-03-01T18:51:50.588252,1700111,1413,1811,-545,-1170,-767,-301,-63,157,-255
22374,3268,0,2023-03-01T18:51:50.594239,1700117,1413,1811,-545,-1170,-767,-301,-63,157,-255
22375,3269,0,2023-03-01T18:51:50.599013,1700121,1413,1811,-545,-1170,-767,-301,-63,157,-255
22376,3270,0,2023-03-01T18:51:50.603672,1700126,1413,1811,-545,-1170,-767,-301,-63,157,-255
22377,3271,0,2023-03-01T18:51:50.608456,1700131,1413,1813,-544,-1181,-776,-300,-60,160,-250
22378,3272,0,2023-03-01T18:51:50.615408,1700137,1413,1813,-544,-1181,-776,-300,-60,160,-250
22379,3273,0,2023-03-01T18:51:50.620256,1700143,1413,1813,-544,-1181,-776,-300,-60,160,-250
22380,3274,0,2023-03-01T18:51:50.625271,1700148,1413,1813,-544,-1181,-776,-300,-60,160,-250
22381,3275,0,2023-03-01T18:51:50.630623,1700153,1413,1813,-540,-1179,-779,-303,-60,160,-250
22382,3276,0,2023-03-01T18:51:50.636925,1700159,1413,1813,-540,-1179,-779,-303,-60,160,-250
22383,3277,0,2023-03-01T18:51:50.642119,1700164,1413,1813,-540,-1179,-779,-303,-60,160,-250
22384,3278,0,2023-03-01T18:51:50.647067,1700169,1411,1812,-544,-1169,-773,-299,-60,160,-250
22385,3279,0,2023-03-01T18:51:50.653401,1700176,1411,1812,-544,-1169,-773,-299,-60,160,-250
22386,3280,0,2023-03-01T18:51:50.658345,1700180,1411,1812,-544,-1169,-773,-299,-60,160,-250
22387,3281,0,2023-03-01T18:51:50.663503,1700186,1411,1812,-544,-1169,-773,-299,-60,160,-250
22388,3282,0,2023-03-01T18:51:50.668334,1700191,1414,1816,-542,-1175,-775,-302,-60,160,-250
22389,3283,0,2023-03-01T18:51:50.675561,1700198,1414,1816,-542,-1175,-775,-302,-60,160,-250
22390,3284,0,2023-03-01T18:51:50.680596,1700203,1414,1816,-542,-1175,-775,-302,-60,160,-250
22391,3285,0,2023-03-01T18:51:50.685590,1700208,1414,1816,-542,-1175,-775,-302,-60,160,-250
22392,3286,0,2023-03-01T18:51:50.691178,1700213,1409,1811,-546,-1174,-767,-303,-60,160,-250
22393,3287,0,2023-03-01T18:51:50.697226,1700220,1409,1811,-546,-1174,-767,-303,-60,160,-250
22394,3288,0,2023-03-01T18:51:50.702424,1700225,1409,1811,-546,-1174,-767,-303,-60,160,-250
22395,3289,0,2023-03-01T18:51:50.707452,1700230,1414,1818,-551,-1171,-772,-303,-60,160,-250
22396,3290,0,2023-03-01T18:51:50.713649,1700236,1414,1818,-551,-1171,-772,-303,-60,160,-250
22397,3291,0,2023-03-01T18:51:50.718713,1700241,1414,1818,-551,-1171,-772,-303,-60,160,-250
22398,3292,0,2023-03-01T18:51:50.723257,1700246,1414,1818,-551,-1171,-772,-303,-60,160,-250
22399,3293,0,2023-03-01T18:51:50.728109,1700250,1412,1815,-545,-1180,-783,-303,-55,151,-249
