,Unnamed: 0,imu,server_time,arduino_time,ax,ay,az,gx,gy,gz,mx,my,mz
22400,3294,0,2023-03-01T18:51:50.734873,1700257,1412,1815,-545,-1180,-783,-303,-55,151,-249
22401,3295,0,2023-03-01T18:51:50.739608,1700262,1412,1815,-545,-1180,-783,-303,-55,151,-249
22402,3296,0,2023-03-01T18:51:50.744365,1700267,1412,1815,-545,-1180,-783,-303,-55,151,-249
22403,3297,0,2023-03-01T18:51:50.750120,1700273,1411,1810,-550,-1178,-783,-303,-55,151,-249
22404,3298,0,2023-03-01T18:51:50.756611,1700279,1411,1810,-550,-1178,-783,-303,-55,151,-249
22405,3299,0,2023-03-01T18:51:50.761882,1700284,1411,1810,-550,-1178,-783,-303,-55,151,-249
22406,3300,0,2023-03-01T18:51:50.767065,1700289,1415,1814,-544,-1182,-769,-302,-55,151,-249
22407,3301,0,2023-03-01T18:51:50.774113,1700297,1415,1814,-544,-1182,-769,-302,-55,151,-249
22408,3302,0,2023-03-01T18:51:50.778988,1700301,1415,1814,-544,-1182,-769,-302,-55,151,-249
22409,3303,0,2023-03-01T18:51:50.784342,1700306,1415,1814,-544,-1182,-769,-302,-55,151,-249
22410,3304,0,2023-03-01T18:51:50.789530,1700313,1410,1809,-545,-1180,-771,-293,-55,151,-249
22411,3305,0,2023-03-01T18:51:50.795933,1700319,1410,1809,-545,-1180,-771,-293,-55,151,-249
22412,3306,0,2023-03-01T18:51:50.800841,1700323,1410,1809,-545,-1180,-771,-293,-55,151,-249
22413,3307,0,2023-03-01T18:51:50.805507,1700328,1410,1809,-545,-1180,-771,-293,-55,151,-249
22414,3308,0,2023-03-01T18:51:50.811270,1700334,1414,1813,-542,-1182,-777,-296,-55,151,-249
22415,3309,0,2023-03-01T18:51:50.817708,1700340,1414,1813,-542,-1182,-777,-296,-55,151,-249
22416,3310,0,2023-03-01T18:51:50.823368,1700345,1414,1813,-542,-1182,-777,-296,-55,151,-249
22417,3311,0,2023-03-01T18:51:50.828327,1700350,1411,1816,-546,-1179,-779,-301,-55,151,-249
22418,3312,0,2023-03-01T18:51:50.835090,1700358,1411,1816,-546,-1179,-779,-301,-55,151,-249
22419,3313,0,2023-03-01T18:51:50.840069,1700363,1411,1816,-546,-1179,-779,-301,-55,151,-249
22420,3314,0,2023-03-01T18:51:50.844851,1700367,1411,1816,-546,-1179,-779,-301,-55,151,-249
22421,3315,0,2023-03-01T18:51:50.851043,1700373,1412,1812,-552,-1176,-771,-291,-55,151,-249
22422,3316,0,2023-03-01T18:51:50.857119,1700379,1412,1812,-552,-1176,-771,-291,-55,151,-249
22423,3317,0,2023-03-01T18:51:50.862297,1700384,1412,1812,-552,-1176,-771,-291,-55,151,-249
22424,3318,0,2023-03-01T18:51:50.868074,1700390,1414,1813,-541,-1181,-776,-303,-63,159,-257
22425,3319,0,2023-03-01T18:51:50.874292,1700397,1414,1813,-541,-1181,-776,-303,-63,159,-257
22426,3320,0,2023-03-01T18:51:50.879285,1700402,1414,1813,-541,-1181,-776,-303,-63,159,-257
22427,3321,0,2023-03-01T18:51:50.884277,1700407,1414,1813,-541,-1181,-776,-303,-63,159,-257
22428,3322,0,2023-03-01T18:51:50.889998,1700413,1414,1813,-541,-1177,-778,-288,-63,159,-257
22429,3323,0,2023-03-01T18:51:50.896194,1700418,1414,1813,-541,-1177,-778,-288,-63,159,-257
22430,3324,0,2023-03-01T18:51:50.901398,1700424,1414,1813,-541,-1177,-778,-288,-63,159,-257
22431,3325,0,2023-03-01T18:51:50.906294,1700428,1414,1813,-541,-1179,-771,-303,-63,159,-257
22432,3326,0,2023-03-01T18:51:50.911910,1700434,1414,1813,-541,-1179,-771,-303,-63,159,-257
22433,3327,0,2023-03-01T18:51:50.916750,1700440,1414,1813,-541,-1179,-771,-303,-63,159,-257
22434,3328,0,2023-03-01T18:51:50.921806,1700445,1414,1813,-541,-1179,-771,-303,-63,159,-257
22435,3329,0,2023-03-01T18:51:50.926646,1700449,1413,1815,-545,-1180,-787,-301,-63,159,-257
22436,3330,0,2023-03-01T18:51:50.933157,1700456,1413,1815,-545,-1180,-787,-301,-63,159,-257
22437,3331,0,2023-03-01T18:51:50.938089,1700461,1413,1815,-545,-1180,-787,-301,-63,159,-257
22438,3332,0,2023-03-01T18:51:50.943104,1700465,1413,1815,-545,-1180,-787,-301,-63,159,-257
22439,3333,0,2023-03-01T18:51:50.950004,1700472,1413,1815,-545,-1180,-787,-301,-63,159,-257
22440,3334,0,2023-03-01T18:51:50.956066,1700478,1413,1815,-545,-1180,-787,-301,-63,159,-257
22441,3335,0,2023-03-01T18:51:50.961375,1700484,1413,1815,-545,-1180,-787,-301,-63,159,-257
22442,3336,0,2023-03-01T18:51:50.966519,1700489,1415,1811,-546,-1184,-774,-304,-63,159,-257
22443,3337,0,2023-03-01T18:51:50.972923,1700496,1415,1811,-546,-1184,-774,-304,-63,159,-257
22444,3338,0,2023-03-01T18:51:50.977465,1700500,1415,1811,-546,-1184,-774,-304,-63,159,-257
22445,3339,0,2023-03-01T18:51:50.982434,1700505,1415,1811,-546,-1184,-774,-304,-63,159,-257
22446,3340,0,2023-03-01T18:51:50.987569,1700510,1413,1813,-541,-1178,-782,-299,-58,160,-256
22447,3341,0,2023-03-01T18:51:50.994308,1700516,1413,1813,-541,-1178,-782,-299,-58,160,-256
22448,3342,0,2023-03-01T18:51:50.999783,1700521,1413,1813,-541,-1178,-782,-299,-58,160,-256
22449,3343,0,2023-03-01T18:51:51.004562,1700527,1413,1813,-541,-1178,-782,-299,-58,160,-256
22450,3344,0,2023-03-01T18:51:51.009953,1700533,1409,1810,-540,-1194,-777,-308,-58,160,-256
22451,3345,0,2023-03-01T18:51:51.016296,1700539,1409,1810,-540,-1194,-777,-308,-58,160,-256
22452,3346,0,2023-03-01T18:51:51.021039,1700544,1409,1810,-540,-1194,-777,-308,-58,160,-256
22453,3347,0,2023-03-01T18:51:51.025869,1700548,1409,1810,-540,-1194,-777,-308,-58,160,-256
22454,3348,0,2023-03-01T18:51:51.031700,1700554,1413,1817,-542,-1183,-768,-300,-58,160,-256
22455,3349,0,2023-03-01T18:51:51.037641,1700559,1413,1817,-542,-1183,-768,-300,-58,160,-256
22456,3350,0,2023-03-01T18:51:51.042373,1700564,1413,1817,-542,-1183,-768,-300,-58,160,-256
22457,3351,0,2023-03-01T18:51:51.047200,1700570,1414,1815,-539,-1173,-774,-304,-58,160,-256
22458,3352,0,2023-03-01T18:51:51.052992,1700576,1414,1815,-539,-1173,-774,-304,-58,160,-256
22459,3353,0,2023-03-01T18:51:51.058217,1700581,1414,1815,-539,-1173,-774,-304,-58,160,-256
22460,3354,0,2023-03-01T18:51:51.062514,1700585,1414,1815,-539,-1173,-774,-304,-58,160,-256
22461,3355,0,2023-03-01T18:51:51.067167,1700590,1412,1814,-544,-1181,-782,-302,-58,160,-256
22462,3356,0,2023-03-01T18:51:51.073738,1700596,1412,1814,-544,-1181,-782,-302,-58,160,-256
22463,3357,0,2023-03-01T18:51:51.078299,1700601,1412,1814,-544,-1181,-782,-302,-58,160,-256
22464,3358,0,2023-03-01T18:51:51.083070,1700605,1412,1814,-544,-1181,-782,-302,-58,160,-256
22465,3359,0,2023-03-01T18:51:51.088164,1700611,1417,1815,-545,-1181,-781,-301,-58,160,-256
22466,3360,0,2023-03-01T18:51:51.094665,1700617,1417,1815,-545,-1181,-781,-301,-58,160,-256
22467,3361,0,2023-03-01T18:51:51.099792,1700622,1417,1815,-545,-1181,-781,-301,-58,160,-256
22468,3362,0,2023-03-01T18:51:51.105443,1700628,1417,1815,-545,-1181,-781,-301,-58,160,-256
22469,3363,0,2023-03-01T18:51:51.110962,1700633,1411,1813,-541,-1174,-783,-305,-58,160,-256
22470,3364,0,2023-03-01T18:51:51.117850,1700640,1411,1813,-541,-1174,-783,-305,-58,160,-256
22471,3365,0,2023-03-01T18:51:51.122817,1700645,1411,1813,-541,-1174,-783,-305,-58,160,-256
22472,3366,0,2023-03-01T18:51:51.127848,1700651,1410,1815,-544,-1176,-775,-307,-55,157,-257
22473,3367,0,2023-03-01T18:51:51.134322,1700657,1410,1815,-544,-1176,-775,-307,-55,157,-257
22474,3368,0,2023-03-01T18:51:51.139551,1700662,1410,1815,-544,-1176,-775,-307,-55,157,-257
22475,3369,0,2023-03-01T18:51:51.144296,1700667,1410,1815,-544,-1176,-775,-307,-55,157,-257
22476,3370,0,2023-03-01T18:51:51.149071,1700672,1416,1815,-542,-1177,-782,-303,-55,157,-257
22477,3371,0,2023-03-01T18:51:51.153383,1700676,1416,1815,-542,-1177,-782,-303,-55,157,-257
22478,3372,0,2023-03-01T18:51:51.158341,1700681,1416,1815,-542,-1177,-782,-303,-55,157,-257
22479,3373,0,2023-03-01T18:51:51.163342,1700685,1416,1815,-542,-1177,-782,-303,-55,157,-257
22480,3374,0,2023-03-01T18:51:51.168263,1700690,1414,1812,-545,-1178,-788,-302,-55,157,-257
22481,3375,0,2023-03-01T18:51:51.174481,1700698,1414,1812,-545,-1178,-788,-302,-55,157,-257
22482,3376,0,2023-03-01T18:51:51.179323,1700702,1414,1812,-545,-1178,-788,-302,-55,157,-257
22483,3377,0,2023-03-01T18:51:51.184159,1700707,1414,1812,-545,-1178,-788,-302,-55,157,-257
22484,3378,0,2023-03-01T18:51:51.188913,1700712,1416,1817,-546,-1177,-786,-307,-55,157,-257
22485,3379,0,2023-03-01T18:51:51.195465,1700718,1416,1817,-546,-1177,-786,-307,-55,157,-257
22486,3380,0,2023-03-01T18:51:51.200447,1700723,1416,1817,-546,-1177,-786,-307,-55,157,-257
22487,3381,0,2023-03-01T18:51:51.205630,1700728,1416,1817,-546,-1177,-786,-307,-55,157,-257
22488,3382,0,2023-03-01T18:51:51.211690,1700734,1410,1811,-544,-1180,-785,-298,-55,157,-257
22489,3383,0,2023-03-01T18:51:51.217666,1700740,1410,1811,-544,-1180,-785,-298,-55,157,-257
22490,3384,0,2023-03-01T18:51:51.222655,1700745,1410,1811,-544,-1180,-785,-298,-55,157,-257
22491,3385,0,2023-03-01T18:51:51.227798,1700750,1414,1814,-553,-1188,-791,-300,-55,157,-257
22492,3386,0,2023-03-01T18:51:51.234134,1700757,1414,1814,-553,-1188,-791,-300,-55,157,-257
22493,3387,0,2023-03-01T18:51:51.239206,1700762,1414,1814,-553,-1188,-791,-300,-55,157,-257
22494,3388,0,2023-03-01T18:51:51.244407,1700767,1414,1814,-553,-1188,-791,-300,-55,157,-257
22495,3389,0,2023-03-01T18:51:51.250021,1700772,1414,1814,-545,-1192,-798,-296,-67,151,-257
22496,3390,0,2023-03-01T18:51:51.255844,1700779,1414,1814,-545,-1192,-798,-296,-67,151,-257
22497,3391,0,2023-03-01T18:51:51.260245,1700783,1414,1814,-545,-1192,-798,-296,-67,151,-257
22498,3392,0,2023-03-01T18:51:51.265149,1700788,1414,1814,-545,-1192,-798,-296,-67,151,-257
22499,3393,0,2023-03-01T18:51:51.270737,1700793,1413,1812,-540,-1193,-794,-294,-67,151,-257
22500,3394,0,2023-03-01T18:51:51.278294,1700801,1413,1812,-540,-1193,-794,-294,-67,151,-257
22501,3395,0,2023-03-01T18:51:51.283333,1700806,1413,1812,-540,-1193,-794,-294,-67,151,-257
22502,3396,0,2023-03-01T18:51:51.288414,1700811,1412,1813,-542,-1192,-787,-305,-67,151,-257
22503,3397,0,2023-03-01T18:51:51.295198,1700817,1412,1813,-542,-1192,-787,-305,-67,151,-257
22504,3398,0,2023-03-01T18:51:51.300143,1700823,1412,1813,-542,-1192,-787,-305,-67,151,-257
22505,3399,0,2023-03-01T18:51:51.305048,1700828,1412,1813,-542,-1192,-787,-305,-67,151,-257
22506,3400,0,2023-03-01T18:51:51.310808,1700833,1414,1814,-545,-1183,-783,-304,-67,151,-257
22507,3401,0,2023-03-01T18:51:51.316146,1700839,1414,1814,-545,-1183,-783,-304,-67,151,-257
22508,3402,0,2023-03-01T18:51:51.321007,1700843,1414,1814,-545,-1183,-783,-304,-67,151,-257
22509,3403,0,2023-03-01T18:51:51.326086,1700848,1414,1814,-545,-1183,-783,-304,-67,151,-257
22510,3404,0,2023-03-01T18:51:51.332055,1700854,1411,1811,-539,-1185,-789,-297,-67,151,-257
22511,3405,0,2023-03-01T18:51:51.338639,1700861,1411,1811,-539,-1185,-789,-297,-67,151,-257
22512,3406,0,2023-03-01T18:51:51.343555,1700867,1411,1811,-539,-1185,-789,-297,-67,151,-257
22513,3407,0,2023-03-01T18:51:51.348391,1700871,1414,1815,-547,-1187,-784,-302,-67,151,-257
22514,3408,0,2023-03-01T18:51:51.353807,1700877,1414,1815,-547,-1187,-784,-302,-67,151,-257
22515,3409,0,2023-03-01T18:51:51.358975,1700881,1414,1815,-547,-1187,-784,-302,-67,151,-257
22516,3410,0,2023-03-01T18:51:51.364217,1700887,1414,1815,-547,-1187,-784,-302,-67,151,-257
22517,3411,0,2023-03-01T18:51:51.368966,1700892,1414,1812,-546,-1186,-785,-298,-67,151,-257
22518,3412,0,2023-03-01T18:51:51.375529,1700898,1414,1812,-546,-1186,-785,-298,-67,151,-257
22519,3413,0,2023-03-01T18:51:51.380417,1700902,1414,1812,-546,-1186,-785,-298,-67,151,-257
22520,3414,0,2023-03-01T18:51:51.385546,1700908,1414,1812,-546,-1186,-785,-298,-67,151,-257
22521,3415,0,2023-03-01T18:51:51.391411,1700914,1413,1814,-544,-1181,-787,-297,-56,146,-256
22522,3416,0,2023-03-01T18:51:51.397790,1700920,1413,1814,-544,-1181,-787,-297,-56,146,-256
22523,3417,0,2023-03-01T18:51:51.402721,1700925,1413,1814,-544,-1181,-787,-297,-56,146,-256
22524,3418,0,2023-03-01T18:51:51.407575,1700930,1414,1814,-551,-1188,-791,-300,-56,146,-256
22525,3419,0,2023-03-01T18:51:51.414361,1700936,1414,1814,-551,-1188,-791,-300,-56,146,-256
22526,3420,0,2023-03-01T18:51:51.419573,1700942,1414,1814,-551,-1188,-791,-300,-56,146,-256
22527,3421,0,2023-03-01T18:51:51.425037,1700947,1414,1814,-551,-1188,-791,-300,-56,146,-256
22528,3422,0,2023-03-01T18:51:51.430911,1700954,1413,1813,-544,-1179,-786,-300,-56,146,-256
22529,3423,0,2023-03-01T18:51:51.436661,1700960,1413,1813,-544,-1179,-786,-300,-56,146,-256
22530,3424,0,2023-03-01T18:51:51.441926,1700964,1413,1813,-544,-1179,-786,-300,-56,146,-256
22531,3425,0,2023-03-01T18:51:51.447121,1700970,1415,1813,-547,-1189,-795,-298,-56,146,-256
22532,3426,0,2023-03-01T18:51:51.453970,1700976,1415,1813,-547,-1189,-795,-298,-56,146,-256
22533,3427,0,2023-03-01T18:51:51.458906,1700981,1415,1813,-547,-1189,-795,-298,-56,146,-256
22534,3428,0,2023-03-01T18:51:51.463506,1700986,1415,1813,-547,-1189,-795,-298,-56,146,-256
22535,3429,0,2023-03-01T18:51:51.468316,1700990,1412,1811,-546,-1197,-803,-299,-56,146,-256
22536,3430,0,2023-03-01T18:51:51.474306,1700997,1412,1811,-546,-1197,-803,-299,-56,146,-256
22537,3431,0,2023-03-01T18:51:51.479411,1701002,1412,1811,-546,-1197,-803,-299,-56,146,-256
22538,3432,0,2023-03-01T18:51:51.484245,1701007,1412,1811,-546,-1197,-803,-299,-56,146,-256
22539,3433,0,2023-03-01T18:51:51.488842,1701012,1413,1811,-544,-1187,-794,-301,-56,146,-256
22540,3434,0,2023-03-01T18:51:51.496371,1701019,1413,1811,-544,-1187,-794,-301,-56,146,-256
22541,3435,0,2023-03-01T18:51:51.501455,1701024,1413,1811,-544,-1187,-794,-301,-56,146,-256
22542,3436,0,2023-03-01T18:51:51.506513,1701029,1413,1811,-544,-1187,-794,-301,-56,146,-256
22543,3437,0,2023-03-01T18:51:51.512560,1701036,1413,1814,-543,-1186,-775,-312,-59,149,-251
22544,3438,0,2023-03-01T18:51:51.518540,1701041,1413,1814,-543,-1186,-775,-312,-59,149,-251
22545,3439,0,2023-03-01T18:51:51.523397,1701046,1413,1814,-543,-1186,-775,-312,-59,149,-251
22546,3440,0,2023-03-01T18:51:51.528122,1701051,1412,1813,-539,-1185,-774,-304,-59,149,-251
22547,3441,0,2023-03-01T18:51:51.534444,1701057,1412,1813,-539,-1185,-774,-304,-59,149,-251
22548,3442,0,2023-03-01T18:51:51.539875,1701062,1412,1813,-539,-1185,-774,-304,-59,149,-251
22549,3443,0,2023-03-01T18:51:51.544621,1701067,1412,1813,-539,-1185,-774,-304,-59,149,-251
22550,3444,0,2023-03-01T18:51:51.550273,1701072,1415,1817,-553,-1177,-780,-304,-59,149,-251
22551,3445,0,2023-03-01T18:51:51.556078,1701079,1415,1817,-553,-1177,-780,-304,-59,149,-251
22552,3446,0,2023-03-01T18:51:51.561152,1701084,1415,1817,-553,-1177,-780,-304,-59,149,-251
22553,3447,0,2023-03-01T18:51:51.566046,1701089,1415,1817,-553,-1177,-780,-304,-59,149,-251
22554,3448,0,2023-03-01T18:51:51.571380,1701094,1414,1812,-548,-1177,-771,-302,-59,149,-251
22555,3449,0,2023-03-01T18:51:51.576512,1701099,1414,1812,-548,-1177,-771,-302,-59,149,-251
22556,3450,0,2023-03-01T18:51:51.581170,1701104,1414,1812,-548,-1177,-771,-302,-59,149,-251
22557,3451,0,2023-03-01T18:51:51.586305,1701109,1414,1812,-548,-1177,-771,-302,-59,149,-251
22558,3452,0,2023-03-01T18:51:51.592170,1701114,1413,1811,-546,-1171,-763,-309,-59,149,-251
22559,3453,0,2023-03-01T18:51:51.598040,1701121,1413,1811,-546,-1171,-763,-309,-59,149,-251
22560,3454,0,2023-03-01T18:51:51.603107,1701126,1413,1811,-546,-1171,-763,-309,-59,149,-251
22561,3455,0,2023-03-01T18:51:51.608114,1701131,1414,1812,-552,-1183,-765,-304,-59,149,-251
22562,3456,0,2023-03-01T18:51:51.614302,1701137,1414,1812,-552,-1183,-765,-304,-59,149,-251
22563,3457,0,2023-03-01T18:51:51.619275,1701142,1414,1812,-552,-1183,-765,-304,-59,149,-251
22564,3458,0,2023-03-01T18:51:51.624051,1701146,1414,1812,-552,-1183,-765,-304,-59,149,-251
22565,3459,0,2023-03-01T18:51:51.629240,1701151,1414,1812,-545,-1172,-757,-303,-49,157,-251
22566,3460,0,2023-03-01T18:51:51.635043,1701157,1414,1812,-545,-1172,-757,-303,-49,157,-251
22567,3461,0,2023-03-01T18:51:51.639760,1701163,1414,1812,-545,-1172,-757,-303,-49,157,-251
22568,3462,0,2023-03-01T18:51:51.644615,1701168,1414,1812,-545,-1172,-757,-303,-49,157,-251
22569,3463,0,2023-03-01T18:51:51.650019,1701173,1414,1813,-540,-1172,-767,-304,-49,157,-251
22570,3464,0,2023-03-01T18:51:51.656266,1701179,1414,1813,-540,-1172,-767,-304,-49,157,-251
22571,3465,0,2023-03-01T18:51:51.661383,1701184,1414,1813,-540,-1172,-767,-304,-49,157,-251
22572,3466,0,2023-03-01T18:51:51.666560,1701189,1414,1813,-540,-1172,-767,-304,-49,157,-251
22573,3467,0,2023-03-01T18:51:51.672146,1701194,1414,1815,-550,-1172,-776,-301,-49,157,-251
22574,3468,0,2023-03-01T18:51:51.678493,1701201,1414,1815,-550,-1172,-776,-301,-49,157,-251
22575,3469,0,2023-03-01T18:51:51.683349,1701206,1414,1815,-550,-1172,-776,-301,-49,157,-251
22576,3470,0,2023-03-01T18:51:51.688063,1701211,1411,1810,-540,-1174,-767,-300,-49,157,-251
22577,3471,0,2023-03-01T18:51:51.694654,1701217,1411,1810,-540,-1174,-767,-300,-49,157,-251
22578,3472,0,2023-03-01T18:51:51.699485,1701222,1411,1810,-540,-1174,-767,-300,-49,157,-251
22579,3473,0,2023-03-01T18:51:51.704372,1701227,1411,1810,-540,-1174,-767,-300,-49,157,-251
22580,3474,0,2023-03-01T18:51:51.709251,1701232,1415,1812,-547,-1170,-765,-300,-49,157,-251
22581,3475,0,2023-03-01T18:51:51.715921,1701238,1415,1812,-547,-1170,-765,-300,-49,157,-251
22582,3476,0,2023-03-01T18:51:51.721051,1701243,1415,1812,-547,-1170,-765,-300,-49,157,-251
22583,3477,0,2023-03-01T18:51:51.726238,1701249,1415,1812,-547,-1170,-765,-300,-49,157,-251
22584,3478,0,2023-03-01T18:51:51.731263,1701254,1411,1814,-545,-1177,-765,-302,-49,157,-251
22585,3479,0,2023-03-01T18:51:51.737237,1701260,1411,1814,-545,-1177,-765,-302,-49,157,-251
22586,3480,0,2023-03-01T18:51:51.742582,1701265,1411,1814,-545,-1177,-765,-302,-49,157,-251
22587,3481,0,2023-03-01T18:51:51.747426,1701270,1414,1813,-544,-1170,-771,-296,-49,157,-251
22588,3482,0,2023-03-01T18:51:51.754334,1701277,1414,1813,-544,-1170,-771,-296,-49,157,-251
22589,3483,0,2023-03-01T18:51:51.759496,1701282,1414,1813,-544,-1170,-771,-296,-49,157,-251
22590,3484,0,2023-03-01T18:51:51.764553,1701287,1414,1813,-544,-1170,-771,-296,-49,157,-251
22591,3485,0,2023-03-01T18:51:51.770008,1701293,1415,1814,-547,-1175,-774,-297,-67,157,-259
22592,3486,0,2023-03-01T18:51:51.776366,1701299,1415,1814,-547,-1175,-774,-297,-67,157,-259
22593,3487,0,2023-03-01T18:51:51.781201,1701304,1415,1814,-547,-1175,-774,-297,-67,157,-259
22594,3488,0,2023-03-01T18:51:51.787247,1701309,1415,1814,-547,-1175,-774,-297,-67,157,-259
22595,3489,0,2023-03-01T18:51:51.793034,1701315,1413,1810,-546,-1173,-769,-305,-67,157,-259
22596,3490,0,2023-03-01T18:51:51.799148,1701321,1413,1810,-546,-1173,-769,-305,-67,157,-259
22597,3491,0,2023-03-01T18:51:51.804051,1701326,1413,1810,-546,-1173,-769,-305,-67,157,-259
22598,3492,0,2023-03-01T18:51:51.808827,1701331,1414,1814,-543,-1174,-770,-301,-67,157,-259
22599,3493,0,2023-03-01T18:51:51.814331,1701337,1414,1814,-543,-1174,-770,-301,-67,157,-259
22600,3494,0,2023-03-01T18:51:51.819566,1701342,1414,1814,-543,-1174,-770,-301,-67,157,-259
22601,3495,0,2023-03-01T18:51:51.824172,1701347,1414,1814,-543,-1174,-770,-301,-67,157,-259
22602,3496,0,2023-03-01T18:51:51.828934,1701352,1413,1813,-546,-1177,-773,-299,-67,157,-259
22603,3497,0,2023-03-01T18:51:51.834603,1701357,1413,1813,-546,-1177,-773,-299,-67,157,-259
22604,3498,0,2023-03-01T18:51:51.839355,1701362,1413,1813,-546,-1177,-773,-299,-67,157,-259
22605,3499,0,2023-03-01T18:51:51.844260,1701366,1413,1813,-546,-1177,-773,-299,-67,157,-259
22606,3500,0,2023-03-01T18:51:51.849113,1701371,1415,1813,-548,-1175,-775,-291,-67,157,-259
22607,3501,0,2023-03-01T18:51:51.855484,1701379,1415,1813,-548,-1175,-775,-291,-67,157,-259
22608,3502,0,2023-03-01T18:51:51.860616,1701383,1415,1813,-548,-1175,-775,-291,-67,157,-259
22609,3503,0,2023-03-01T18:51:51.865405,1701388,1415,1813,-548,-1175,-775,-291,-67,157,-259
22610,3504,0,2023-03-01T18:51:51.871524,1701394,1414,1818,-550,-1172,-774,-304,-67,157,-259
22611,3505,0,2023-03-01T18:51:51.877531,1701400,1414,1818,-550,-1172,-774,-304,-67,157,-259
22612,3506,0,2023-03-01T18:51:51.882366,1701405,1414,1818,-550,-1172,-774,-304,-67,157,-259
22613,3507,0,2023-03-01T18:51:51.887652,1701410,1413,1810,-548,-1186,-785,-292,-63,155,-255
22614,3508,0,2023-03-01T18:51:51.895255,1701417,1413,1810,-548,-1186,-785,-292,-63,155,-255
22615,3509,0,2023-03-01T18:51:51.900095,1701423,1413,1810,-548,-1186,-785,-292,-63,155,-255
22616,3510,0,2023-03-01T18:51:51.905170,1701428,1413,1810,-548,-1186,-785,-292,-63,155,-255
22617,3511,0,2023-03-01T18:51:51.910987,1701434,1414,1810,-546,-1186,-778,-300,-63,155,-255
22618,3512,0,2023-03-01T18:51:51.916780,1701439,1414,1810,-546,-1186,-778,-300,-63,155,-255
22619,3513,0,2023-03-01T18:51:51.922279,1701444,1414,1810,-546,-1186,-778,-300,-63,155,-255
22620,3514,0,2023-03-01T18:51:51.927737,1701450,1411,1815,-544,-1183,-776,-295,-63,155,-255
22621,3515,0,2023-03-01T18:51:51.935211,1701457,1411,1815,-544,-1183,-776,-295,-63,155,-255
22622,3516,0,2023-03-01T18:51:51.939894,1701463,1411,1815,-544,-1183,-776,-295,-63,155,-255
22623,3517,0,2023-03-01T18:51:51.944714,1701468,1411,1815,-544,-1183,-776,-295,-63,155,-255
22624,3518,0,2023-03-01T18:51:51.950761,1701473,1411,1810,-549,-1182,-779,-295,-63,155,-255
22625,3519,0,2023-03-01T18:51:51.956295,1701479,1411,1810,-549,-1182,-779,-295,-63,155,-255
22626,3520,0,2023-03-01T18:51:51.961519,1701484,1411,1810,-549,-1182,-779,-295,-63,155,-255
22627,3521,0,2023-03-01T18:51:51.966240,1701489,1411,1810,-549,-1182,-779,-295,-63,155,-255
22628,3522,0,2023-03-01T18:51:51.971014,1701493,1411,1812,-553,-1183,-789,-302,-63,155,-255
22629,3523,0,2023-03-01T18:51:51.976724,1701499,1411,1812,-553,-1183,-789,-302,-63,155,-255
22630,3524,0,2023-03-01T18:51:51.982047,1701505,1411,1812,-553,-1183,-789,-302,-63,155,-255
22631,3525,0,2023-03-01T18:51:51.987277,1701510,1414,1814,-548,-1181,-785,-304,-63,155,-255
22632,3526,0,2023-03-01T18:51:51.993114,1701516,1414,1814,-548,-1181,-785,-304,-63,155,-255
22633,3527,0,2023-03-01T18:51:51.998064,1701521,1414,1814,-548,-1181,-785,-304,-63,155,-255
22634,3528,0,2023-03-01T18:51:52.002848,1701526,1414,1814,-548,-1181,-785,-304,-63,155,-255
22635,3529,0,2023-03-01T18:51:52.007687,1701530,1414,1812,-551,-1177,-783,-301,-63,155,-255
22636,3530,0,2023-03-01T18:51:52.014263,1701537,1414,1812,-551,-1177,-783,-301,-63,155,-255
22637,3531,0,2023-03-01T18:51:52.018796,1701541,1414,1812,-551,-1177,-783,-301,-63,155,-255
22638,3532,0,2023-03-01T18:51:52.023466,1701547,1414,1812,-551,-1177,-783,-301,-63,155,-255
22639,3533,0,2023-03-01T18:51:52.028150,1701551,1416,1816,-549,-1183,-784,-303,-60,158,-252
22640,3534,0,2023-03-01T18:51:52.033974,1701557,1416,1816,-549,-1183,-784,-303,-60,158,-252
22641,3535,0,2023-03-01T18:51:52.039094,1701561,1416,1816,-549,-1183,-784,-303,-60,158,-252
22642,3536,0,2023-03-01T18:51:52.044332,1701567,1416,1816,-549,-1183,-784,-303,-60,158,-252
22643,3537,0,2023-03-01T18:51:52.049190,1701572,1411,1809,-546,-1177,-782,-295,-60,158,-252
22644,3538,0,2023-03-01T18:51:52.055802,1701578,1411,1809,-546,-1177,-782,-295,-60,158,-252
22645,3539,0,2023-03-01T18:51:52.060616,1701583,1411,1809,-546,-1177,-782,-295,-60,158,-252
22646,3540,0,2023-03-01T18:51:52.065704,1701588,1411,1809,-546,-1177,-782,-295,-60,158,-252
22647,3541,0,2023-03-01T18:51:52.071306,1701594,1415,1812,-552,-1183,-785,-298,-60,158,-252
22648,3542,0,2023-03-01T18:51:52.077443,1701600,1415,1812,-552,-1183,-785,-298,-60,158,-252
22649,3543,0,2023-03-01T18:51:52.082388,1701605,1415,1812,-552,-1183,-785,-298,-60,158,-252
22650,3544,0,2023-03-01T18:51:52.087812,1701610,1417,1811,-547,-1181,-793,-295,-60,158,-252
22651,3545,0,2023-03-01T18:51:52.094196,1701617,1417,1811,-547,-1181,-793,-295,-60,158,-252
22652,3546,0,2023-03-01T18:51:52.099279,1701622,1417,1811,-547,-1181,-793,-295,-60,158,-252
22653,3547,0,2023-03-01T18:51:52.103763,1701626,1417,1811,-547,-1181,-793,-295,-60,158,-252
22654,3548,0,2023-03-01T18:51:52.108562,1701632,1410,1811,-543,-1183,-784,-287,-60,158,-252
22655,3549,0,2023-03-01T18:51:52.114914,1701638,1410,1811,-543,-1183,-784,-287,-60,158,-252
22656,3550,0,2023-03-01T18:51:52.119416,1701642,1410,1811,-543,-1183,-784,-287,-60,158,-252
22657,3551,0,2023-03-01T18:51:52.124875,1701647,1410,1811,-543,-1183,-784,-287,-60,158,-252
22658,3552,0,2023-03-01T18:51:52.129565,1701652,1415,1814,-553,-1182,-786,-295,-60,158,-252
22659,3553,0,2023-03-01T18:51:52.136049,1701659,1415,1814,-553,-1182,-786,-295,-60,158,-252
22660,3554,0,2023-03-01T18:51:52.140686,1701663,1415,1814,-553,-1182,-786,-295,-60,158,-252
22661,3555,0,2023-03-01T18:51:52.145927,1701668,1415,1814,-553,-1182,-786,-295,-60,158,-252
22662,3556,0,2023-03-01T18:51:52.153253,1701676,1414,1811,-542,-1181,-787,-301,-70,156,-252
22663,3557,0,2023-03-01T18:51:52.159676,1701683,1414,1811,-542,-1181,-787,-301,-70,156,-252
22664,3558,0,2023-03-01T18:51:52.164406,1701687,1414,1811,-542,-1181,-787,-301,-70,156,-252
22665,3559,0,2023-03-01T18:51:52.169539,1701692,1416,1815,-550,-1178,-789,-302,-70,156,-252
22666,3560,0,2023-03-01T18:51:52.175742,1701698,1416,1815,-550,-1178,-789,-302,-70,156,-252
22667,3561,0,2023-03-01T18:51:52.180395,1701703,1416,1815,-550,-1178,-789,-302,-70,156,-252
22668,3562,0,2023-03-01T18:51:52.185227,1701707,1416,1815,-550,-1178,-789,-302,-70,156,-252
22669,3563,0,2023-03-01T18:51:52.190698,1701713,1416,1815,-555,-1185,-788,-300,-70,156,-252
22670,3564,0,2023-03-01T18:51:52.196838,1701720,1416,1815,-555,-1185,-788,-300,-70,156,-252
22671,3565,0,2023-03-01T18:51:52.201583,1701725,1416,1815,-555,-1185,-788,-300,-70,156,-252
22672,3566,0,2023-03-01T18:51:52.206417,1701729,1416,1815,-555,-1185,-788,-300,-70,156,-252
22673,3567,0,2023-03-01T18:51:52.212015,1701735,1415,1807,-548,-1187,-786,-297,-70,156,-252
22674,3568,0,2023-03-01T18:51:52.217802,1701741,1415,1807,-548,-1187,-786,-297,-70,156,-252
22675,3569,0,2023-03-01T18:51:52.222611,1701745,1415,1807,-548,-1187,-786,-297,-70,156,-252
22676,3570,0,2023-03-01T18:51:52.227779,1701750,1411,1813,-550,-1186,-792,-297,-70,156,-252
22677,3571,0,2023-03-01T18:51:52.234642,1701757,1411,1813,-550,-1186,-792,-297,-70,156,-252
22678,3572,0,2023-03-01T18:51:52.239630,1701763,1411,1813,-550,-1186,-792,-297,-70,156,-252
22679,3573,0,2023-03-01T18:51:52.244427,1701767,1411,1813,-550,-1186,-792,-297,-70,156,-252
22680,3574,0,2023-03-01T18:51:52.249190,1701772,1414,1813,-544,-1200,-799,-290,-70,156,-252
22681,3575,0,2023-03-01T18:51:52.256188,1701778,1414,1813,-544,-1200,-799,-290,-70,156,-252
22682,3576,0,2023-03-01T18:51:52.262126,1701784,1414,1813,-544,-1200,-799,-290,-70,156,-252
22683,3577,0,2023-03-01T18:51:52.267045,1701789,1414,1813,-544,-1200,-799,-290,-70,156,-252
22684,3578,0,2023-03-01T18:51:52.272614,1701795,1415,1809,-553,-1193,-798,-297,-70,156,-252
22685,3579,0,2023-03-01T18:51:52.278336,1701801,1415,1809,-553,-1193,-798,-297,-70,156,-252
22686,3580,0,2023-03-01T18:51:52.282915,1701806,1415,1809,-553,-1193,-798,-297,-70,156,-252
22687,3581,0,2023-03-01T18:51:52.287697,1701811,1414,1820,-545,-1185,-783,-308,-70,156,-252
22688,3582,0,2023-03-01T18:51:52.294122,1701817,1414,1820,-545,-1185,-783,-308,-61,149,-253
22689,3583,0,2023-03-01T18:51:52.299700,1701822,1414,1820,-545,-1185,-783,-308,-61,149,-253
22690,3584,0,2023-03-01T18:51:52.304489,1701827,1414,1820,-545,-1185,-783,-308,-61,149,-253
22691,3585,0,2023-03-01T18:51:52.309060,1701832,1413,1814,-546,-1186,-790,-302,-61,149,-253
22692,3586,0,2023-03-01T18:51:52.315582,1701838,1413,1814,-546,-1186,-790,-302,-61,149,-253
22693,3587,0,2023-03-01T18:51:52.320556,1701843,1413,1814,-546,-1186,-790,-302,-61,149,-253
22694,3588,0,2023-03-01T18:51:52.325526,1701849,1413,1814,-546,-1186,-790,-302,-61,149,-253
22695,3589,0,2023-03-01T18:51:52.331216,1701854,1418,1813,-547,-1191,-803,-299,-61,149,-253
22696,3590,0,2023-03-01T18:51:52.336710,1701859,1418,1813,-547,-1191,-803,-299,-61,149,-253
22697,3591,0,2023-03-01T18:51:52.342140,1701865,1418,1813,-547,-1191,-803,-299,-61,149,-253
22698,3592,0,2023-03-01T18:51:52.347640,1701870,1418,1813,-547,-1191,-803,-299,-61,149,-253
22699,3593,0,2023-03-01T18:51:52.353288,1701876,1418,1813,-547,-1191,-803,-299,-61,149,-253
22700,3594,0,2023-03-01T18:51:52.358349,1701881,1418,1813,-547,-1191,-803,-299,-61,149,-253
22701,3595,0,2023-03-01T18:51:52.362976,1701885,1418,1813,-547,-1191,-803,-299,-61,149,-253
22702,3596,0,2023-03-01T18:51:52.367824,1701891,1413,1808,-553,-1181,-790,-295,-61,149,-253
22703,3597,0,2023-03-01T18:51:52.374156,1701897,1413,1808,-553,-1181,-790,-295,-61,149,-253
22704,3598,0,2023-03-01T18:51:52.379114,1701902,1413,1808,-553,-1181,-790,-295,-61,149,-253
22705,3599,0,2023-03-01T18:51:52.384286,1701907,1413,1808,-553,-1181,-790,-295,-61,149,-253
22706,3600,0,2023-03-01T18:51:52.389385,1701912,1414,1815,-545,-1193,-789,-301,-61,149,-253
22707,3601,0,2023-03-01T18:51:52.396291,1701918,1414,1815,-545,-1193,-789,-301,-61,149,-253
22708,3602,0,2023-03-01T18:51:52.401619,1701924,1414,1815,-545,-1193,-789,-301,-61,149,-253
22709,3603,0,2023-03-01T18:51:52.406433,1701929,1414,1815,-545,-1193,-789,-301,-61,149,-253
22710,3604,0,2023-03-01T18:51:52.411407,1701934,1413,1815,-550,-1201,-803,-295,-62,156,-256
22711,3605,0,2023-03-01T18:51:52.417415,1701940,1413,1815,-550,-1201,-803,-295,-62,156,-256
22712,3606,0,2023-03-01T18:51:52.422273,1701945,1413,1815,-550,-1201,-803,-295,-62,156,-256
22713,3607,0,2023-03-01T18:51:52.427691,1701950,1413,1815,-550,-1201,-803,-295,-62,156,-256
22714,3608,0,2023-03-01T18:51:52.433359,1701956,1411,1808,-546,-1184,-787,-293,-62,156,-256
22715,3609,0,2023-03-01T18:51:52.438749,1701961,1411,1808,-546,-1184,-787,-293,-62,156,-256
22716,3610,0,2023-03-01T18:51:52.443996,1701966,1411,1808,-546,-1184,-787,-293,-62,156,-256
22717,3611,0,2023-03-01T18:51:52.448451,1701971,1419,1813,-545,-1184,-780,-305,-62,156,-256
22718,3612,0,2023-03-01T18:51:52.454494,1701978,1419,1813,-545,-1184,-780,-305,-62,156,-256
22719,3613,0,2023-03-01T18:51:52.459558,1701982,1419,1813,-545,-1184,-780,-305,-62,156,-256
22720,3614,0,2023-03-01T18:51:52.464408,1701987,1419,1813,-545,-1184,-780,-305,-62,156,-256
22721,3615,0,2023-03-01T18:51:52.469533,1701992,1413,1811,-545,-1169,-774,-299,-62,156,-256
22722,3616,0,2023-03-01T18:51:52.475647,1701998,1413,1811,-545,-1169,-774,-299,-62,156,-256
22723,3617,0,2023-03-01T18:51:52.480525,1702003,1413,1811,-545,-1169,-774,-299,-62,156,-256
22724,3618,0,2023-03-01T18:51:52.485495,1702008,1413,1811,-545,-1169,-774,-299,-62,156,-256
22725,3619,0,2023-03-01T18:51:52.491895,1702014,1417,1813,-545,-1165,-765,-298,-62,156,-256
22726,3620,0,2023-03-01T18:51:52.498852,1702021,1417,1813,-545,-1165,-765,-298,-62,156,-256
22727,3621,0,2023-03-01T18:51:52.503445,1702026,1417,1813,-545,-1165,-765,-298,-62,156,-256
22728,3622,0,2023-03-01T18:51:52.508131,1702031,1413,1812,-551,-1168,-763,-299,-62,156,-256
22729,3623,0,2023-03-01T18:51:52.514589,1702037,1413,1812,-551,-1168,-763,-299,-62,156,-256
22730,3624,0,2023-03-01T18:51:52.519763,1702042,1413,1812,-551,-1168,-763,-299,-62,156,-256
22731,3625,0,2023-03-01T18:51:52.524443,1702047,1413,1812,-551,-1168,-763,-299,-62,156,-256
22732,3626,0,2023-03-01T18:51:52.529362,1702052,1414,1808,-548,-1167,-770,-300,-59,159,-249
22733,3627,0,2023-03-01T18:51:52.536154,1702059,1414,1808,-548,-1167,-770,-300,-59,159,-249
22734,3628,0,2023-03-01T18:51:52.540994,1702064,1414,1808,-548,-1167,-770,-300,-59,159,-249
22735,3629,0,2023-03-01T18:51:52.546324,1702069,1414,1808,-548,-1167,-770,-300,-59,159,-249
22736,3630,0,2023-03-01T18:51:52.551594,1702074,1415,1815,-547,-1171,-777,-306,-59,159,-249
22737,3631,0,2023-03-01T18:51:52.557291,1702080,1415,1815,-547,-1171,-777,-306,-59,159,-249
22738,3632,0,2023-03-01T18:51:52.562318,1702085,1415,1815,-547,-1171,-777,-306,-59,159,-249
22739,3633,0,2023-03-01T18:51:52.567001,1702089,1415,1815,-547,-1171,-777,-306,-59,159,-249
22740,3634,0,2023-03-01T18:51:52.572348,1702095,1416,1814,-550,-1165,-769,-302,-59,159,-249
22741,3635,0,2023-03-01T18:51:52.577752,1702100,1416,1814,-550,-1165,-769,-302,-59,159,-249
22742,3636,0,2023-03-01T18:51:52.582707,1702106,1416,1814,-550,-1165,-769,-302,-59,159,-249
22743,3637,0,2023-03-01T18:51:52.587570,1702110,1416,1814,-550,-1165,-769,-302,-59,159,-249
22744,3638,0,2023-03-01T18:51:52.593274,1702116,1414,1811,-545,-1170,-761,-306,-59,159,-249
22745,3639,0,2023-03-01T18:51:52.599166,1702122,1414,1811,-545,-1170,-761,-306,-59,159,-249
22746,3640,0,2023-03-01T18:51:52.604046,1702127,1414,1811,-545,-1170,-761,-306,-59,159,-249
22747,3641,0,2023-03-01T18:51:52.609016,1702131,1418,1815,-548,-1178,-765,-303,-59,159,-249
22748,3642,0,2023-03-01T18:51:52.615429,1702138,1418,1815,-548,-1178,-765,-303,-59,159,-249
22749,3643,0,2023-03-01T18:51:52.621123,1702144,1418,1815,-548,-1178,-765,-303,-59,159,-249
22750,3644,0,2023-03-01T18:51:52.626034,1702149,1418,1815,-548,-1178,-765,-303,-59,159,-249
22751,3645,0,2023-03-01T18:51:52.631662,1702155,1415,1812,-552,-1168,-766,-301,-59,159,-249
22752,3646,0,2023-03-01T18:51:52.637925,1702161,1415,1812,-552,-1168,-766,-301,-59,159,-249
22753,3647,0,2023-03-01T18:51:52.642994,1702166,1415,1812,-552,-1168,-766,-301,-59,159,-249
22754,3648,0,2023-03-01T18:51:52.647758,1702170,1415,1812,-552,-1168,-766,-301,-59,159,-249
22755,3649,0,2023-03-01T18:51:52.653194,1702175,1417,1814,-546,-1167,-771,-302,-59,159,-249
22756,3650,0,2023-03-01T18:51:52.658667,1702181,1417,1814,-546,-1167,-771,-302,-59,159,-249
22757,3651,0,2023-03-01T18:51:52.663718,1702187,1417,1814,-546,-1167,-771,-302,-59,159,-249
22758,3652,0,2023-03-01T18:51:52.668607,1702192,1416,1812,-547,-1168,-769,-301,-65,155,-259
22759,3653,0,2023-03-01T18:51:52.674372,1702197,1416,1812,-547,-1168,-769,-301,-65,155,-259
22760,3654,0,2023-03-01T18:51:52.679260,1702202,1416,1812,-547,-1168,-769,-301,-65,155,-259
22761,3655,0,2023-03-01T18:51:52.684076,1702207,1416,1812,-547,-1168,-769,-301,-65,155,-259
22762,3656,0,2023-03-01T18:51:52.688972,1702212,1413,1812,-547,-1172,-770,-295,-65,155,-259
22763,3657,0,2023-03-01T18:51:52.695322,1702218,1413,1812,-547,-1172,-770,-295,-65,155,-259
22764,3658,0,2023-03-01T18:51:52.700505,1702223,1413,1812,-547,-1172,-770,-295,-65,155,-259
22765,3659,0,2023-03-01T18:51:52.705098,1702227,1413,1812,-547,-1172,-770,-295,-65,155,-259
22766,3660,0,2023-03-01T18:51:52.709572,1702233,1416,1811,-544,-1180,-783,-301,-65,155,-259
22767,3661,0,2023-03-01T18:51:52.714826,1702238,1416,1811,-544,-1180,-783,-301,-65,155,-259
22768,3662,0,2023-03-01T18:51:52.719558,1702242,1416,1811,-544,-1180,-783,-301,-65,155,-259
22769,3663,0,2023-03-01T18:51:52.724385,1702247,1416,1811,-544,-1180,-783,-301,-65,155,-259
22770,3664,0,2023-03-01T18:51:52.729375,1702252,1416,1811,-551,-1187,-791,-302,-65,155,-259
22771,3665,0,2023-03-01T18:51:52.735531,1702258,1416,1811,-551,-1187,-791,-302,-65,155,-259
22772,3666,0,2023-03-01T18:51:52.740615,1702263,1416,1811,-551,-1187,-791,-302,-65,155,-259
22773,3667,0,2023-03-01T18:51:52.745456,1702268,1416,1811,-551,-1187,-791,-302,-65,155,-259
22774,3668,0,2023-03-01T18:51:52.750665,1702274,1415,1807,-546,-1194,-788,-307,-65,155,-259
22775,3669,0,2023-03-01T18:51:52.756851,1702280,1415,1807,-546,-1194,-788,-307,-65,155,-259
22776,3670,0,2023-03-01T18:51:52.761843,1702285,1415,1807,-546,-1194,-788,-307,-65,155,-259
22777,3671,0,2023-03-01T18:51:52.766610,1702289,1415,1807,-546,-1194,-788,-307,-65,155,-259
22778,3672,0,2023-03-01T18:51:52.772029,1702295,1417,1815,-549,-1193,-788,-302,-65,155,-259
22779,3673,0,2023-03-01T18:51:52.777812,1702300,1417,1815,-549,-1193,-788,-302,-65,155,-259
22780,3674,0,2023-03-01T18:51:52.782949,1702305,1417,1815,-549,-1193,-788,-302,-65,155,-259
22781,3675,0,2023-03-01T18:51:52.787872,1702310,1417,1815,-549,-1193,-788,-302,-65,155,-259
22782,3676,0,2023-03-01T18:51:52.794011,1702317,1414,1812,-542,-1182,-793,-297,-67,157,-257
22783,3677,0,2023-03-01T18:51:52.799719,1702323,1414,1812,-542,-1182,-793,-297,-67,157,-257
22784,3678,0,2023-03-01T18:51:52.804553,1702327,1414,1812,-542,-1182,-793,-297,-67,157,-257
22785,3679,0,2023-03-01T18:51:52.809571,1702332,1416,1811,-548,-1185,-796,-300,-67,157,-257
22786,3680,0,2023-03-01T18:51:52.815766,1702338,1416,1811,-548,-1185,-796,-300,-67,157,-257
22787,3681,0,2023-03-01T18:51:52.820917,1702343,1416,1811,-548,-1185,-796,-300,-67,157,-257
22788,3682,0,2023-03-01T18:51:52.825886,1702348,1416,1811,-548,-1185,-796,-300,-67,157,-257
22789,3683,0,2023-03-01T18:51:52.831403,1702354,1415,1817,-551,-1176,-793,-292,-67,157,-257
22790,3684,0,2023-03-01T18:51:52.837021,1702360,1415,1817,-551,-1176,-793,-292,-67,157,-257
22791,3685,0,2023-03-01T18:51:52.842509,1702366,1415,1817,-551,-1176,-793,-292,-67,157,-257
22792,3686,0,2023-03-01T18:51:52.847510,1702370,1415,1817,-551,-1176,-793,-292,-67,157,-257
22793,3687,0,2023-03-01T18:51:52.853191,1702376,1414,1809,-548,-1179,-788,-303,-67,157,-257
22794,3688,0,2023-03-01T18:51:52.859379,1702382,1414,1809,-548,-1179,-788,-303,-67,157,-257
22795,3689,0,2023-03-01T18:51:52.864172,1702387,1414,1809,-548,-1179,-788,-303,-67,157,-257
22796,3690,0,2023-03-01T18:51:52.868909,1702391,1419,1809,-554,-1188,-793,-297,-67,157,-257
22797,3691,0,2023-03-01T18:51:52.875599,1702398,1419,1809,-554,-1188,-793,-297,-67,157,-257
22798,3692,0,2023-03-01T18:51:52.881446,1702404,1419,1809,-554,-1188,-793,-297,-67,157,-257
22799,3693,0,2023-03-01T18:51:52.886468,1702410,1419,1809,-554,-1188,-793,-297,-67,157,-257
22800,3694,0,2023-03-01T18:51:52.891722,1702415,1414,1810,-548,-1188,-789,-295,-67,157,-257
22801,3695,0,2023-03-01T18:51:52.897701,1702420,1414,1810,-548,-1188,-789,-295,-67,157,-257
22802,3696,0,2023-03-01T18:51:52.902283,1702425,1414,1810,-548,-1188,-789,-295,-67,157,-257
22803,3697,0,2023-03-01T18:51:52.907380,1702430,1414,1810,-548,-1188,-789,-295,-67,157,-257
22804,3698,0,2023-03-01T18:51:52.912572,1702435,1417,1811,-544,-1193,-798,-291,-67,157,-257
22805,3699,0,2023-03-01T18:51:52.920267,1702443,1417,1811,-544,-1193,-798,-291,-67,157,-257
22806,3700,0,2023-03-01T18:51:52.925330,1702448,1417,1811,-544,-1193,-798,-291,-67,157,-257
22807,3701,0,2023-03-01T18:51:52.930445,1702453,1417,1812,-554,-1193,-802,-299,-58,150,-254
22808,3702,0,2023-03-01T18:51:52.937262,1702460,1417,1812,-554,-1193,-802,-299,-58,150,-254
22809,3703,0,2023-03-01T18:51:52.942048,1702465,1417,1812,-554,-1193,-802,-299,-58,150,-254
22810,3704,0,2023-03-01T18:51:52.947087,1702469,1417,1812,-554,-1193,-802,-299,-58,150,-254
22811,3705,0,2023-03-01T18:51:52.952611,1702475,1413,1810,-549,-1187,-795,-298,-58,150,-254
22812,3706,0,2023-03-01T18:51:52.958725,1702481,1413,1810,-549,-1187,-795,-298,-58,150,-254
22813,3707,0,2023-03-01T18:51:52.963997,1702487,1413,1810,-549,-1187,-795,-298,-58,150,-254
22814,3708,0,2023-03-01T18:51:52.969068,1702492,1416,1812,-551,-1186,-792,-302,-58,150,-254
22815,3709,0,2023-03-01T18:51:52.975278,1702498,1416,1812,-551,-1186,-792,-302,-58,150,-254
22816,3710,0,2023-03-01T18:51:52.980284,1702503,1416,1812,-551,-1186,-792,-302,-58,150,-254
22817,3711,0,2023-03-01T18:51:52.986401,1702509,1416,1812,-551,-1186,-792,-302,-58,150,-254
22818,3712,0,2023-03-01T18:51:52.992209,1702515,1420,1812,-550,-1198,-784,-298,-58,150,-254
22819,3713,0,2023-03-01T18:51:52.998340,1702521,1420,1812,-550,-1198,-784,-298,-58,150,-254
22820,3714,0,2023-03-01T18:51:53.003606,1702526,1420,1812,-550,-1198,-784,-298,-58,150,-254
22821,3715,0,2023-03-01T18:51:53.008265,1702531,1420,1812,-550,-1198,-784,-298,-58,150,-254
22822,3716,0,2023-03-01T18:51:53.013843,1702537,1416,1811,-554,-1194,-796,-298,-58,150,-254
22823,3717,0,2023-03-01T18:51:53.019348,1702542,1416,1811,-554,-1194,-796,-298,-58,150,-254
22824,3718,0,2023-03-01T18:51:53.024672,1702547,1416,1811,-554,-1194,-796,-298,-58,150,-254
22825,3719,0,2023-03-01T18:51:53.030897,1702553,1416,1812,-549,-1194,-790,-303,-58,150,-254
22826,3720,0,2023-03-01T18:51:53.037064,1702559,1416,1812,-549,-1194,-790,-303,-58,150,-254
22827,3721,0,2023-03-01T18:51:53.042466,1702565,1416,1812,-549,-1194,-790,-303,-58,150,-254
22828,3722,0,2023-03-01T18:51:53.047317,1702571,1416,1812,-549,-1194,-790,-303,-58,150,-254
22829,3723,0,2023-03-01T18:51:53.053017,1702576,1411,1809,-551,-1187,-786,-302,-63,149,-251
22830,3724,0,2023-03-01T18:51:53.059392,1702582,1411,1809,-551,-1187,-786,-302,-63,149,-251
22831,3725,0,2023-03-01T18:51:53.064160,1702587,1411,1809,-551,-1187,-786,-302,-63,149,-251
22832,3726,0,2023-03-01T18:51:53.068806,1702592,1411,1810,-548,-1189,-784,-304,-63,149,-251
22833,3727,0,2023-03-01T18:51:53.076258,1702597,1411,1810,-548,-1189,-784,-304,-63,149,-251
22834,3728,0,2023-03-01T18:51:53.080934,1702603,1411,1810,-548,-1189,-784,-304,-63,149,-251
22835,3729,0,2023-03-01T18:51:53.085931,1702608,1411,1810,-548,-1189,-784,-304,-63,149,-251
22836,3730,0,2023-03-01T18:51:53.091450,1702615,1415,1814,-548,-1192,-789,-305,-63,149,-251
22837,3731,0,2023-03-01T18:51:53.097592,1702621,1415,1814,-548,-1192,-789,-305,-63,149,-251
22838,3732,0,2023-03-01T18:51:53.102555,1702625,1415,1814,-548,-1192,-789,-305,-63,149,-251
22839,3733,0,2023-03-01T18:51:53.107160,1702630,1415,1814,-548,-1192,-789,-305,-63,149,-251
22840,3734,0,2023-03-01T18:51:53.112633,1702635,1416,1808,-550,-1183,-785,-299,-63,149,-251
22841,3735,0,2023-03-01T18:51:53.117280,1702640,1416,1808,-550,-1183,-785,-299,-63,149,-251
22842,3736,0,2023-03-01T18:51:53.122239,1702645,1416,1808,-550,-1183,-785,-299,-63,149,-251
22843,3737,0,2023-03-01T18:51:53.127383,1702649,1416,1808,-550,-1183,-785,-299,-63,149,-251
22844,3738,0,2023-03-01T18:51:53.133077,1702656,1416,1810,-556,-1190,-790,-303,-63,149,-251
22845,3739,0,2023-03-01T18:51:53.139976,1702663,1416,1810,-556,-1190,-790,-303,-63,149,-251
22846,3740,0,2023-03-01T18:51:53.144666,1702668,1416,1810,-556,-1190,-790,-303,-63,149,-251
22847,3741,0,2023-03-01T18:51:53.150126,1702673,1418,1810,-559,-1196,-796,-298,-63,149,-251
22848,3742,0,2023-03-01T18:51:53.157084,1702680,1418,1810,-559,-1196,-796,-298,-63,149,-251
22849,3743,0,2023-03-01T18:51:53.161928,1702684,1418,1810,-559,-1196,-796,-298,-63,149,-251
22850,3744,0,2023-03-01T18:51:53.167306,1702689,1418,1810,-559,-1196,-796,-298,-63,149,-251
22851,3745,0,2023-03-01T18:51:53.173111,1702695,1417,1809,-549,-1188,-797,-301,-63,149,-251
22852,3746,0,2023-03-01T18:51:53.180282,1702703,1417,1809,-549,-1188,-797,-301,-63,149,-251
22853,3747,0,2023-03-01T18:51:53.185560,1702708,1417,1809,-549,-1188,-797,-301,-63,149,-251
22854,3748,0,2023-03-01T18:51:53.191590,1702714,1414,1814,-547,-1192,-791,-306,-61,165,-249
22855,3749,0,2023-03-01T18:51:53.197371,1702720,1414,1814,-547,-1192,-791,-306,-61,165,-249
22856,3750,0,2023-03-01T18:51:53.202242,1702725,1414,1814,-547,-1192,-791,-306,-61,165,-249
22857,3751,0,2023-03-01T18:51:53.207194,1702729,1414,1814,-547,-1192,-791,-306,-61,165,-249
22858,3752,0,2023-03-01T18:51:53.212787,1702735,1411,1815,-548,-1194,-793,-295,-61,165,-249
22859,3753,0,2023-03-01T18:51:53.218830,1702742,1411,1815,-548,-1194,-793,-295,-61,165,-249
22860,3754,0,2023-03-01T18:51:53.223655,1702747,1411,1815,-548,-1194,-793,-295,-61,165,-249
22861,3755,0,2023-03-01T18:51:53.228384,1702751,1411,1815,-548,-1194,-793,-295,-61,165,-249
22862,3756,0,2023-03-01T18:51:53.233834,1702757,1415,1811,-547,-1188,-787,-302,-61,165,-249
22863,3757,0,2023-03-01T18:51:53.239747,1702762,1415,1811,-547,-1188,-787,-302,-61,165,-249
22864,3758,0,2023-03-01T18:51:53.244545,1702767,1415,1811,-547,-1188,-787,-302,-61,165,-249
22865,3759,0,2023-03-01T18:51:53.249511,1702772,1419,1815,-553,-1184,-795,-302,-61,165,-249
22866,3760,0,2023-03-01T18:51:53.255699,1702778,1419,1815,-553,-1184,-795,-302,-61,165,-249
22867,3761,0,2023-03-01T18:51:53.260396,1702784,1419,1815,-553,-1184,-795,-302,-61,165,-249
22868,3762,0,2023-03-01T18:51:53.265295,1702788,1419,1815,-553,-1184,-795,-302,-61,165,-249
22869,3763,0,2023-03-01T18:51:53.270667,1702794,1417,1808,-550,-1188,-791,-297,-61,165,-249
22870,3764,0,2023-03-01T18:51:53.276444,1702799,1417,1808,-550,-1188,-791,-297,-61,165,-249
22871,3765,0,2023-03-01T18:51:53.281436,1702804,1417,1808,-550,-1188,-791,-297,-61,165,-249
22872,3766,0,2023-03-01T18:51:53.286983,1702810,1417,1808,-550,-1188,-791,-297,-61,165,-249
22873,3767,0,2023-03-01T18:51:53.292582,1702815,1415,1812,-552,-1182,-786,-287,-61,165,-249
22874,3768,0,2023-03-01T18:51:53.298145,1702820,1415,1812,-552,-1182,-786,-287,-61,165,-249
22875,3769,0,2023-03-01T18:51:53.302797,1702825,1415,1812,-552,-1182,-786,-287,-61,165,-249
22876,3770,0,2023-03-01T18:51:53.307651,1702831,1415,1812,-552,-1182,-786,-287,-61,165,-249
22877,3771,0,2023-03-01T18:51:53.313034,1702836,1418,1811,-550,-1192,-792,-295,-65,151,-251
22878,3772,0,2023-03-01T18:51:53.319028,1702842,1418,1811,-550,-1192,-792,-295,-65,151,-251
22879,3773,0,2023-03-01T18:51:53.324033,1702847,1418,1811,-550,-1192,-792,-295,-65,151,-251
22880,3774,0,2023-03-01T18:51:53.328970,1702851,1412,1809,-553,-1187,-789,-299,-65,151,-251
22881,3775,0,2023-03-01T18:51:53.335325,1702858,1412,1809,-553,-1187,-789,-299,-65,151,-251
22882,3776,0,2023-03-01T18:51:53.339925,1702862,1412,1809,-553,-1187,-789,-299,-65,151,-251
22883,3777,0,2023-03-01T18:51:53.344578,1702867,1412,1809,-553,-1187,-789,-299,-65,151,-251
22884,3778,0,2023-03-01T18:51:53.349848,1702873,1416,1816,-556,-1193,-791,-302,-65,151,-251
22885,3779,0,2023-03-01T18:51:53.356173,1702879,1416,1816,-556,-1193,-791,-302,-65,151,-251
22886,3780,0,2023-03-01T18:51:53.361298,1702884,1416,1816,-556,-1193,-791,-302,-65,151,-251
22887,3781,0,2023-03-01T18:51:53.366211,1702889,1416,1816,-556,-1193,-791,-302,-65,151,-251
22888,3782,0,2023-03-01T18:51:53.371999,1702894,1415,1811,-555,-1193,-798,-296,-65,151,-251
22889,3783,0,2023-03-01T18:51:53.378428,1702900,1415,1811,-555,-1193,-798,-296,-65,151,-251
22890,3784,0,2023-03-01T18:51:53.383438,1702906,1415,1811,-555,-1193,-798,-296,-65,151,-251
22891,3785,0,2023-03-01T18:51:53.388296,1702910,1415,1811,-555,-1193,-798,-296,-65,151,-251
22892,3786,0,2023-03-01T18:51:53.394559,1702917,1417,1808,-555,-1194,-795,-293,-65,151,-251
22893,3787,0,2023-03-01T18:51:53.400437,1702923,1417,1808,-555,-1194,-795,-293,-65,151,-251
22894,3788,0,2023-03-01T18:51:53.405417,1702928,1417,1808,-555,-1194,-795,-293,-65,151,-251
22895,3789,0,2023-03-01T18:51:53.411050,1702934,1417,1813,-558,-1182,-797,-303,-65,151,-251
22896,3790,0,2023-03-01T18:51:53.416842,1702939,1417,1813,-558,-1182,-797,-303,-65,151,-251
22897,3791,0,2023-03-01T18:51:53.421782,1702944,1417,1813,-558,-1182,-797,-303,-65,151,-251
22898,3792,0,2023-03-01T18:51:53.426675,1702949,1417,1813,-558,-1182,-797,-303,-65,151,-251
22899,3793,0,2023-03-01T18:51:53.432206,1702955,1412,1807,-550,-1187,-798,-294,-54,154,-256
22900,3794,0,2023-03-01T18:51:53.437884,1702961,1412,1807,-550,-1187,-798,-294,-54,154,-256
22901,3795,0,2023-03-01T18:51:53.442934,1702966,1412,1807,-550,-1187,-798,-294,-54,154,-256
22902,3796,0,2023-03-01T18:51:53.447815,1702971,1412,1807,-550,-1187,-798,-294,-54,154,-256
22903,3797,0,2023-03-01T18:51:53.453702,1702976,1413,1810,-552,-1202,-809,-300,-54,154,-256
22904,3798,0,2023-03-01T18:51:53.459867,1702982,1413,1810,-552,-1202,-809,-300,-54,154,-256
22905,3799,0,2023-03-01T18:51:53.465420,1702987,1413,1810,-552,-1202,-809,-300,-54,154,-256
22906,3800,0,2023-03-01T18:51:53.470550,1702993,1413,1812,-551,-1190,-792,-305,-54,154,-256
22907,3801,0,2023-03-01T18:51:53.477251,1703000,1413,1812,-551,-1190,-792,-305,-54,154,-256
22908,3802,0,2023-03-01T18:51:53.481883,1703005,1413,1812,-551,-1190,-792,-305,-54,154,-256
22909,3803,0,2023-03-01T18:51:53.487085,1703009,1413,1812,-551,-1190,-792,-305,-54,154,-256
22910,3804,0,2023-03-01T18:51:53.492875,1703016,1419,1807,-547,-1186,-794,-296,-54,154,-256
22911,3805,0,2023-03-01T18:51:53.498453,1703021,1419,1807,-547,-1186,-794,-296,-54,154,-256
22912,3806,0,2023-03-01T18:51:53.503371,1703026,1419,1807,-547,-1186,-794,-296,-54,154,-256
22913,3807,0,2023-03-01T18:51:53.508119,1703031,1419,1807,-547,-1186,-794,-296,-54,154,-256
22914,3808,0,2023-03-01T18:51:53.513253,1703036,1418,1814,-552,-1193,-800,-299,-54,154,-256
22915,3809,0,2023-03-01T18:51:53.518787,1703042,1418,1814,-552,-1193,-800,-299,-54,154,-256
22916,3810,0,2023-03-01T18:51:53.523559,1703047,1418,1814,-552,-1193,-800,-299,-54,154,-256
22917,3811,0,2023-03-01T18:51:53.528515,1703051,1418,1814,-552,-1193,-800,-299,-54,154,-256
22918,3812,0,2023-03-01T18:51:53.534400,1703057,1414,1812,-552,-1197,-802,-300,-54,154,-256
22919,3813,0,2023-03-01T18:51:53.539864,1703062,1414,1812,-552,-1197,-802,-300,-54,154,-256
22920,3814,0,2023-03-01T18:51:53.544827,1703067,1414,1812,-552,-1197,-802,-300,-54,154,-256
22921,3815,0,2023-03-01T18:51:53.550272,1703072,1416,1811,-551,-1195,-792,-296,-54,154,-256
22922,3816,0,2023-03-01T18:51:53.556674,1703079,1416,1811,-551,-1195,-792,-296,-54,154,-256
22923,3817,0,2023-03-01T18:51:53.561608,1703085,1416,1811,-551,-1195,-792,-296,-54,154,-256
22924,3818,0,2023-03-01T18:51:53.566736,1703090,1416,1811,-551,-1195,-792,-296,-54,154,-256
22925,3819,0,2023-03-01T18:51:53.572168,1703095,1417,1813,-550,-1184,-793,-297,-55,155,-243
22926,3820,0,2023-03-01T18:51:53.579553,1703102,1417,1813,-550,-1184,-793,-297,-55,155,-243
22927,3821,0,2023-03-01T18:51:53.584410,1703107,1417,1813,-550,-1184,-793,-297,-55,155,-243
22928,3822,0,2023-03-01T18:51:53.589689,1703112,1417,1813,-550,-1184,-793,-297,-55,155,-243
22929,3823,0,2023-03-01T18:51:53.595924,1703118,1415,1808,-550,-1187,-799,-292,-55,155,-243
22930,3824,0,2023-03-01T18:51:53.601482,1703124,1415,1808,-550,-1187,-799,-292,-55,155,-243
22931,3825,0,2023-03-01T18:51:53.606251,1703129,1415,1808,-550,-1187,-799,-292,-55,155,-243
22932,3826,0,2023-03-01T18:51:53.612045,1703135,1417,1808,-556,-1188,-797,-297,-55,155,-243
22933,3827,0,2023-03-01T18:51:53.618025,1703141,1417,1808,-556,-1188,-797,-297,-55,155,-243
22934,3828,0,2023-03-01T18:51:53.622839,1703145,1417,1808,-556,-1188,-797,-297,-55,155,-243
22935,3829,0,2023-03-01T18:51:53.627806,1703150,1417,1808,-556,-1188,-797,-297,-55,155,-243
22936,3830,0,2023-03-01T18:51:53.633426,1703156,1419,1817,-556,-1186,-783,-297,-55,155,-243
22937,3831,0,2023-03-01T18:51:53.639306,1703162,1419,1817,-556,-1186,-783,-297,-55,155,-243
22938,3832,0,2023-03-01T18:51:53.644026,1703166,1419,1817,-556,-1186,-783,-297,-55,155,-243
22939,3833,0,2023-03-01T18:51:53.649039,1703172,1419,1817,-556,-1186,-783,-297,-55,155,-243
22940,3834,0,2023-03-01T18:51:53.653746,1703177,1413,1807,-550,-1183,-785,-295,-55,155,-243
22941,3835,0,2023-03-01T18:51:53.659310,1703182,1413,1807,-550,-1183,-785,-295,-55,155,-243
22942,3836,0,2023-03-01T18:51:53.663933,1703187,1413,1807,-550,-1183,-785,-295,-55,155,-243
22943,3837,0,2023-03-01T18:51:53.668454,1703191,1413,1807,-550,-1183,-785,-295,-55,155,-243
22944,3838,0,2023-03-01T18:51:53.673370,1703196,1415,1816,-558,-1189,-793,-307,-55,155,-243
22945,3839,0,2023-03-01T18:51:53.679105,1703201,1415,1816,-558,-1189,-793,-307,-55,155,-243
22946,3840,0,2023-03-01T18:51:53.684774,1703206,1415,1816,-558,-1189,-793,-307,-55,155,-243
22947,3841,0,2023-03-01T18:51:53.689772,1703213,1414,1812,-549,-1186,-796,-301,-63,157,-251
22948,3842,0,2023-03-01T18:51:53.696296,1703219,1414,1812,-549,-1186,-796,-301,-63,157,-251
22949,3843,0,2023-03-01T18:51:53.701136,1703224,1414,1812,-549,-1186,-796,-301,-63,157,-251
22950,3844,0,2023-03-01T18:51:53.706082,1703229,1414,1812,-549,-1186,-796,-301,-63,157,-251
22951,3845,0,2023-03-01T18:51:53.711712,1703234,1418,1809,-548,-1187,-793,-306,-63,157,-251
22952,3846,0,2023-03-01T18:51:53.718140,1703241,1418,1809,-548,-1187,-793,-306,-63,157,-251
22953,3847,0,2023-03-01T18:51:53.722706,1703245,1418,1809,-548,-1187,-793,-306,-63,157,-251
22954,3848,0,2023-03-01T18:51:53.727596,1703250,1418,1809,-548,-1187,-793,-306,-63,157,-251
22955,3849,0,2023-03-01T18:51:53.732916,1703256,1414,1809,-554,-1191,-794,-304,-63,157,-251
22956,3850,0,2023-03-01T18:51:53.739266,1703262,1414,1809,-554,-1191,-794,-304,-63,157,-251
22957,3851,0,2023-03-01T18:51:53.744204,1703267,1414,1809,-554,-1191,-794,-304,-63,157,-251
22958,3852,0,2023-03-01T18:51:53.749028,1703272,1414,1809,-554,-1191,-794,-304,-63,157,-251
22959,3853,0,2023-03-01T18:51:53.755112,1703278,1413,1808,-550,-1182,-790,-297,-63,157,-251
22960,3854,0,2023-03-01T18:51:53.760560,1703283,1413,1808,-550,-1182,-790,-297,-63,157,-251
22961,3855,0,2023-03-01T18:51:53.765593,1703288,1413,1808,-550,-1182,-790,-297,-63,157,-251
22962,3856,0,2023-03-01T18:51:53.771194,1703294,1415,1809,-550,-1198,-813,-305,-63,157,-251
22963,3857,0,2023-03-01T18:51:53.777265,1703300,1415,1809,-550,-1198,-813,-305,-63,157,-251
22964,3858,0,2023-03-01T18:51:53.782271,1703305,1415,1809,-550,-1198,-813,-305,-63,157,-251
22965,3859,0,2023-03-01T18:51:53.787445,1703310,1415,1809,-550,-1198,-813,-305,-63,157,-251
22966,3860,0,2023-03-01T18:51:53.793046,1703316,1418,1813,-554,-1196,-812,-296,-63,157,-251
22967,3861,0,2023-03-01T18:51:53.801439,1703323,1418,1813,-554,-1196,-812,-296,-63,157,-251
22968,3862,0,2023-03-01T18:51:53.806065,1703329,1418,1813,-554,-1196,-812,-296,-63,157,-251
22969,3863,0,2023-03-01T18:51:53.811568,1703334,1414,1809,-557,-1193,-802,-295,-63,157,-251
22970,3864,0,2023-03-01T18:51:53.817429,1703341,1414,1809,-557,-1193,-802,-295,-63,157,-251
22971,3865,0,2023-03-01T18:51:53.822486,1703345,1414,1809,-557,-1193,-802,-295,-63,157,-251
22972,3866,0,2023-03-01T18:51:53.827128,1703350,1414,1809,-557,-1193,-802,-295,-63,157,-251
22973,3867,0,2023-03-01T18:51:53.832768,1703356,1416,1813,-552,-1202,-803,-299,-57,153,-249
22974,3868,0,2023-03-01T18:51:53.838532,1703361,1416,1813,-552,-1202,-803,-299,-57,153,-249
22975,3869,0,2023-03-01T18:51:53.843345,1703366,1416,1813,-552,-1202,-803,-299,-57,153,-249
22976,3870,0,2023-03-01T18:51:53.848016,1703371,1416,1813,-552,-1202,-803,-299,-57,153,-249
22977,3871,0,2023-03-01T18:51:53.853562,1703376,1415,1812,-548,-1204,-808,-299,-57,153,-249
22978,3872,0,2023-03-01T18:51:53.859759,1703383,1415,1812,-548,-1204,-808,-299,-57,153,-249
22979,3873,0,2023-03-01T18:51:53.864511,1703388,1415,1812,-548,-1204,-808,-299,-57,153,-249
22980,3874,0,2023-03-01T18:51:53.869590,1703393,1415,1813,-552,-1201,-809,-295,-57,153,-249
22981,3875,0,2023-03-01T18:51:53.876074,1703399,1415,1813,-552,-1201,-809,-295,-57,153,-249
22982,3876,0,2023-03-01T18:51:53.881129,1703404,1415,1813,-552,-1201,-809,-295,-57,153,-249
22983,3877,0,2023-03-01T18:51:53.886014,1703409,1415,1813,-552,-1201,-809,-295,-57,153,-249
22984,3878,0,2023-03-01T18:51:53.891484,1703414,1415,1812,-556,-1187,-791,-292,-57,153,-249
22985,3879,0,2023-03-01T18:51:53.897489,1703420,1415,1812,-556,-1187,-791,-292,-57,153,-249
22986,3880,0,2023-03-01T18:51:53.902694,1703425,1415,1812,-556,-1187,-791,-292,-57,153,-249
22987,3881,0,2023-03-01T18:51:53.908654,1703431,1415,1812,-556,-1187,-791,-292,-57,153,-249
22988,3882,0,2023-03-01T18:51:53.914365,1703437,1414,1809,-560,-1183,-794,-298,-57,153,-249
22989,3883,0,2023-03-01T18:51:53.920593,1703443,1414,1809,-560,-1183,-794,-298,-57,153,-249
22990,3884,0,2023-03-01T18:51:53.925619,1703448,1414,1809,-560,-1183,-794,-298,-57,153,-249
22991,3885,0,2023-03-01T18:51:53.930326,1703453,1419,1814,-562,-1190,-796,-298,-57,153,-249
22992,3886,0,2023-03-01T18:51:53.936727,1703459,1419,1814,-562,-1190,-796,-298,-57,153,-249
22993,3887,0,2023-03-01T18:51:53.941861,1703464,1419,1814,-562,-1190,-796,-298,-57,153,-249
22994,3888,0,2023-03-01T18:51:53.947114,1703470,1419,1814,-562,-1190,-796,-298,-57,153,-249
22995,3889,0,2023-03-01T18:51:53.952842,1703476,1416,1811,-550,-1182,-799,-304,-63,157,-251
22996,3890,0,2023-03-01T18:51:53.958879,1703482,1416,1811,-550,-1182,-799,-304,-63,157,-251
22997,3891,0,2023-03-01T18:51:53.964094,1703487,1416,1811,-550,-1182,-799,-304,-63,157,-251
22998,3892,0,2023-03-01T18:51:53.969210,1703492,1416,1811,-550,-1182,-799,-304,-63,157,-251
22999,3893,0,2023-03-01T18:51:53.975425,1703498,1416,1808,-552,-1190,-800,-305,-63,157,-251
23000,3894,0,2023-03-01T18:51:53.981063,1703503,1416,1808,-552,-1190,-800,-305,-63,157,-251
23001,3895,0,2023-03-01T18:51:53.986027,1703508,1416,1808,-552,-1190,-800,-305,-63,157,-251
23002,3896,0,2023-03-01T18:51:53.992491,1703515,1418,1810,-559,-1201,-806,-301,-63,157,-251
23003,3897,0,2023-03-01T18:51:53.998992,1703522,1418,1810,-559,-1201,-806,-301,-63,157,-251
23004,3898,0,2023-03-01T18:51:54.003865,1703527,1418,1810,-559,-1201,-806,-301,-63,157,-251
23005,3899,0,2023-03-01T18:51:54.008352,1703531,1418,1810,-559,-1201,-806,-301,-63,157,-251
23006,3900,0,2023-03-01T18:51:54.013535,1703536,1414,1808,-554,-1204,-812,-299,-63,157,-251
23007,3901,0,2023-03-01T18:51:54.020123,1703542,1414,1808,-554,-1204,-812,-299,-63,157,-251
23008,3902,0,2023-03-01T18:51:54.025183,1703547,1414,1808,-554,-1204,-812,-299,-63,157,-251
23009,3903,0,2023-03-01T18:51:54.030192,1703554,1418,1811,-554,-1197,-805,-296,-63,157,-251
23010,3904,0,2023-03-01T18:51:54.036380,1703559,1418,1811,-554,-1197,-805,-296,-63,157,-251
23011,3905,0,2023-03-01T18:51:54.041058,1703564,1418,1811,-554,-1197,-805,-296,-63,157,-251
23012,3906,0,2023-03-01T18:51:54.046045,1703569,1418,1811,-554,-1197,-805,-296,-63,157,-251
23013,3907,0,2023-03-01T18:51:54.051700,1703574,1414,1808,-559,-1204,-808,-300,-63,157,-251
23014,3908,0,2023-03-01T18:51:54.057780,1703580,1414,1808,-559,-1204,-808,-300,-63,157,-251
23015,3909,0,2023-03-01T18:51:54.063095,1703585,1414,1808,-559,-1204,-808,-300,-63,157,-251
23016,3910,0,2023-03-01T18:51:54.067735,1703590,1414,1808,-559,-1204,-808,-300,-63,157,-251
23017,3911,0,2023-03-01T18:51:54.072889,1703596,1415,1807,-557,-1204,-800,-300,-63,157,-251
23018,3912,0,2023-03-01T18:51:54.079278,1703602,1415,1807,-557,-1204,-800,-300,-63,157,-251
23019,3913,0,2023-03-01T18:51:54.084128,1703607,1415,1807,-557,-1204,-800,-300,-63,157,-251
23020,3914,0,2023-03-01T18:51:54.089103,1703612,1415,1807,-557,-1204,-800,-300,-63,157,-251
23021,3915,0,2023-03-01T18:51:54.095073,1703618,1416,1810,-553,-1200,-794,-292,-63,157,-251
23022,3916,0,2023-03-01T18:51:54.100170,1703623,1416,1810,-553,-1200,-794,-292,-63,157,-251
23023,3917,0,2023-03-01T18:51:54.105201,1703628,1416,1810,-553,-1200,-794,-292,-63,157,-251
23024,3918,0,2023-03-01T18:51:54.110152,1703632,1416,1810,-553,-1200,-794,-292,-63,157,-251
23025,3919,0,2023-03-01T18:51:54.116293,1703639,1416,1811,-550,-1198,-800,-298,-63,157,-251
23026,3920,0,2023-03-01T18:51:54.121893,1703645,1416,1811,-550,-1198,-800,-298,-63,157,-251
23027,3921,0,2023-03-01T18:51:54.126980,1703650,1416,1811,-550,-1198,-800,-298,-63,157,-251
23028,3922,0,2023-03-01T18:51:54.132392,1703655,1415,1809,-551,-1190,-795,-304,-63,157,-251
23029,3923,0,2023-03-01T18:51:54.138565,1703661,1415,1809,-551,-1190,-795,-304,-63,157,-251
23030,3924,0,2023-03-01T18:51:54.144235,1703666,1415,1809,-551,-1190,-795,-304,-63,157,-251
23031,3925,0,2023-03-01T18:51:54.148949,1703671,1415,1809,-551,-1190,-795,-304,-63,157,-251
23032,3926,0,2023-03-01T18:51:54.154779,1703677,1416,1809,-553,-1191,-791,-302,-63,157,-251
23033,3927,0,2023-03-01T18:51:54.160320,1703683,1416,1809,-553,-1191,-791,-302,-63,157,-251
23034,3928,0,2023-03-01T18:51:54.166110,1703689,1416,1809,-553,-1191,-791,-302,-63,157,-251
23035,3929,0,2023-03-01T18:51:54.171698,1703694,1411,1810,-549,-1193,-787,-303,-63,157,-251
23036,3930,0,2023-03-01T18:51:54.178116,1703701,1411,1810,-549,-1193,-787,-303,-63,157,-251
23037,3931,0,2023-03-01T18:51:54.182848,1703705,1411,1810,-549,-1193,-787,-303,-63,157,-251
23038,3932,0,2023-03-01T18:51:54.187515,1703710,1411,1810,-549,-1193,-787,-303,-63,157,-251
23039,3933,0,2023-03-01T18:51:54.193261,1703715,1418,1810,-554,-1177,-770,-296,-63,157,-251
23040,3934,0,2023-03-01T18:51:54.199898,1703723,1418,1810,-554,-1177,-770,-296,-63,157,-251
23041,3935,0,2023-03-01T18:51:54.204487,1703728,1418,1810,-554,-1177,-770,-296,-63,157,-251
23042,3936,0,2023-03-01T18:51:54.209151,1703732,1418,1810,-554,-1177,-770,-296,-63,157,-251
23043,3937,0,2023-03-01T18:51:54.214812,1703738,1417,1811,-548,-1177,-780,-294,-54,156,-246
23044,3938,0,2023-03-01T18:51:54.220380,1703743,1417,1811,-548,-1177,-780,-294,-54,156,-246
23045,3939,0,2023-03-01T18:51:54.225562,1703748,1417,1811,-548,-1177,-780,-294,-54,156,-246
23046,3940,0,2023-03-01T18:51:54.230658,1703753,1416,1812,-552,-1175,-774,-302,-54,156,-246
23047,3941,0,2023-03-01T18:51:54.237436,1703760,1416,1812,-552,-1175,-774,-302,-54,156,-246
23048,3942,0,2023-03-01T18:51:54.242194,1703764,1416,1812,-552,-1175,-774,-302,-54,156,-246
23049,3943,0,2023-03-01T18:51:54.247399,1703770,1416,1812,-552,-1175,-774,-302,-54,156,-246
23050,3944,0,2023-03-01T18:51:54.253049,1703776,1417,1814,-552,-1164,-764,-309,-54,156,-246
23051,3945,0,2023-03-01T18:51:54.258926,1703782,1417,1814,-552,-1164,-764,-309,-54,156,-246
23052,3946,0,2023-03-01T18:51:54.263931,1703787,1417,1814,-552,-1164,-764,-309,-54,156,-246
23053,3947,0,2023-03-01T18:51:54.268964,1703791,1417,1814,-552,-1164,-764,-309,-54,156,-246
23054,3948,0,2023-03-01T18:51:54.274419,1703797,1418,1809,-546,-1173,-760,-305,-54,156,-246
23055,3949,0,2023-03-01T18:51:54.280181,1703803,1418,1809,-546,-1173,-760,-305,-54,156,-246
23056,3950,0,2023-03-01T18:51:54.285293,1703809,1418,1809,-546,-1173,-760,-305,-54,156,-246
23057,3951,0,2023-03-01T18:51:54.290080,1703813,1418,1809,-546,-1173,-760,-305,-54,156,-246
23058,3952,0,2023-03-01T18:51:54.295986,1703819,1418,1812,-557,-1170,-764,-307,-54,156,-246
23059,3953,0,2023-03-01T18:51:54.301505,1703824,1418,1812,-557,-1170,-764,-307,-54,156,-246
23060,3954,0,2023-03-01T18:51:54.306302,1703829,1418,1812,-557,-1170,-764,-307,-54,156,-246
23061,3955,0,2023-03-01T18:51:54.311850,1703834,1416,1815,-559,-1167,-765,-301,-54,156,-246
23062,3956,0,2023-03-01T18:51:54.317124,1703840,1416,1815,-559,-1167,-765,-301,-54,156,-246
23063,3957,0,2023-03-01T18:51:54.321889,1703844,1416,1815,-559,-1167,-765,-301,-54,156,-246
23064,3958,0,2023-03-01T18:51:54.326480,1703849,1416,1815,-559,-1167,-765,-301,-54,156,-246
23065,3959,0,2023-03-01T18:51:54.331817,1703855,1413,1808,-555,-1165,-764,-300,-56,154,-254
23066,3960,0,2023-03-01T18:51:54.337453,1703861,1413,1808,-555,-1165,-764,-300,-56,154,-254
23067,3961,0,2023-03-01T18:51:54.343436,1703866,1413,1808,-555,-1165,-764,-300,-56,154,-254
23068,3962,0,2023-03-01T18:51:54.348330,1703871,1413,1808,-555,-1165,-764,-300,-56,154,-254
23069,3963,0,2023-03-01T18:51:54.354087,1703876,1417,1812,-551,-1167,-761,-304,-56,154,-254
23070,3964,0,2023-03-01T18:51:54.360446,1703883,1417,1812,-551,-1167,-761,-304,-56,154,-254
23071,3965,0,2023-03-01T18:51:54.365604,1703888,1417,1812,-551,-1167,-761,-304,-56,154,-254
23072,3966,0,2023-03-01T18:51:54.371062,1703894,1418,1811,-557,-1166,-755,-307,-56,154,-254
23073,3967,0,2023-03-01T18:51:54.377056,1703900,1418,1811,-557,-1166,-755,-307,-56,154,-254
23074,3968,0,2023-03-01T18:51:54.381716,1703905,1418,1811,-557,-1166,-755,-307,-56,154,-254
23075,3969,0,2023-03-01T18:51:54.386727,1703909,1418,1811,-557,-1166,-755,-307,-56,154,-254
23076,3970,0,2023-03-01T18:51:54.392298,1703915,1415,1812,-558,-1158,-760,-301,-56,154,-254
23077,3971,0,2023-03-01T18:51:54.399284,1703921,1415,1812,-558,-1158,-760,-301,-56,154,-254
23078,3972,0,2023-03-01T18:51:54.404089,1703926,1415,1812,-558,-1158,-760,-301,-56,154,-254
23079,3973,0,2023-03-01T18:51:54.409092,1703931,1415,1812,-558,-1158,-760,-301,-56,154,-254
23080,3974,0,2023-03-01T18:51:54.416387,1703939,1417,1812,-559,-1165,-772,-299,-56,154,-254
23081,3975,0,2023-03-01T18:51:54.422051,1703945,1417,1812,-559,-1165,-772,-299,-56,154,-254
23082,3976,0,2023-03-01T18:51:54.427262,1703950,1417,1812,-559,-1165,-772,-299,-56,154,-254
23083,3977,0,2023-03-01T18:51:54.432985,1703956,1415,1808,-556,-1174,-774,-304,-56,154,-254
23084,3978,0,2023-03-01T18:51:54.438912,1703961,1415,1808,-556,-1174,-774,-304,-56,154,-254
23085,3979,0,2023-03-01T18:51:54.444310,1703967,1415,1808,-556,-1174,-774,-304,-56,154,-254
23086,3980,0,2023-03-01T18:51:54.450052,1703972,1415,1808,-556,-1174,-774,-304,-56,154,-254
23087,3981,0,2023-03-01T18:51:54.457924,1703981,1418,1814,-557,-1178,-780,-300,-56,154,-254
23088,3982,0,2023-03-01T18:51:54.463642,1703986,1418,1814,-557,-1178,-780,-300,-56,154,-254
23089,3983,0,2023-03-01T18:51:54.469374,1703992,1418,1814,-557,-1178,-780,-300,-56,154,-254
23090,3984,0,2023-03-01T18:51:54.475524,1703998,1419,1809,-553,-1174,-773,-304,-58,152,-246
23091,3985,0,2023-03-01T18:51:54.482617,1704005,1419,1809,-553,-1174,-773,-304,-58,152,-246
23092,3986,0,2023-03-01T18:51:54.487954,1704010,1419,1809,-553,-1174,-773,-304,-58,152,-246
23093,3987,0,2023-03-01T18:51:54.494148,1704016,1418,1807,-555,-1170,-775,-299,-58,152,-246
23094,3988,0,2023-03-01T18:51:54.500903,1704024,1418,1807,-555,-1170,-775,-299,-58,152,-246
23095,3989,0,2023-03-01T18:51:54.505656,1704029,1418,1807,-555,-1170,-775,-299,-58,152,-246
23096,3990,0,2023-03-01T18:51:54.511209,1704034,1420,1814,-556,-1169,-768,-300,-58,152,-246
23097,3991,0,2023-03-01T18:51:54.517599,1704040,1420,1814,-556,-1169,-768,-300,-58,152,-246
23098,3992,0,2023-03-01T18:51:54.523148,1704046,1420,1814,-556,-1169,-768,-300,-58,152,-246
23099,3993,0,2023-03-01T18:51:54.528391,1704051,1420,1814,-556,-1169,-768,-300,-58,152,-246
