,Unnamed: 0,imu,server_time,arduino_time,ax,ay,az,gx,gy,gz,mx,my,mz
23800,4694,0,2023-03-01T18:51:58.358864,1707882,1419,1810,-570,-1186,-789,-301,-60,154,-260
23801,4695,0,2023-03-01T18:51:58.364234,1707887,1419,1810,-570,-1186,-789,-301,-60,154,-260
23802,4696,0,2023-03-01T18:51:58.369085,1707892,1419,1810,-570,-1186,-789,-301,-60,154,-260
23803,4697,0,2023-03-01T18:51:58.374528,1707897,1419,1810,-570,-1186,-789,-301,-60,154,-260
23804,4698,0,2023-03-01T18:51:58.379501,1707902,1414,1808,-561,-1185,-788,-299,-60,154,-260
23805,4699,0,2023-03-01T18:51:58.385028,1707908,1414,1808,-561,-1185,-788,-299,-60,154,-260
23806,4700,0,2023-03-01T18:51:58.389747,1707913,1414,1808,-561,-1185,-788,-299,-60,154,-260
23807,4701,0,2023-03-01T18:51:58.395326,1707918,1416,1809,-562,-1183,-782,-300,-60,154,-260
23808,4702,0,2023-03-01T18:51:58.401403,1707924,1416,1809,-562,-1183,-782,-300,-60,154,-260
23809,4703,0,2023-03-01T18:51:58.406103,1707929,1416,1809,-562,-1183,-782,-300,-60,154,-260
23810,4704,0,2023-03-01T18:51:58.411475,1707934,1416,1809,-562,-1183,-782,-300,-60,154,-260
23811,4705,0,2023-03-01T18:51:58.417097,1707939,1420,1811,-576,-1182,-787,-300,-60,154,-260
23812,4706,0,2023-03-01T18:51:58.423112,1707947,1420,1811,-576,-1182,-787,-300,-60,154,-260
23813,4707,0,2023-03-01T18:51:58.428397,1707951,1420,1811,-576,-1182,-787,-300,-60,154,-260
23814,4708,0,2023-03-01T18:51:58.433696,1707957,1420,1811,-576,-1182,-787,-300,-60,154,-260
23815,4709,0,2023-03-01T18:51:58.438434,1707962,1417,1804,-572,-1179,-777,-299,-60,154,-260
23816,4710,0,2023-03-01T18:51:58.443728,1707967,1417,1804,-572,-1179,-777,-299,-60,154,-260
23817,4711,0,2023-03-01T18:51:58.448505,1707971,1417,1804,-572,-1179,-777,-299,-60,154,-260
23818,4712,0,2023-03-01T18:51:58.454273,1707977,1417,1804,-572,-1179,-777,-299,-60,154,-260
23819,4713,0,2023-03-01T18:51:58.459727,1707982,1419,1809,-566,-1179,-771,-302,-62,146,-252
23820,4714,0,2023-03-01T18:51:58.465363,1707988,1419,1809,-566,-1179,-771,-302,-62,146,-252
23821,4715,0,2023-03-01T18:51:58.470242,1707993,1419,1809,-566,-1179,-771,-302,-62,146,-252
23822,4716,0,2023-03-01T18:51:58.475550,1707999,1417,1807,-568,-1174,-773,-301,-62,146,-252
23823,4717,0,2023-03-01T18:51:58.481589,1708005,1417,1807,-568,-1174,-773,-301,-62,146,-252
23824,4718,0,2023-03-01T18:51:58.486545,1708010,1417,1807,-568,-1174,-773,-301,-62,146,-252
23825,4719,0,2023-03-01T18:51:58.492022,1708015,1417,1807,-568,-1174,-773,-301,-62,146,-252
23826,4720,0,2023-03-01T18:51:58.496425,1708019,1416,1804,-568,-1174,-772,-298,-62,146,-252
23827,4721,0,2023-03-01T18:51:58.502607,1708025,1416,1804,-568,-1174,-772,-298,-62,146,-252
23828,4722,0,2023-03-01T18:51:58.507550,1708030,1416,1804,-568,-1174,-772,-298,-62,146,-252
23829,4723,0,2023-03-01T18:51:58.513073,1708037,1416,1804,-568,-1174,-772,-298,-62,146,-252
23830,4724,0,2023-03-01T18:51:58.517795,1708041,1419,1811,-568,-1168,-772,-301,-62,146,-252
23831,4725,0,2023-03-01T18:51:58.523025,1708046,1419,1811,-568,-1168,-772,-301,-62,146,-252
23832,4726,0,2023-03-01T18:51:58.528116,1708051,1419,1811,-568,-1168,-772,-301,-62,146,-252
23833,4727,0,2023-03-01T18:51:58.533752,1708056,1419,1811,-568,-1168,-772,-301,-62,146,-252
23834,4728,0,2023-03-01T18:51:58.538482,1708061,1419,1807,-565,-1171,-777,-306,-62,146,-252
23835,4729,0,2023-03-01T18:51:58.544540,1708067,1419,1807,-565,-1171,-777,-306,-62,146,-252
23836,4730,0,2023-03-01T18:51:58.549230,1708072,1419,1807,-565,-1171,-777,-306,-62,146,-252
23837,4731,0,2023-03-01T18:51:58.554866,1708078,1419,1807,-565,-1171,-777,-306,-62,146,-252
23838,4732,0,2023-03-01T18:51:58.560384,1708084,1419,1808,-570,-1181,-786,-309,-62,146,-252
23839,4733,0,2023-03-01T18:51:58.566389,1708089,1419,1808,-570,-1181,-786,-309,-62,146,-252
23840,4734,0,2023-03-01T18:51:58.571278,1708094,1419,1808,-570,-1181,-786,-309,-62,146,-252
23841,4735,0,2023-03-01T18:51:58.576559,1708100,1418,1809,-566,-1184,-777,-311,-58,156,-250
23842,4736,0,2023-03-01T18:51:58.581008,1708104,1418,1809,-566,-1184,-777,-311,-58,156,-250
23843,4737,0,2023-03-01T18:51:58.585993,1708108,1418,1809,-566,-1184,-777,-311,-58,156,-250
23844,4738,0,2023-03-01T18:51:58.590808,1708113,1418,1809,-566,-1184,-777,-311,-58,156,-250
23845,4739,0,2023-03-01T18:51:58.596668,1708120,1418,1805,-563,-1172,-756,-310,-58,156,-250
23846,4740,0,2023-03-01T18:51:58.602800,1708126,1418,1805,-563,-1172,-756,-310,-58,156,-250
23847,4741,0,2023-03-01T18:51:58.607540,1708131,1418,1805,-563,-1172,-756,-310,-58,156,-250
23848,4742,0,2023-03-01T18:51:58.612515,1708136,1418,1805,-563,-1172,-756,-310,-58,156,-250
23849,4743,0,2023-03-01T18:51:58.616996,1708140,1419,1812,-568,-1172,-766,-310,-58,156,-250
23850,4744,0,2023-03-01T18:51:58.622867,1708145,1419,1812,-568,-1172,-766,-310,-58,156,-250
23851,4745,0,2023-03-01T18:51:58.627823,1708150,1419,1812,-568,-1172,-766,-310,-58,156,-250
23852,4746,0,2023-03-01T18:51:58.633510,1708156,1419,1812,-568,-1172,-766,-310,-58,156,-250
23853,4747,0,2023-03-01T18:51:58.640109,1708163,1415,1808,-564,-1172,-770,-303,-58,156,-250
23854,4748,0,2023-03-01T18:51:58.645555,1708169,1415,1808,-564,-1172,-770,-303,-58,156,-250
23855,4749,0,2023-03-01T18:51:58.651090,1708174,1415,1808,-564,-1172,-770,-303,-58,156,-250
23856,4750,0,2023-03-01T18:51:58.657156,1708180,1415,1804,-570,-1170,-765,-296,-58,156,-250
23857,4751,0,2023-03-01T18:51:58.663379,1708186,1415,1804,-570,-1170,-765,-296,-58,156,-250
23858,4752,0,2023-03-01T18:51:58.668130,1708191,1415,1804,-570,-1170,-765,-296,-58,156,-250
23859,4753,0,2023-03-01T18:51:58.673631,1708196,1415,1804,-570,-1170,-765,-296,-58,156,-250
23860,4754,0,2023-03-01T18:51:58.679340,1708203,1417,1811,-566,-1167,-760,-301,-58,156,-250
23861,4755,0,2023-03-01T18:51:58.685535,1708208,1417,1811,-566,-1167,-760,-301,-58,156,-250
23862,4756,0,2023-03-01T18:51:58.690358,1708214,1417,1811,-566,-1167,-760,-301,-58,156,-250
23863,4757,0,2023-03-01T18:51:58.695980,1708219,1417,1807,-565,-1176,-771,-296,-58,156,-250
23864,4758,0,2023-03-01T18:51:58.702262,1708225,1417,1807,-565,-1176,-771,-296,-58,156,-250
23865,4759,0,2023-03-01T18:51:58.707312,1708230,1417,1807,-565,-1176,-771,-296,-58,156,-250
23866,4760,0,2023-03-01T18:51:58.713184,1708236,1417,1807,-565,-1176,-771,-296,-58,156,-250
23867,4761,0,2023-03-01T18:51:58.717969,1708240,1419,1807,-568,-1186,-781,-306,-58,152,-244
23868,4762,0,2023-03-01T18:51:58.723503,1708247,1419,1807,-568,-1186,-781,-306,-58,152,-244
23869,4763,0,2023-03-01T18:51:58.728321,1708252,1419,1807,-568,-1186,-781,-306,-58,152,-244
23870,4764,0,2023-03-01T18:51:58.733976,1708257,1419,1807,-568,-1186,-781,-306,-58,152,-244
23871,4765,0,2023-03-01T18:51:58.739107,1708262,1418,1807,-572,-1184,-774,-301,-58,152,-244
23872,4766,0,2023-03-01T18:51:58.745225,1708268,1418,1807,-572,-1184,-774,-301,-58,152,-244
23873,4767,0,2023-03-01T18:51:58.750792,1708273,1418,1807,-572,-1184,-774,-301,-58,152,-244
23874,4768,0,2023-03-01T18:51:58.756565,1708279,1416,1803,-567,-1182,-781,-304,-58,152,-244
23875,4769,0,2023-03-01T18:51:58.762752,1708285,1416,1803,-567,-1182,-781,-304,-58,152,-244
23876,4770,0,2023-03-01T18:51:58.767631,1708291,1416,1803,-567,-1182,-781,-304,-58,152,-244
23877,4771,0,2023-03-01T18:51:58.773106,1708296,1416,1803,-567,-1182,-781,-304,-58,152,-244
23878,4772,0,2023-03-01T18:51:58.779834,1708303,1419,1812,-570,-1184,-779,-304,-58,152,-244
23879,4773,0,2023-03-01T18:51:58.786002,1708309,1419,1812,-570,-1184,-779,-304,-58,152,-244
23880,4774,0,2023-03-01T18:51:58.790957,1708314,1419,1812,-570,-1184,-779,-304,-58,152,-244
23881,4775,0,2023-03-01T18:51:58.796671,1708319,1416,1802,-566,-1190,-779,-297,-58,152,-244
23882,4776,0,2023-03-01T18:51:58.802425,1708325,1416,1802,-566,-1190,-779,-297,-58,152,-244
23883,4777,0,2023-03-01T18:51:58.807284,1708331,1416,1802,-566,-1190,-779,-297,-58,152,-244
23884,4778,0,2023-03-01T18:51:58.812950,1708336,1416,1802,-566,-1190,-779,-297,-58,152,-244
23885,4779,0,2023-03-01T18:51:58.819094,1708342,1419,1810,-564,-1181,-777,-299,-58,152,-244
23886,4780,0,2023-03-01T18:51:58.824645,1708348,1419,1810,-564,-1181,-777,-299,-58,152,-244
23887,4781,0,2023-03-01T18:51:58.829340,1708352,1419,1810,-564,-1181,-777,-299,-58,152,-244
23888,4782,0,2023-03-01T18:51:58.834698,1708358,1419,1810,-564,-1181,-777,-299,-58,152,-244
23889,4783,0,2023-03-01T18:51:58.839856,1708363,1416,1811,-568,-1176,-772,-300,-60,154,-248
23890,4784,0,2023-03-01T18:51:58.845321,1708368,1416,1811,-568,-1176,-772,-300,-60,154,-248
23891,4785,0,2023-03-01T18:51:58.850108,1708374,1416,1811,-568,-1176,-772,-300,-60,154,-248
23892,4786,0,2023-03-01T18:51:58.855852,1708379,1417,1806,-565,-1181,-784,-293,-60,154,-248
23893,4787,0,2023-03-01T18:51:58.862046,1708385,1417,1806,-565,-1181,-784,-293,-60,154,-248
23894,4788,0,2023-03-01T18:51:58.866780,1708390,1417,1806,-565,-1181,-784,-293,-60,154,-248
23895,4789,0,2023-03-01T18:51:58.872318,1708395,1417,1806,-565,-1181,-784,-293,-60,154,-248
23896,4790,0,2023-03-01T18:51:58.877270,1708400,1419,1808,-574,-1174,-780,-295,-60,154,-248
23897,4791,0,2023-03-01T18:51:58.883678,1708406,1419,1808,-574,-1174,-780,-295,-60,154,-248
23898,4792,0,2023-03-01T18:51:58.888383,1708411,1419,1808,-574,-1174,-780,-295,-60,154,-248
23899,4793,0,2023-03-01T18:51:58.894051,1708417,1419,1808,-574,-1174,-780,-295,-60,154,-248
23900,4794,0,2023-03-01T18:51:58.899380,1708423,1418,1810,-572,-1178,-774,-302,-60,154,-248
23901,4795,0,2023-03-01T18:51:58.904659,1708428,1418,1810,-572,-1178,-774,-302,-60,154,-248
23902,4796,0,2023-03-01T18:51:58.910092,1708433,1418,1810,-572,-1178,-774,-302,-60,154,-248
23903,4797,0,2023-03-01T18:51:58.915560,1708439,1414,1807,-568,-1185,-771,-307,-60,154,-248
23904,4798,0,2023-03-01T18:51:58.921152,1708444,1414,1807,-568,-1185,-771,-307,-60,154,-248
23905,4799,0,2023-03-01T18:51:58.926108,1708449,1414,1807,-568,-1185,-771,-307,-60,154,-248
23906,4800,0,2023-03-01T18:51:58.931185,1708454,1414,1807,-568,-1185,-771,-307,-60,154,-248
23907,4801,0,2023-03-01T18:51:58.936588,1708460,1419,1810,-574,-1169,-763,-304,-60,154,-248
23908,4802,0,2023-03-01T18:51:58.942300,1708466,1419,1810,-574,-1169,-763,-304,-60,154,-248
23909,4803,0,2023-03-01T18:51:58.947273,1708471,1419,1810,-574,-1169,-763,-304,-60,154,-248
23910,4804,0,2023-03-01T18:51:58.952273,1708475,1419,1810,-574,-1169,-763,-304,-60,154,-248
23911,4805,0,2023-03-01T18:51:58.957192,1708480,1413,1806,-572,-1162,-762,-298,-60,154,-248
23912,4806,0,2023-03-01T18:51:58.963687,1708486,1413,1806,-572,-1162,-762,-298,-60,154,-248
23913,4807,0,2023-03-01T18:51:58.968513,1708491,1413,1806,-572,-1162,-762,-298,-60,154,-248
23914,4808,0,2023-03-01T18:51:58.974072,1708497,1413,1806,-572,-1162,-762,-298,-60,154,-248
23915,4809,0,2023-03-01T18:51:58.978723,1708502,1417,1808,-568,-1167,-768,-303,-55,141,-245
23916,4810,0,2023-03-01T18:51:58.983946,1708507,1417,1808,-568,-1167,-768,-303,-55,141,-245
23917,4811,0,2023-03-01T18:51:58.989110,1708512,1417,1808,-568,-1167,-768,-303,-55,141,-245
23918,4812,0,2023-03-01T18:51:58.994342,1708517,1417,1808,-568,-1167,-768,-303,-55,141,-245
23919,4813,0,2023-03-01T18:51:59.000250,1708523,1422,1808,-567,-1161,-766,-301,-55,141,-245
23920,4814,0,2023-03-01T18:51:59.005508,1708528,1422,1808,-567,-1161,-766,-301,-55,141,-245
23921,4815,0,2023-03-01T18:51:59.010550,1708533,1422,1808,-567,-1161,-766,-301,-55,141,-245
23922,4816,0,2023-03-01T18:51:59.015953,1708539,1417,1801,-571,-1167,-777,-301,-55,141,-245
23923,4817,0,2023-03-01T18:51:59.021818,1708545,1417,1801,-571,-1167,-777,-301,-55,141,-245
23924,4818,0,2023-03-01T18:51:59.026827,1708550,1417,1801,-571,-1167,-777,-301,-55,141,-245
23925,4819,0,2023-03-01T18:51:59.031529,1708555,1417,1801,-571,-1167,-777,-301,-55,141,-245
23926,4820,0,2023-03-01T18:51:59.036522,1708559,1419,1809,-574,-1166,-776,-302,-55,141,-245
23927,4821,0,2023-03-01T18:51:59.042427,1708565,1419,1809,-574,-1166,-776,-302,-55,141,-245
23928,4822,0,2023-03-01T18:51:59.047387,1708570,1419,1809,-574,-1166,-776,-302,-55,141,-245
23929,4823,0,2023-03-01T18:51:59.053322,1708576,1419,1809,-574,-1166,-776,-302,-55,141,-245
23930,4824,0,2023-03-01T18:51:59.058023,1708581,1419,1807,-574,-1177,-773,-303,-55,141,-245
23931,4825,0,2023-03-01T18:51:59.064222,1708588,1419,1807,-574,-1177,-773,-303,-55,141,-245
23932,4826,0,2023-03-01T18:51:59.069133,1708592,1419,1807,-574,-1177,-773,-303,-55,141,-245
23933,4827,0,2023-03-01T18:51:59.075019,1708598,1419,1807,-574,-1177,-773,-303,-55,141,-245
23934,4828,0,2023-03-01T18:51:59.081105,1708604,1414,1807,-572,-1185,-770,-300,-55,141,-245
23935,4829,0,2023-03-01T18:51:59.086985,1708610,1414,1807,-572,-1185,-770,-300,-55,141,-245
23936,4830,0,2023-03-01T18:51:59.092463,1708615,1414,1807,-572,-1185,-770,-300,-55,141,-245
23937,4831,0,2023-03-01T18:51:59.097955,1708620,1422,1809,-567,-1183,-781,-302,-61,151,-245
23938,4832,0,2023-03-01T18:51:59.104185,1708627,1422,1809,-567,-1183,-781,-302,-61,151,-245
23939,4833,0,2023-03-01T18:51:59.109021,1708632,1422,1809,-567,-1183,-781,-302,-61,151,-245
23940,4834,0,2023-03-01T18:51:59.114890,1708638,1422,1809,-567,-1183,-781,-302,-61,151,-245
23941,4835,0,2023-03-01T18:51:59.120459,1708644,1418,1806,-570,-1179,-784,-295,-61,151,-245
23942,4836,0,2023-03-01T18:51:59.126128,1708649,1418,1806,-570,-1179,-784,-295,-61,151,-245
23943,4837,0,2023-03-01T18:51:59.131113,1708654,1418,1806,-570,-1179,-784,-295,-61,151,-245
23944,4838,0,2023-03-01T18:51:59.136901,1708660,1420,1810,-573,-1175,-779,-306,-61,151,-245
23945,4839,0,2023-03-01T18:51:59.143624,1708666,1420,1810,-573,-1175,-779,-306,-61,151,-245
23946,4840,0,2023-03-01T18:51:59.148540,1708672,1420,1810,-573,-1175,-779,-306,-61,151,-245
23947,4841,0,2023-03-01T18:51:59.154204,1708678,1420,1810,-573,-1175,-779,-306,-61,151,-245
23948,4842,0,2023-03-01T18:51:59.160117,1708683,1417,1808,-574,-1177,-778,-299,-61,151,-245
23949,4843,0,2023-03-01T18:51:59.165599,1708689,1417,1808,-574,-1177,-778,-299,-61,151,-245
23950,4844,0,2023-03-01T18:51:59.170639,1708694,1417,1808,-574,-1177,-778,-299,-61,151,-245
23951,4845,0,2023-03-01T18:51:59.176314,1708699,1418,1806,-565,-1184,-775,-300,-61,151,-245
23952,4846,0,2023-03-01T18:51:59.183573,1708705,1418,1806,-565,-1184,-775,-300,-61,151,-245
23953,4847,0,2023-03-01T18:51:59.190003,1708712,1418,1806,-565,-1184,-775,-300,-61,151,-245
23954,4848,0,2023-03-01T18:51:59.195923,1708719,1418,1806,-565,-1184,-775,-300,-61,151,-245
23955,4849,0,2023-03-01T18:51:59.200874,1708724,1419,1807,-570,-1183,-776,-301,-61,151,-245
23956,4850,0,2023-03-01T18:51:59.206649,1708730,1419,1807,-570,-1183,-776,-301,-61,151,-245
23957,4851,0,2023-03-01T18:51:59.211632,1708734,1419,1807,-570,-1183,-776,-301,-61,151,-245
23958,4852,0,2023-03-01T18:51:59.217982,1708741,1415,1805,-572,-1177,-780,-301,-57,145,-253
23959,4853,0,2023-03-01T18:51:59.223916,1708747,1415,1805,-572,-1177,-780,-301,-57,145,-253
23960,4854,0,2023-03-01T18:51:59.228620,1708751,1415,1805,-572,-1177,-780,-301,-57,145,-253
23961,4855,0,2023-03-01T18:51:59.234230,1708758,1415,1805,-572,-1177,-780,-301,-57,145,-253
23962,4856,0,2023-03-01T18:51:59.239005,1708762,1419,1807,-570,-1180,-779,-311,-57,145,-253
23963,4857,0,2023-03-01T18:51:59.244622,1708768,1419,1807,-570,-1180,-779,-311,-57,145,-253
23964,4858,0,2023-03-01T18:51:59.249549,1708773,1419,1807,-570,-1180,-779,-311,-57,145,-253
23965,4859,0,2023-03-01T18:51:59.255022,1708778,1419,1807,-570,-1180,-779,-311,-57,145,-253
23966,4860,0,2023-03-01T18:51:59.260609,1708783,1420,1808,-577,-1169,-774,-307,-57,145,-253
23967,4861,0,2023-03-01T18:51:59.265925,1708789,1420,1808,-577,-1169,-774,-307,-57,145,-253
23968,4862,0,2023-03-01T18:51:59.270872,1708793,1420,1808,-577,-1169,-774,-307,-57,145,-253
23969,4863,0,2023-03-01T18:51:59.276652,1708800,1418,1807,-570,-1175,-770,-299,-57,145,-253
23970,4864,0,2023-03-01T18:51:59.282574,1708806,1418,1807,-570,-1175,-770,-299,-57,145,-253
23971,4865,0,2023-03-01T18:51:59.287496,1708811,1418,1807,-570,-1175,-770,-299,-57,145,-253
23972,4866,0,2023-03-01T18:51:59.292974,1708816,1418,1807,-570,-1175,-770,-299,-57,145,-253
23973,4867,0,2023-03-01T18:51:59.297882,1708821,1420,1809,-572,-1171,-774,-298,-57,145,-253
23974,4868,0,2023-03-01T18:51:59.304187,1708827,1420,1809,-572,-1171,-774,-298,-57,145,-253
23975,4869,0,2023-03-01T18:51:59.308967,1708832,1420,1809,-572,-1171,-774,-298,-57,145,-253
23976,4870,0,2023-03-01T18:51:59.314334,1708837,1420,1809,-572,-1171,-774,-298,-57,145,-253
23977,4871,0,2023-03-01T18:51:59.319893,1708843,1418,1807,-570,-1178,-790,-302,-57,145,-253
23978,4872,0,2023-03-01T18:51:59.325460,1708849,1418,1807,-570,-1178,-790,-302,-57,145,-253
23979,4873,0,2023-03-01T18:51:59.330671,1708854,1418,1807,-570,-1178,-790,-302,-57,145,-253
23980,4874,0,2023-03-01T18:51:59.335857,1708859,1418,1807,-570,-1178,-790,-302,-57,145,-253
23981,4875,0,2023-03-01T18:51:59.341584,1708864,1416,1805,-577,-1187,-784,-301,-57,145,-253
23982,4876,0,2023-03-01T18:51:59.347592,1708870,1416,1805,-577,-1187,-784,-301,-57,145,-253
23983,4877,0,2023-03-01T18:51:59.353363,1708876,1416,1805,-577,-1187,-784,-301,-57,145,-253
23984,4878,0,2023-03-01T18:51:59.358287,1708881,1420,1811,-572,-1175,-776,-309,-58,152,-248
23985,4879,0,2023-03-01T18:51:59.363636,1708887,1420,1811,-572,-1175,-776,-309,-58,152,-248
23986,4880,0,2023-03-01T18:51:59.368207,1708892,1420,1811,-572,-1175,-776,-309,-58,152,-248
23987,4881,0,2023-03-01T18:51:59.374010,1708897,1420,1811,-572,-1175,-776,-309,-58,152,-248
23988,4882,0,2023-03-01T18:51:59.379024,1708902,1418,1804,-569,-1178,-777,-298,-58,152,-248
23989,4883,0,2023-03-01T18:51:59.384692,1708908,1418,1804,-569,-1178,-777,-298,-58,152,-248
23990,4884,0,2023-03-01T18:51:59.389471,1708912,1418,1804,-569,-1178,-777,-298,-58,152,-248
23991,4885,0,2023-03-01T18:51:59.394892,1708918,1418,1804,-569,-1178,-777,-298,-58,152,-248
23992,4886,0,2023-03-01T18:51:59.401133,1708923,1416,1808,-574,-1199,-782,-295,-58,152,-248
23993,4887,0,2023-03-01T18:51:59.406836,1708930,1416,1808,-574,-1199,-782,-295,-58,152,-248
23994,4888,0,2023-03-01T18:51:59.412142,1708935,1416,1808,-574,-1199,-782,-295,-58,152,-248
23995,4889,0,2023-03-01T18:51:59.417530,1708941,1418,1810,-575,-1179,-779,-303,-58,152,-248
23996,4890,0,2023-03-01T18:51:59.423153,1708946,1418,1810,-575,-1179,-779,-303,-58,152,-248
23997,4891,0,2023-03-01T18:51:59.428241,1708951,1418,1810,-575,-1179,-779,-303,-58,152,-248
23998,4892,0,2023-03-01T18:51:59.434172,1708957,1418,1810,-575,-1179,-779,-303,-58,152,-248
23999,4893,0,2023-03-01T18:51:59.439749,1708962,1414,1803,-574,-1175,-782,-294,-58,152,-248
24000,4894,0,2023-03-01T18:51:59.445376,1708968,1414,1803,-574,-1175,-782,-294,-58,152,-248
24001,4895,0,2023-03-01T18:51:59.450332,1708974,1414,1803,-574,-1175,-782,-294,-58,152,-248
24002,4896,0,2023-03-01T18:51:59.455793,1708979,1414,1803,-574,-1175,-782,-294,-58,152,-248
24003,4897,0,2023-03-01T18:51:59.461183,1708985,1419,1810,-574,-1187,-780,-298,-58,152,-248
24004,4898,0,2023-03-01T18:51:59.466981,1708990,1419,1810,-574,-1187,-780,-298,-58,152,-248
24005,4899,0,2023-03-01T18:51:59.471895,1708995,1419,1810,-574,-1187,-780,-298,-58,152,-248
24006,4900,0,2023-03-01T18:51:59.477770,1709000,1419,1809,-573,-1181,-786,-301,-56,152,-246
24007,4901,0,2023-03-01T18:51:59.483391,1709006,1419,1809,-573,-1181,-786,-301,-56,152,-246
24008,4902,0,2023-03-01T18:51:59.488792,1709011,1419,1809,-573,-1181,-786,-301,-56,152,-246
24009,4903,0,2023-03-01T18:51:59.494549,1709018,1419,1809,-573,-1181,-786,-301,-56,152,-246
24010,4904,0,2023-03-01T18:51:59.499470,1709023,1418,1804,-572,-1182,-785,-298,-56,152,-246
24011,4905,0,2023-03-01T18:51:59.506039,1709029,1418,1804,-572,-1182,-785,-298,-56,152,-246
24012,4906,0,2023-03-01T18:51:59.511283,1709034,1418,1804,-572,-1182,-785,-298,-56,152,-246
24013,4907,0,2023-03-01T18:51:59.516664,1709039,1420,1812,-571,-1187,-785,-301,-56,152,-246
24014,4908,0,2023-03-01T18:51:59.523521,1709046,1420,1812,-571,-1187,-785,-301,-56,152,-246
24015,4909,0,2023-03-01T18:51:59.528286,1709051,1420,1812,-571,-1187,-785,-301,-56,152,-246
24016,4910,0,2023-03-01T18:51:59.533586,1709057,1420,1812,-571,-1187,-785,-301,-56,152,-246
24017,4911,0,2023-03-01T18:51:59.538370,1709062,1418,1807,-571,-1184,-785,-308,-56,152,-246
24018,4912,0,2023-03-01T18:51:59.543645,1709067,1418,1807,-571,-1184,-785,-308,-56,152,-246
24019,4913,0,2023-03-01T18:51:59.548327,1709072,1418,1807,-571,-1184,-785,-308,-56,152,-246
24020,4914,0,2023-03-01T18:51:59.553741,1709077,1418,1807,-571,-1184,-785,-308,-56,152,-246
24021,4915,0,2023-03-01T18:51:59.558616,1709081,1419,1807,-572,-1189,-782,-304,-56,152,-246
24022,4916,0,2023-03-01T18:51:59.564181,1709087,1419,1807,-572,-1189,-782,-304,-56,152,-246
24023,4917,0,2023-03-01T18:51:59.568961,1709092,1419,1807,-572,-1189,-782,-304,-56,152,-246
24024,4918,0,2023-03-01T18:51:59.574313,1709097,1419,1807,-572,-1189,-782,-304,-56,152,-246
24025,4919,0,2023-03-01T18:51:59.579390,1709103,1418,1808,-576,-1188,-779,-304,-56,152,-246
24026,4920,0,2023-03-01T18:51:59.584875,1709108,1418,1808,-576,-1188,-779,-304,-56,152,-246
24027,4921,0,2023-03-01T18:51:59.589646,1709113,1418,1808,-576,-1188,-779,-304,-56,152,-246
24028,4922,0,2023-03-01T18:51:59.595138,1709118,1418,1808,-576,-1188,-779,-304,-56,152,-246
24029,4923,0,2023-03-01T18:51:59.599984,1709123,1419,1804,-572,-1189,-787,-301,-56,152,-246
24030,4924,0,2023-03-01T18:51:59.605880,1709128,1419,1804,-572,-1189,-787,-301,-56,152,-246
24031,4925,0,2023-03-01T18:51:59.610988,1709133,1419,1804,-572,-1189,-787,-301,-56,152,-246
24032,4926,0,2023-03-01T18:51:59.616023,1709138,1419,1804,-572,-1189,-787,-301,-56,152,-246
24033,4927,0,2023-03-01T18:51:59.620740,1709144,1421,1810,-565,-1190,-791,-295,-50,152,-246
24034,4928,0,2023-03-01T18:51:59.626170,1709150,1421,1810,-565,-1190,-791,-295,-50,152,-246
24035,4929,0,2023-03-01T18:51:59.632614,1709156,1421,1810,-565,-1190,-791,-295,-50,152,-246
24036,4930,0,2023-03-01T18:51:59.638217,1709161,1418,1807,-576,-1188,-800,-299,-50,152,-246
24037,4931,0,2023-03-01T18:51:59.644384,1709167,1418,1807,-576,-1188,-800,-299,-50,152,-246
24038,4932,0,2023-03-01T18:51:59.649631,1709172,1418,1807,-576,-1188,-800,-299,-50,152,-246
24039,4933,0,2023-03-01T18:51:59.655776,1709178,1418,1807,-576,-1188,-800,-299,-50,152,-246
24040,4934,0,2023-03-01T18:51:59.660729,1709184,1422,1806,-577,-1190,-797,-299,-50,152,-246
24041,4935,0,2023-03-01T18:51:59.666518,1709190,1422,1806,-577,-1190,-797,-299,-50,152,-246
24042,4936,0,2023-03-01T18:51:59.671684,1709195,1422,1806,-577,-1190,-797,-299,-50,152,-246
24043,4937,0,2023-03-01T18:51:59.677566,1709201,1417,1809,-572,-1195,-791,-302,-50,152,-246
24044,4938,0,2023-03-01T18:51:59.684487,1709207,1417,1809,-572,-1195,-791,-302,-50,152,-246
24045,4939,0,2023-03-01T18:51:59.689499,1709212,1417,1809,-572,-1195,-791,-302,-50,152,-246
24046,4940,0,2023-03-01T18:51:59.696171,1709219,1417,1809,-572,-1195,-791,-302,-50,152,-246
24047,4941,0,2023-03-01T18:51:59.701710,1709224,1416,1804,-577,-1188,-784,-298,-50,152,-246
24048,4942,0,2023-03-01T18:51:59.707390,1709231,1416,1804,-577,-1188,-784,-298,-50,152,-246
24049,4943,0,2023-03-01T18:51:59.712642,1709236,1416,1804,-577,-1188,-784,-298,-50,152,-246
24050,4944,0,2023-03-01T18:51:59.717730,1709241,1418,1807,-576,-1185,-781,-309,-50,152,-246
24051,4945,0,2023-03-01T18:51:59.724021,1709247,1418,1807,-576,-1185,-781,-309,-50,152,-246
24052,4946,0,2023-03-01T18:51:59.729273,1709252,1418,1807,-576,-1185,-781,-309,-50,152,-246
24053,4947,0,2023-03-01T18:51:59.735016,1709258,1418,1807,-576,-1185,-781,-309,-50,152,-246
24054,4948,0,2023-03-01T18:51:59.740841,1709263,1421,1808,-568,-1190,-793,-303,-53,149,-245
24055,4949,0,2023-03-01T18:51:59.746674,1709270,1421,1808,-568,-1190,-793,-303,-53,149,-245
24056,4950,0,2023-03-01T18:51:59.752057,1709275,1421,1808,-568,-1190,-793,-303,-53,149,-245
24057,4951,0,2023-03-01T18:51:59.757682,1709281,1418,1805,-572,-1191,-801,-298,-53,149,-245
24058,4952,0,2023-03-01T18:51:59.763103,1709286,1418,1805,-572,-1191,-801,-298,-53,149,-245
24059,4953,0,2023-03-01T18:51:59.767902,1709291,1418,1805,-572,-1191,-801,-298,-53,149,-245
24060,4954,0,2023-03-01T18:51:59.774095,1709297,1418,1805,-572,-1191,-801,-298,-53,149,-245
24061,4955,0,2023-03-01T18:51:59.779584,1709303,1422,1810,-578,-1184,-791,-305,-53,149,-245
24062,4956,0,2023-03-01T18:51:59.785184,1709308,1422,1810,-578,-1184,-791,-305,-53,149,-245
24063,4957,0,2023-03-01T18:51:59.790361,1709314,1422,1810,-578,-1184,-791,-305,-53,149,-245
24064,4958,0,2023-03-01T18:51:59.796123,1709319,1422,1810,-578,-1184,-791,-305,-53,149,-245
24065,4959,0,2023-03-01T18:51:59.801035,1709324,1418,1809,-575,-1191,-788,-305,-53,149,-245
24066,4960,0,2023-03-01T18:51:59.806731,1709330,1418,1809,-575,-1191,-788,-305,-53,149,-245
24067,4961,0,2023-03-01T18:51:59.812058,1709335,1418,1809,-575,-1191,-788,-305,-53,149,-245
24068,4962,0,2023-03-01T18:51:59.817808,1709340,1417,1807,-576,-1202,-800,-291,-53,149,-245
24069,4963,0,2023-03-01T18:51:59.823816,1709346,1417,1807,-576,-1202,-800,-291,-53,149,-245
24070,4964,0,2023-03-01T18:51:59.828881,1709351,1417,1807,-576,-1202,-800,-291,-53,149,-245
24071,4965,0,2023-03-01T18:51:59.834719,1709358,1417,1807,-576,-1202,-800,-291,-53,149,-245
24072,4966,0,2023-03-01T18:51:59.839984,1709363,1420,1807,-571,-1192,-790,-303,-53,149,-245
24073,4967,0,2023-03-01T18:51:59.845299,1709369,1420,1807,-571,-1192,-790,-303,-53,149,-245
24074,4968,0,2023-03-01T18:51:59.850431,1709373,1420,1807,-571,-1192,-790,-303,-53,149,-245
24075,4969,0,2023-03-01T18:51:59.856351,1709379,1420,1807,-571,-1192,-790,-303,-53,149,-245
24076,4970,0,2023-03-01T18:51:59.861619,1709384,1414,1805,-572,-1170,-778,-295,-53,149,-245
24077,4971,0,2023-03-01T18:51:59.868099,1709391,1414,1805,-572,-1170,-778,-295,-53,149,-245
24078,4972,0,2023-03-01T18:51:59.873138,1709396,1414,1805,-572,-1170,-778,-295,-53,149,-245
24079,4973,0,2023-03-01T18:51:59.878103,1709402,1419,1809,-572,-1169,-765,-304,-57,143,-243
24080,4974,0,2023-03-01T18:51:59.884002,1709407,1419,1809,-572,-1169,-765,-304,-57,143,-243
24081,4975,0,2023-03-01T18:51:59.888865,1709412,1419,1809,-572,-1169,-765,-304,-57,143,-243
24082,4976,0,2023-03-01T18:51:59.894327,1709417,1419,1809,-572,-1169,-765,-304,-57,143,-243
24083,4977,0,2023-03-01T18:51:59.899182,1709422,1415,1807,-578,-1163,-761,-301,-57,143,-243
24084,4978,0,2023-03-01T18:51:59.904809,1709428,1415,1807,-578,-1163,-761,-301,-57,143,-243
24085,4979,0,2023-03-01T18:51:59.909271,1709432,1415,1807,-578,-1163,-761,-301,-57,143,-243
24086,4980,0,2023-03-01T18:51:59.914696,1709437,1415,1807,-578,-1163,-761,-301,-57,143,-243
24087,4981,0,2023-03-01T18:51:59.919685,1709443,1417,1807,-571,-1168,-762,-304,-57,143,-243
24088,4982,0,2023-03-01T18:51:59.925636,1709449,1417,1807,-571,-1168,-762,-304,-57,143,-243
24089,4983,0,2023-03-01T18:51:59.930438,1709454,1417,1807,-571,-1168,-762,-304,-57,143,-243
24090,4984,0,2023-03-01T18:51:59.935702,1709459,1417,1807,-571,-1168,-762,-304,-57,143,-243
24091,4985,0,2023-03-01T18:51:59.941200,1709464,1418,1809,-579,-1169,-769,-303,-57,143,-243
24092,4986,0,2023-03-01T18:51:59.946638,1709470,1418,1809,-579,-1169,-769,-303,-57,143,-243
24093,4987,0,2023-03-01T18:51:59.951260,1709474,1418,1809,-579,-1169,-769,-303,-57,143,-243
24094,4988,0,2023-03-01T18:51:59.956989,1709479,1418,1809,-579,-1169,-769,-303,-57,143,-243
24095,4989,0,2023-03-01T18:51:59.962758,1709486,1418,1804,-583,-1172,-763,-303,-57,143,-243
24096,4990,0,2023-03-01T18:51:59.968171,1709492,1418,1804,-583,-1172,-763,-303,-57,143,-243
24097,4991,0,2023-03-01T18:51:59.973682,1709497,1418,1804,-583,-1172,-763,-303,-57,143,-243
24098,4992,0,2023-03-01T18:51:59.978587,1709502,1420,1808,-578,-1170,-762,-304,-57,143,-243
24099,4993,0,2023-03-01T18:51:59.984833,1709508,1420,1808,-578,-1170,-762,-304,-57,143,-243
24100,4994,0,2023-03-01T18:51:59.989769,1709513,1420,1808,-578,-1170,-762,-304,-57,143,-243
24101,4995,0,2023-03-01T18:51:59.994886,1709518,1420,1808,-578,-1170,-762,-304,-57,143,-243
24102,4996,0,2023-03-01T18:52:00.000575,1709523,1419,1809,-567,-1177,-763,-303,-54,148,-248
24103,4997,0,2023-03-01T18:52:00.006093,1709529,1419,1809,-567,-1177,-763,-303,-54,148,-248
24104,4998,0,2023-03-01T18:52:00.011335,1709534,1419,1809,-567,-1177,-763,-303,-54,148,-248
24105,4999,0,2023-03-01T18:52:00.017124,1709540,1419,1809,-567,-1177,-763,-303,-54,148,-248
24106,5000,0,2023-03-01T18:52:00.022074,1709545,1415,1807,-567,-1182,-759,-305,-54,148,-248
24107,5001,0,2023-03-01T18:52:00.027924,1709551,1415,1807,-567,-1182,-759,-305,-54,148,-248
24108,5002,0,2023-03-01T18:52:00.033382,1709556,1415,1807,-567,-1182,-759,-305,-54,148,-248
24109,5003,0,2023-03-01T18:52:00.038138,1709561,1420,1809,-571,-1183,-775,-306,-54,148,-248
24110,5004,0,2023-03-01T18:52:00.044417,1709568,1420,1809,-571,-1183,-775,-306,-54,148,-248
24111,5005,0,2023-03-01T18:52:00.048936,1709573,1420,1809,-571,-1183,-775,-306,-54,148,-248
24112,5006,0,2023-03-01T18:52:00.054288,1709577,1420,1809,-571,-1183,-775,-306,-54,148,-248
24113,5007,0,2023-03-01T18:52:00.059775,1709583,1419,1807,-571,-1177,-770,-303,-54,148,-248
24114,5008,0,2023-03-01T18:52:00.065246,1709588,1419,1807,-571,-1177,-770,-303,-54,148,-248
24115,5009,0,2023-03-01T18:52:00.070337,1709593,1419,1807,-571,-1177,-770,-303,-54,148,-248
24116,5010,0,2023-03-01T18:52:00.075956,1709599,1419,1807,-571,-1177,-770,-303,-54,148,-248
24117,5011,0,2023-03-01T18:52:00.081219,1709604,1419,1809,-574,-1161,-757,-309,-54,148,-248
24118,5012,0,2023-03-01T18:52:00.086792,1709609,1419,1809,-574,-1161,-757,-309,-54,148,-248
24119,5013,0,2023-03-01T18:52:00.091686,1709615,1419,1809,-574,-1161,-757,-309,-54,148,-248
24120,5014,0,2023-03-01T18:52:00.097363,1709621,1419,1809,-574,-1161,-757,-309,-54,148,-248
24121,5015,0,2023-03-01T18:52:00.101979,1709625,1419,1809,-574,-1161,-757,-309,-54,148,-248
24122,5016,0,2023-03-01T18:52:00.106677,1709630,1419,1809,-574,-1161,-757,-309,-54,148,-248
24123,5017,0,2023-03-01T18:52:00.111481,1709634,1419,1809,-574,-1161,-757,-309,-54,148,-248
24124,5018,0,2023-03-01T18:52:00.116886,1709640,1419,1809,-574,-1161,-757,-309,-54,148,-248
24125,5019,0,2023-03-01T18:52:00.122280,1709645,1419,1802,-573,-1162,-769,-306,-49,141,-243
24126,5020,0,2023-03-01T18:52:00.127635,1709650,1419,1802,-573,-1162,-769,-306,-49,141,-243
24127,5021,0,2023-03-01T18:52:00.132808,1709657,1419,1802,-573,-1162,-769,-306,-49,141,-243
24128,5022,0,2023-03-01T18:52:00.137951,1709661,1421,1805,-572,-1163,-768,-307,-49,141,-243
24129,5023,0,2023-03-01T18:52:00.143769,1709667,1421,1805,-572,-1163,-768,-307,-49,141,-243
24130,5024,0,2023-03-01T18:52:00.148976,1709672,1421,1805,-572,-1163,-768,-307,-49,141,-243
24131,5025,0,2023-03-01T18:52:00.154140,1709677,1421,1805,-572,-1163,-768,-307,-49,141,-243
24132,5026,0,2023-03-01T18:52:00.159254,1709682,1419,1804,-569,-1171,-770,-301,-49,141,-243
24133,5027,0,2023-03-01T18:52:00.164930,1709687,1419,1804,-569,-1171,-770,-301,-49,141,-243
24134,5028,0,2023-03-01T18:52:00.170069,1709693,1419,1804,-569,-1171,-770,-301,-49,141,-243
24135,5029,0,2023-03-01T18:52:00.175677,1709699,1419,1804,-569,-1171,-770,-301,-49,141,-243
24136,5030,0,2023-03-01T18:52:00.180669,1709704,1418,1806,-576,-1168,-764,-298,-49,141,-243
24137,5031,0,2023-03-01T18:52:00.186454,1709710,1418,1806,-576,-1168,-764,-298,-49,141,-243
24138,5032,0,2023-03-01T18:52:00.191255,1709714,1418,1806,-576,-1168,-764,-298,-49,141,-243
24139,5033,0,2023-03-01T18:52:00.196878,1709720,1418,1806,-576,-1168,-764,-298,-49,141,-243
24140,5034,0,2023-03-01T18:52:00.202538,1709725,1418,1810,-569,-1164,-762,-298,-49,141,-243
24141,5035,0,2023-03-01T18:52:00.208581,1709731,1418,1810,-569,-1164,-762,-298,-49,141,-243
24142,5036,0,2023-03-01T18:52:00.214250,1709737,1418,1810,-569,-1164,-762,-298,-49,141,-243
24143,5037,0,2023-03-01T18:52:00.219208,1709742,1418,1807,-568,-1163,-762,-293,-49,141,-243
24144,5038,0,2023-03-01T18:52:00.226617,1709750,1418,1807,-568,-1163,-762,-293,-49,141,-243
24145,5039,0,2023-03-01T18:52:00.231959,1709755,1418,1807,-568,-1163,-762,-293,-49,141,-243
24146,5040,0,2023-03-01T18:52:00.237397,1709760,1418,1807,-568,-1163,-762,-293,-49,141,-243
24147,5041,0,2023-03-01T18:52:00.242498,1709765,1420,1809,-575,-1162,-762,-299,-49,141,-243
24148,5042,0,2023-03-01T18:52:00.248474,1709771,1420,1809,-575,-1162,-762,-299,-49,141,-243
24149,5043,0,2023-03-01T18:52:00.254095,1709777,1420,1809,-575,-1162,-762,-299,-49,141,-243
24150,5044,0,2023-03-01T18:52:00.259235,1709782,1420,1804,-571,-1172,-768,-294,-54,148,-250
24151,5045,0,2023-03-01T18:52:00.264876,1709788,1420,1804,-571,-1172,-768,-294,-54,148,-250
24152,5046,0,2023-03-01T18:52:00.270062,1709793,1420,1804,-571,-1172,-768,-294,-54,148,-250
24153,5047,0,2023-03-01T18:52:00.275510,1709799,1420,1804,-571,-1172,-768,-294,-54,148,-250
24154,5048,0,2023-03-01T18:52:00.280393,1709803,1421,1802,-579,-1170,-770,-307,-54,148,-250
24155,5049,0,2023-03-01T18:52:00.285919,1709809,1421,1802,-579,-1170,-770,-307,-54,148,-250
24156,5050,0,2023-03-01T18:52:00.291011,1709814,1421,1802,-579,-1170,-770,-307,-54,148,-250
24157,5051,0,2023-03-01T18:52:00.296760,1709819,1421,1802,-579,-1170,-770,-307,-54,148,-250
24158,5052,0,2023-03-01T18:52:00.302029,1709826,1421,1807,-574,-1174,-770,-304,-54,148,-250
24159,5053,0,2023-03-01T18:52:00.307308,1709831,1421,1807,-574,-1174,-770,-304,-54,148,-250
24160,5054,0,2023-03-01T18:52:00.312659,1709836,1421,1807,-574,-1174,-770,-304,-54,148,-250
24161,5055,0,2023-03-01T18:52:00.317846,1709841,1416,1804,-574,-1172,-763,-302,-54,148,-250
24162,5056,0,2023-03-01T18:52:00.323731,1709847,1416,1804,-574,-1172,-763,-302,-54,148,-250
24163,5057,0,2023-03-01T18:52:00.328466,1709852,1416,1804,-574,-1172,-763,-302,-54,148,-250
24164,5058,0,2023-03-01T18:52:00.333449,1709856,1416,1804,-574,-1172,-763,-302,-54,148,-250
24165,5059,0,2023-03-01T18:52:00.338502,1709861,1422,1808,-577,-1181,-769,-306,-54,148,-250
24166,5060,0,2023-03-01T18:52:00.344938,1709868,1422,1808,-577,-1181,-769,-306,-54,148,-250
24167,5061,0,2023-03-01T18:52:00.349636,1709873,1422,1808,-577,-1181,-769,-306,-54,148,-250
24168,5062,0,2023-03-01T18:52:00.354843,1709878,1422,1808,-577,-1181,-769,-306,-54,148,-250
24169,5063,0,2023-03-01T18:52:00.360358,1709883,1418,1806,-576,-1176,-771,-303,-54,148,-250
24170,5064,0,2023-03-01T18:52:00.366084,1709889,1418,1806,-576,-1176,-771,-303,-54,148,-250
24171,5065,0,2023-03-01T18:52:00.371488,1709894,1418,1806,-576,-1176,-771,-303,-54,148,-250
24172,5066,0,2023-03-01T18:52:00.377262,1709900,1418,1806,-576,-1176,-771,-303,-54,148,-250
24173,5067,0,2023-03-01T18:52:00.381945,1709905,1415,1805,-570,-1180,-789,-300,-55,153,-247
24174,5068,0,2023-03-01T18:52:00.387309,1709911,1415,1805,-570,-1180,-789,-300,-55,153,-247
24175,5069,0,2023-03-01T18:52:00.392657,1709916,1415,1805,-570,-1180,-789,-300,-55,153,-247
24176,5070,0,2023-03-01T18:52:00.397649,1709921,1420,1810,-576,-1177,-786,-302,-55,153,-247
24177,5071,0,2023-03-01T18:52:00.405008,1709928,1420,1810,-576,-1177,-786,-302,-55,153,-247
24178,5072,0,2023-03-01T18:52:00.409589,1709933,1420,1810,-576,-1177,-786,-302,-55,153,-247
24179,5073,0,2023-03-01T18:52:00.415108,1709938,1420,1810,-576,-1177,-786,-302,-55,153,-247
24180,5074,0,2023-03-01T18:52:00.420457,1709943,1422,1807,-572,-1188,-791,-305,-55,153,-247
24181,5075,0,2023-03-01T18:52:00.426061,1709949,1422,1807,-572,-1188,-791,-305,-55,153,-247
24182,5076,0,2023-03-01T18:52:00.431038,1709955,1422,1807,-572,-1188,-791,-305,-55,153,-247
24183,5077,0,2023-03-01T18:52:00.436271,1709960,1422,1807,-572,-1188,-791,-305,-55,153,-247
24184,5078,0,2023-03-01T18:52:00.441081,1709964,1417,1805,-574,-1186,-784,-312,-55,153,-247
24185,5079,0,2023-03-01T18:52:00.446644,1709970,1417,1805,-574,-1186,-784,-312,-55,153,-247
24186,5080,0,2023-03-01T18:52:00.451334,1709975,1417,1805,-574,-1186,-784,-312,-55,153,-247
24187,5081,0,2023-03-01T18:52:00.456255,1709979,1417,1805,-574,-1186,-784,-312,-55,153,-247
24188,5082,0,2023-03-01T18:52:00.461817,1709985,1421,1806,-577,-1193,-785,-312,-55,153,-247
24189,5083,0,2023-03-01T18:52:00.467778,1709990,1421,1806,-577,-1193,-785,-312,-55,153,-247
24190,5084,0,2023-03-01T18:52:00.473034,1709997,1421,1806,-577,-1193,-785,-312,-55,153,-247
24191,5085,0,2023-03-01T18:52:00.477900,1710001,1416,1805,-577,-1190,-777,-302,-55,153,-247
24192,5086,0,2023-03-01T18:52:00.483412,1710007,1416,1805,-577,-1190,-777,-302,-55,153,-247
24193,5087,0,2023-03-01T18:52:00.488645,1710012,1416,1805,-577,-1190,-777,-302,-55,153,-247
24194,5088,0,2023-03-01T18:52:00.494085,1710017,1416,1805,-577,-1190,-777,-302,-55,153,-247
24195,5089,0,2023-03-01T18:52:00.498797,1710022,1417,1805,-577,-1186,-787,-297,-55,153,-247
24196,5090,0,2023-03-01T18:52:00.504709,1710027,1417,1805,-577,-1186,-787,-297,-55,153,-247
24197,5091,0,2023-03-01T18:52:00.509669,1710032,1417,1805,-577,-1186,-787,-297,-55,153,-247
24198,5092,0,2023-03-01T18:52:00.515219,1710039,1417,1805,-577,-1186,-787,-297,-55,153,-247
24199,5093,0,2023-03-01T18:52:00.519988,1710043,1420,1809,-575,-1174,-789,-303,-56,148,-244
24200,5094,0,2023-03-01T18:52:00.525350,1710049,1420,1809,-575,-1174,-789,-303,-56,148,-244
24201,5095,0,2023-03-01T18:52:00.529920,1710053,1420,1809,-575,-1174,-789,-303,-56,148,-244
24202,5096,0,2023-03-01T18:52:00.535492,1710058,1420,1809,-575,-1174,-789,-303,-56,148,-244
24203,5097,0,2023-03-01T18:52:00.540993,1710064,1418,1805,-577,-1176,-784,-299,-56,148,-244
24204,5098,0,2023-03-01T18:52:00.546507,1710069,1418,1805,-577,-1176,-784,-299,-56,148,-244
24205,5099,0,2023-03-01T18:52:00.551672,1710074,1418,1805,-577,-1176,-784,-299,-56,148,-244
24206,5100,0,2023-03-01T18:52:00.557535,1710081,1418,1805,-577,-1176,-784,-299,-56,148,-244
24207,5101,0,2023-03-01T18:52:00.563127,1710087,1420,1809,-578,-1180,-785,-296,-56,148,-244
24208,5102,0,2023-03-01T18:52:00.568765,1710092,1420,1809,-578,-1180,-785,-296,-56,148,-244
24209,5103,0,2023-03-01T18:52:00.574170,1710097,1420,1809,-578,-1180,-785,-296,-56,148,-244
24210,5104,0,2023-03-01T18:52:00.579016,1710102,1420,1807,-580,-1177,-779,-294,-56,148,-244
24211,5105,0,2023-03-01T18:52:00.585800,1710109,1420,1807,-580,-1177,-779,-294,-56,148,-244
24212,5106,0,2023-03-01T18:52:00.590651,1710113,1420,1807,-580,-1177,-779,-294,-56,148,-244
24213,5107,0,2023-03-01T18:52:00.596212,1710119,1420,1807,-580,-1177,-779,-294,-56,148,-244
24214,5108,0,2023-03-01T18:52:00.601266,1710124,1415,1804,-581,-1179,-784,-295,-56,148,-244
24215,5109,0,2023-03-01T18:52:00.606451,1710130,1415,1804,-581,-1179,-784,-295,-56,148,-244
24216,5110,0,2023-03-01T18:52:00.611239,1710135,1415,1804,-581,-1179,-784,-295,-56,148,-244
24217,5111,0,2023-03-01T18:52:00.617090,1710140,1415,1804,-581,-1179,-784,-295,-56,148,-244
24218,5112,0,2023-03-01T18:52:00.622865,1710146,1420,1812,-582,-1183,-787,-299,-56,148,-244
24219,5113,0,2023-03-01T18:52:00.628369,1710151,1420,1812,-582,-1183,-787,-299,-56,148,-244
24220,5114,0,2023-03-01T18:52:00.633125,1710156,1420,1812,-582,-1183,-787,-299,-56,148,-244
24221,5115,0,2023-03-01T18:52:00.637848,1710161,1418,1807,-571,-1186,-791,-296,-56,148,-244
24222,5116,0,2023-03-01T18:52:00.643624,1710167,1418,1807,-571,-1186,-791,-296,-61,151,-249
24223,5117,0,2023-03-01T18:52:00.648663,1710172,1418,1807,-571,-1186,-791,-296,-61,151,-249
24224,5118,0,2023-03-01T18:52:00.653258,1710177,1418,1807,-571,-1186,-791,-296,-61,151,-249
24225,5119,0,2023-03-01T18:52:00.658304,1710181,1421,1804,-577,-1194,-793,-299,-61,151,-249
24226,5120,0,2023-03-01T18:52:00.664166,1710187,1421,1804,-577,-1194,-793,-299,-61,151,-249
24227,5121,0,2023-03-01T18:52:00.668919,1710192,1421,1804,-577,-1194,-793,-299,-61,151,-249
24228,5122,0,2023-03-01T18:52:00.674454,1710197,1421,1804,-577,-1194,-793,-299,-61,151,-249
24229,5123,0,2023-03-01T18:52:00.679588,1710202,1416,1808,-577,-1183,-785,-302,-61,151,-249
24230,5124,0,2023-03-01T18:52:00.685392,1710209,1416,1808,-577,-1183,-785,-302,-61,151,-249
24231,5125,0,2023-03-01T18:52:00.689997,1710214,1416,1808,-577,-1183,-785,-302,-61,151,-249
24232,5126,0,2023-03-01T18:52:00.695127,1710218,1416,1808,-577,-1183,-785,-302,-61,151,-249
24233,5127,0,2023-03-01T18:52:00.700957,1710224,1416,1804,-578,-1175,-788,-301,-61,151,-249
24234,5128,0,2023-03-01T18:52:00.707068,1710230,1416,1804,-578,-1175,-788,-301,-61,151,-249
24235,5129,0,2023-03-01T18:52:00.711902,1710235,1416,1804,-578,-1175,-788,-301,-61,151,-249
24236,5130,0,2023-03-01T18:52:00.717280,1710240,1416,1804,-578,-1175,-788,-301,-61,151,-249
24237,5131,0,2023-03-01T18:52:00.722946,1710246,1418,1806,-585,-1180,-791,-301,-61,151,-249
24238,5132,0,2023-03-01T18:52:00.729154,1710252,1418,1806,-585,-1180,-791,-301,-61,151,-249
24239,5133,0,2023-03-01T18:52:00.735473,1710259,1418,1806,-585,-1180,-791,-301,-61,151,-249
24240,5134,0,2023-03-01T18:52:00.740227,1710264,1415,1805,-578,-1183,-789,-300,-61,151,-249
24241,5135,0,2023-03-01T18:52:00.745653,1710269,1415,1805,-578,-1183,-789,-300,-61,151,-249
24242,5136,0,2023-03-01T18:52:00.750208,1710273,1415,1805,-578,-1183,-789,-300,-61,151,-249
24243,5137,0,2023-03-01T18:52:00.756434,1710279,1415,1805,-578,-1183,-789,-300,-61,151,-249
24244,5138,0,2023-03-01T18:52:00.761788,1710284,1416,1805,-580,-1193,-792,-297,-61,151,-249
24245,5139,0,2023-03-01T18:52:00.767980,1710290,1416,1805,-580,-1193,-792,-297,-61,151,-249
24246,5140,0,2023-03-01T18:52:00.773800,1710297,1416,1805,-580,-1193,-792,-297,-61,151,-249
24247,5141,0,2023-03-01T18:52:00.778437,1710302,1421,1809,-573,-1190,-789,-301,-51,149,-245
24248,5142,0,2023-03-01T18:52:00.784048,1710307,1421,1809,-573,-1190,-789,-301,-51,149,-245
24249,5143,0,2023-03-01T18:52:00.790309,1710312,1421,1809,-573,-1190,-789,-301,-51,149,-245
24250,5144,0,2023-03-01T18:52:00.796108,1710319,1421,1809,-573,-1190,-789,-301,-51,149,-245
24251,5145,0,2023-03-01T18:52:00.801031,1710324,1418,1807,-572,-1199,-795,-291,-51,149,-245
24252,5146,0,2023-03-01T18:52:00.806422,1710329,1418,1807,-572,-1199,-795,-291,-51,149,-245
24253,5147,0,2023-03-01T18:52:00.811426,1710334,1418,1807,-572,-1199,-795,-291,-51,149,-245
24254,5148,0,2023-03-01T18:52:00.817139,1710340,1418,1807,-572,-1199,-795,-291,-51,149,-245
24255,5149,0,2023-03-01T18:52:00.823027,1710346,1416,1807,-574,-1190,-807,-297,-51,149,-245
24256,5150,0,2023-03-01T18:52:00.828660,1710352,1416,1807,-574,-1190,-807,-297,-51,149,-245
24257,5151,0,2023-03-01T18:52:00.834443,1710357,1416,1807,-574,-1190,-807,-297,-51,149,-245
24258,5152,0,2023-03-01T18:52:00.840459,1710363,1421,1806,-578,-1196,-803,-294,-51,149,-245
24259,5153,0,2023-03-01T18:52:00.846724,1710369,1421,1806,-578,-1196,-803,-294,-51,149,-245
24260,5154,0,2023-03-01T18:52:00.851697,1710374,1421,1806,-578,-1196,-803,-294,-51,149,-245
24261,5155,0,2023-03-01T18:52:00.857264,1710381,1421,1806,-578,-1196,-803,-294,-51,149,-245
24262,5156,0,2023-03-01T18:52:00.862424,1710386,1418,1802,-580,-1188,-790,-298,-51,149,-245
24263,5157,0,2023-03-01T18:52:00.867746,1710391,1418,1802,-580,-1188,-790,-298,-51,149,-245
24264,5158,0,2023-03-01T18:52:00.873409,1710396,1418,1802,-580,-1188,-790,-298,-51,149,-245
24265,5159,0,2023-03-01T18:52:00.878269,1710401,1419,1806,-586,-1186,-780,-300,-51,149,-245
24266,5160,0,2023-03-01T18:52:00.884337,1710407,1419,1806,-586,-1186,-780,-300,-51,149,-245
24267,5161,0,2023-03-01T18:52:00.889313,1710412,1419,1806,-586,-1186,-780,-300,-51,149,-245
24268,5162,0,2023-03-01T18:52:00.894930,1710417,1419,1806,-586,-1186,-780,-300,-51,149,-245
24269,5163,0,2023-03-01T18:52:00.900549,1710423,1419,1808,-578,-1173,-779,-302,-51,145,-245
24270,5164,0,2023-03-01T18:52:00.906016,1710429,1419,1808,-578,-1173,-779,-302,-51,145,-245
24271,5165,0,2023-03-01T18:52:00.910793,1710434,1419,1808,-578,-1173,-779,-302,-51,145,-245
24272,5166,0,2023-03-01T18:52:00.916640,1710440,1419,1808,-578,-1173,-779,-302,-51,145,-245
24273,5167,0,2023-03-01T18:52:00.921335,1710444,1416,1807,-579,-1164,-766,-300,-51,145,-245
24274,5168,0,2023-03-01T18:52:00.926566,1710450,1416,1807,-579,-1164,-766,-300,-51,145,-245
24275,5169,0,2023-03-01T18:52:00.932018,1710455,1416,1807,-579,-1164,-766,-300,-51,145,-245
24276,5170,0,2023-03-01T18:52:00.938033,1710461,1416,1807,-579,-1164,-766,-300,-51,145,-245
24277,5171,0,2023-03-01T18:52:00.943529,1710466,1418,1808,-579,-1175,-766,-298,-51,145,-245
24278,5172,0,2023-03-01T18:52:00.948938,1710472,1418,1808,-579,-1175,-766,-298,-51,145,-245
24279,5173,0,2023-03-01T18:52:00.954770,1710478,1418,1808,-579,-1175,-766,-298,-51,145,-245
24280,5174,0,2023-03-01T18:52:00.960027,1710483,1418,1805,-577,-1177,-769,-299,-51,145,-245
24281,5175,0,2023-03-01T18:52:00.965239,1710488,1418,1805,-577,-1177,-769,-299,-51,145,-245
24282,5176,0,2023-03-01T18:52:00.970101,1710493,1418,1805,-577,-1177,-769,-299,-51,145,-245
24283,5177,0,2023-03-01T18:52:00.975560,1710498,1418,1805,-577,-1177,-769,-299,-51,145,-245
24284,5178,0,2023-03-01T18:52:00.980293,1710503,1418,1806,-575,-1177,-763,-298,-51,145,-245
24285,5179,0,2023-03-01T18:52:00.985971,1710509,1418,1806,-575,-1177,-763,-298,-51,145,-245
24286,5180,0,2023-03-01T18:52:00.990750,1710514,1418,1806,-575,-1177,-763,-298,-51,145,-245
24287,5181,0,2023-03-01T18:52:00.995605,1710519,1418,1806,-575,-1177,-763,-298,-51,145,-245
24288,5182,0,2023-03-01T18:52:01.001515,1710524,1420,1807,-579,-1174,-758,-298,-51,145,-245
24289,5183,0,2023-03-01T18:52:01.007220,1710530,1420,1807,-579,-1174,-758,-298,-51,145,-245
24290,5184,0,2023-03-01T18:52:01.013049,1710535,1420,1807,-579,-1174,-758,-298,-51,145,-245
24291,5185,0,2023-03-01T18:52:01.018597,1710541,1416,1805,-576,-1177,-766,-298,-51,145,-245
24292,5186,0,2023-03-01T18:52:01.024254,1710547,1416,1805,-576,-1177,-766,-298,-50,146,-252
24293,5187,0,2023-03-01T18:52:01.028892,1710552,1416,1805,-576,-1177,-766,-298,-50,146,-252
24294,5188,0,2023-03-01T18:52:01.034394,1710558,1416,1805,-576,-1177,-766,-298,-50,146,-252
24295,5189,0,2023-03-01T18:52:01.039439,1710563,1422,1808,-574,-1164,-776,-301,-50,146,-252
24296,5190,0,2023-03-01T18:52:01.045922,1710569,1422,1808,-574,-1164,-776,-301,-50,146,-252
24297,5191,0,2023-03-01T18:52:01.050553,1710574,1422,1808,-574,-1164,-776,-301,-50,146,-252
24298,5192,0,2023-03-01T18:52:01.056484,1710579,1422,1808,-574,-1164,-776,-301,-50,146,-252
24299,5193,0,2023-03-01T18:52:01.062532,1710585,1417,1807,-585,-1171,-791,-301,-50,146,-252
24300,5194,0,2023-03-01T18:52:01.068109,1710592,1417,1807,-585,-1171,-791,-301,-50,146,-252
24301,5195,0,2023-03-01T18:52:01.073753,1710597,1417,1807,-585,-1171,-791,-301,-50,146,-252
24302,5196,0,2023-03-01T18:52:01.078458,1710602,1419,1802,-580,-1186,-800,-310,-50,146,-252
24303,5197,0,2023-03-01T18:52:01.083486,1710607,1419,1802,-580,-1186,-800,-310,-50,146,-252
24304,5198,0,2023-03-01T18:52:01.088228,1710611,1419,1802,-580,-1186,-800,-310,-50,146,-252
24305,5199,0,2023-03-01T18:52:01.094002,1710617,1419,1802,-580,-1186,-800,-310,-50,146,-252
24306,5200,0,2023-03-01T18:52:01.098875,1710622,1419,1809,-588,-1187,-790,-308,-50,146,-252
24307,5201,0,2023-03-01T18:52:01.105091,1710628,1419,1809,-588,-1187,-790,-308,-50,146,-252
24308,5202,0,2023-03-01T18:52:01.109983,1710633,1419,1809,-588,-1187,-790,-308,-50,146,-252
24309,5203,0,2023-03-01T18:52:01.115128,1710639,1419,1809,-588,-1187,-790,-308,-50,146,-252
24310,5204,0,2023-03-01T18:52:01.120626,1710644,1414,1804,-582,-1199,-795,-306,-50,146,-252
24311,5205,0,2023-03-01T18:52:01.126309,1710649,1414,1804,-582,-1199,-795,-306,-50,146,-252
24312,5206,0,2023-03-01T18:52:01.131436,1710655,1414,1804,-582,-1199,-795,-306,-50,146,-252
24313,5207,0,2023-03-01T18:52:01.136740,1710660,1414,1804,-582,-1199,-795,-306,-50,146,-252
24314,5208,0,2023-03-01T18:52:01.142209,1710665,1417,1806,-580,-1195,-802,-295,-50,146,-252
24315,5209,0,2023-03-01T18:52:01.147450,1710670,1417,1806,-580,-1195,-802,-295,-50,146,-252
24316,5210,0,2023-03-01T18:52:01.152895,1710676,1417,1806,-580,-1195,-802,-295,-50,146,-252
24317,5211,0,2023-03-01T18:52:01.158126,1710682,1417,1806,-580,-1195,-802,-295,-50,146,-252
24318,5212,0,2023-03-01T18:52:01.163324,1710686,1421,1809,-578,-1190,-804,-303,-45,141,-241
24319,5213,0,2023-03-01T18:52:01.168770,1710692,1421,1809,-578,-1190,-804,-303,-45,141,-241
24320,5214,0,2023-03-01T18:52:01.174226,1710697,1421,1809,-578,-1190,-804,-303,-45,141,-241
24321,5215,0,2023-03-01T18:52:01.179100,1710702,1416,1804,-573,-1185,-791,-295,-45,141,-241
24322,5216,0,2023-03-01T18:52:01.185617,1710708,1416,1804,-573,-1185,-791,-295,-45,141,-241
24323,5217,0,2023-03-01T18:52:01.190722,1710714,1416,1804,-573,-1185,-791,-295,-45,141,-241
24324,5218,0,2023-03-01T18:52:01.195291,1710718,1416,1804,-573,-1185,-791,-295,-45,141,-241
24325,5219,0,2023-03-01T18:52:01.199947,1710723,1420,1804,-581,-1196,-793,-292,-45,141,-241
24326,5220,0,2023-03-01T18:52:01.205750,1710729,1420,1804,-581,-1196,-793,-292,-45,141,-241
24327,5221,0,2023-03-01T18:52:01.210599,1710734,1420,1804,-581,-1196,-793,-292,-45,141,-241
24328,5222,0,2023-03-01T18:52:01.216373,1710739,1420,1804,-581,-1196,-793,-292,-45,141,-241
24329,5223,0,2023-03-01T18:52:01.222070,1710745,1417,1808,-585,-1195,-795,-301,-45,141,-241
24330,5224,0,2023-03-01T18:52:01.227630,1710751,1417,1808,-585,-1195,-795,-301,-45,141,-241
24331,5225,0,2023-03-01T18:52:01.233023,1710756,1417,1808,-585,-1195,-795,-301,-45,141,-241
24332,5226,0,2023-03-01T18:52:01.238130,1710761,1417,1808,-585,-1195,-795,-301,-45,141,-241
24333,5227,0,2023-03-01T18:52:01.243904,1710767,1416,1805,-577,-1182,-791,-295,-45,141,-241
24334,5228,0,2023-03-01T18:52:01.249474,1710773,1416,1805,-577,-1182,-791,-295,-45,141,-241
24335,5229,0,2023-03-01T18:52:01.255293,1710778,1416,1805,-577,-1182,-791,-295,-45,141,-241
24336,5230,0,2023-03-01T18:52:01.260499,1710783,1418,1807,-573,-1189,-795,-297,-45,141,-241
24337,5231,0,2023-03-01T18:52:01.266548,1710789,1418,1807,-573,-1189,-795,-297,-45,141,-241
24338,5232,0,2023-03-01T18:52:01.271575,1710794,1418,1807,-573,-1189,-795,-297,-45,141,-241
24339,5233,0,2023-03-01T18:52:01.278032,1710800,1418,1807,-573,-1189,-795,-297,-45,141,-241
24340,5234,0,2023-03-01T18:52:01.284100,1710808,1417,1807,-581,-1183,-791,-300,-54,142,-238
24341,5235,0,2023-03-01T18:52:01.289826,1710813,1417,1807,-581,-1183,-791,-300,-54,142,-238
24342,5236,0,2023-03-01T18:52:01.295471,1710819,1417,1807,-581,-1183,-791,-300,-54,142,-238
24343,5237,0,2023-03-01T18:52:01.300629,1710824,1417,1806,-575,-1185,-791,-298,-54,142,-238
24344,5238,0,2023-03-01T18:52:01.307245,1710830,1417,1806,-575,-1185,-791,-298,-54,142,-238
24345,5239,0,2023-03-01T18:52:01.311803,1710835,1417,1806,-575,-1185,-791,-298,-54,142,-238
24346,5240,0,2023-03-01T18:52:01.317418,1710840,1417,1806,-575,-1185,-791,-298,-54,142,-238
24347,5241,0,2023-03-01T18:52:01.322525,1710845,1416,1808,-574,-1195,-801,-291,-54,142,-238
24348,5242,0,2023-03-01T18:52:01.328317,1710852,1416,1808,-574,-1195,-801,-291,-54,142,-238
24349,5243,0,2023-03-01T18:52:01.334008,1710857,1416,1808,-574,-1195,-801,-291,-54,142,-238
24350,5244,0,2023-03-01T18:52:01.339031,1710862,1416,1804,-578,-1191,-795,-294,-54,142,-238
24351,5245,0,2023-03-01T18:52:01.345088,1710868,1416,1804,-578,-1191,-795,-294,-54,142,-238
24352,5246,0,2023-03-01T18:52:01.350099,1710873,1416,1804,-578,-1191,-795,-294,-54,142,-238
24353,5247,0,2023-03-01T18:52:01.355793,1710878,1416,1804,-578,-1191,-795,-294,-54,142,-238
24354,5248,0,2023-03-01T18:52:01.360654,1710883,1419,1803,-575,-1187,-789,-299,-54,142,-238
24355,5249,0,2023-03-01T18:52:01.366098,1710889,1419,1803,-575,-1187,-789,-299,-54,142,-238
24356,5250,0,2023-03-01T18:52:01.372019,1710895,1419,1803,-575,-1187,-789,-299,-54,142,-238
24357,5251,0,2023-03-01T18:52:01.377831,1710901,1419,1803,-575,-1187,-789,-299,-54,142,-238
24358,5252,0,2023-03-01T18:52:01.382914,1710906,1417,1806,-582,-1194,-790,-298,-54,142,-238
24359,5253,0,2023-03-01T18:52:01.388922,1710912,1417,1806,-582,-1194,-790,-298,-54,142,-238
24360,5254,0,2023-03-01T18:52:01.394980,1710918,1417,1806,-582,-1194,-790,-298,-54,142,-238
24361,5255,0,2023-03-01T18:52:01.400128,1710923,1415,1807,-580,-1194,-787,-301,-54,142,-238
24362,5256,0,2023-03-01T18:52:01.406177,1710929,1415,1807,-580,-1194,-787,-301,-54,142,-238
24363,5257,0,2023-03-01T18:52:01.411129,1710935,1415,1807,-580,-1194,-787,-301,-54,142,-238
24364,5258,0,2023-03-01T18:52:01.416685,1710940,1415,1807,-580,-1194,-787,-301,-54,142,-238
24365,5259,0,2023-03-01T18:52:01.422021,1710945,1417,1807,-581,-1190,-794,-302,-55,143,-247
24366,5260,0,2023-03-01T18:52:01.427976,1710951,1417,1807,-581,-1190,-794,-302,-55,143,-247
24367,5261,0,2023-03-01T18:52:01.433975,1710957,1417,1807,-581,-1190,-794,-302,-55,143,-247
24368,5262,0,2023-03-01T18:52:01.438913,1710962,1417,1803,-577,-1192,-791,-292,-55,143,-247
24369,5263,0,2023-03-01T18:52:01.444668,1710968,1417,1803,-577,-1192,-791,-292,-55,143,-247
24370,5264,0,2023-03-01T18:52:01.449456,1710972,1417,1803,-577,-1192,-791,-292,-55,143,-247
24371,5265,0,2023-03-01T18:52:01.454695,1710978,1417,1803,-577,-1192,-791,-292,-55,143,-247
24372,5266,0,2023-03-01T18:52:01.460063,1710983,1417,1805,-577,-1191,-789,-294,-55,143,-247
24373,5267,0,2023-03-01T18:52:01.465688,1710989,1417,1805,-577,-1191,-789,-294,-55,143,-247
24374,5268,0,2023-03-01T18:52:01.470916,1710994,1417,1805,-577,-1191,-789,-294,-55,143,-247
24375,5269,0,2023-03-01T18:52:01.476494,1710999,1417,1805,-577,-1191,-789,-294,-55,143,-247
24376,5270,0,2023-03-01T18:52:01.482000,1711005,1417,1808,-580,-1193,-785,-297,-55,143,-247
24377,5271,0,2023-03-01T18:52:01.487685,1711010,1417,1808,-580,-1193,-785,-297,-55,143,-247
24378,5272,0,2023-03-01T18:52:01.493654,1711015,1417,1808,-580,-1193,-785,-297,-55,143,-247
24379,5273,0,2023-03-01T18:52:01.499148,1711023,1416,1807,-578,-1188,-785,-299,-55,143,-247
24380,5274,0,2023-03-01T18:52:01.505559,1711029,1416,1807,-578,-1188,-785,-299,-55,143,-247
24381,5275,0,2023-03-01T18:52:01.510258,1711034,1416,1807,-578,-1188,-785,-299,-55,143,-247
24382,5276,0,2023-03-01T18:52:01.515890,1711039,1416,1807,-578,-1188,-785,-299,-55,143,-247
24383,5277,0,2023-03-01T18:52:01.521435,1711044,1420,1806,-585,-1190,-801,-307,-55,143,-247
24384,5278,0,2023-03-01T18:52:01.526994,1711050,1420,1806,-585,-1190,-801,-307,-55,143,-247
24385,5279,0,2023-03-01T18:52:01.531518,1711054,1420,1806,-585,-1190,-801,-307,-55,143,-247
24386,5280,0,2023-03-01T18:52:01.536566,1711059,1420,1806,-585,-1190,-801,-307,-55,143,-247
24387,5281,0,2023-03-01T18:52:01.541990,1711066,1417,1806,-577,-1183,-798,-298,-54,138,-242
24388,5282,0,2023-03-01T18:52:01.548099,1711071,1417,1806,-577,-1183,-798,-298,-54,138,-242
24389,5283,0,2023-03-01T18:52:01.553847,1711077,1417,1806,-577,-1183,-798,-298,-54,138,-242
24390,5284,0,2023-03-01T18:52:01.558555,1711082,1417,1806,-577,-1183,-798,-298,-54,138,-242
24391,5285,0,2023-03-01T18:52:01.563464,1711087,1417,1803,-581,-1183,-791,-295,-54,138,-242
24392,5286,0,2023-03-01T18:52:01.568892,1711092,1417,1803,-581,-1183,-791,-295,-54,138,-242
24393,5287,0,2023-03-01T18:52:01.574437,1711097,1417,1803,-581,-1183,-791,-295,-54,138,-242
24394,5288,0,2023-03-01T18:52:01.579136,1711102,1418,1807,-576,-1191,-787,-298,-54,138,-242
24395,5289,0,2023-03-01T18:52:01.585321,1711109,1418,1807,-576,-1191,-787,-298,-54,138,-242
24396,5290,0,2023-03-01T18:52:01.590018,1711114,1418,1807,-576,-1191,-787,-298,-54,138,-242
24397,5291,0,2023-03-01T18:52:01.595183,1711118,1418,1807,-576,-1191,-787,-298,-54,138,-242
24398,5292,0,2023-03-01T18:52:01.600038,1711123,1416,1803,-580,-1180,-786,-298,-54,138,-242
24399,5293,0,2023-03-01T18:52:01.606195,1711129,1416,1803,-580,-1180,-786,-298,-54,138,-242
24400,5294,0,2023-03-01T18:52:01.610977,1711134,1416,1803,-580,-1180,-786,-298,-54,138,-242
24401,5295,0,2023-03-01T18:52:01.616600,1711140,1416,1803,-580,-1180,-786,-298,-54,138,-242
24402,5296,0,2023-03-01T18:52:01.621513,1711144,1420,1806,-578,-1186,-791,-306,-54,138,-242
24403,5297,0,2023-03-01T18:52:01.626850,1711150,1420,1806,-578,-1186,-791,-306,-54,138,-242
24404,5298,0,2023-03-01T18:52:01.631741,1711155,1420,1806,-578,-1186,-791,-306,-54,138,-242
24405,5299,0,2023-03-01T18:52:01.637452,1711161,1420,1806,-578,-1186,-791,-306,-54,138,-242
24406,5300,0,2023-03-01T18:52:01.643026,1711166,1418,1809,-584,-1180,-795,-302,-54,138,-242
24407,5301,0,2023-03-01T18:52:01.648526,1711172,1418,1809,-584,-1180,-795,-302,-54,138,-242
24408,5302,0,2023-03-01T18:52:01.654092,1711177,1418,1809,-584,-1180,-795,-302,-54,138,-242
24409,5303,0,2023-03-01T18:52:01.658975,1711182,1418,1809,-584,-1180,-795,-302,-54,138,-242
24410,5304,0,2023-03-01T18:52:01.665443,1711188,1416,1806,-585,-1178,-787,-296,-54,138,-242
24411,5305,0,2023-03-01T18:52:01.672249,1711196,1416,1806,-585,-1178,-787,-296,-54,138,-242
24412,5306,0,2023-03-01T18:52:01.677817,1711201,1416,1806,-585,-1178,-787,-296,-54,138,-242
24413,5307,0,2023-03-01T18:52:01.682792,1711206,1420,1808,-579,-1177,-797,-296,-52,142,-246
24414,5308,0,2023-03-01T18:52:01.688317,1711212,1420,1808,-579,-1177,-797,-296,-52,142,-246
24415,5309,0,2023-03-01T18:52:01.694302,1711217,1420,1808,-579,-1177,-797,-296,-52,142,-246
24416,5310,0,2023-03-01T18:52:01.699179,1711222,1420,1808,-579,-1177,-797,-296,-52,142,-246
24417,5311,0,2023-03-01T18:52:01.703752,1711227,1417,1806,-580,-1184,-799,-303,-52,142,-246
24418,5312,0,2023-03-01T18:52:01.709237,1711233,1417,1806,-580,-1184,-799,-303,-52,142,-246
24419,5313,0,2023-03-01T18:52:01.714799,1711238,1417,1806,-580,-1184,-799,-303,-52,142,-246
24420,5314,0,2023-03-01T18:52:01.719653,1711243,1419,1804,-580,-1181,-792,-298,-52,142,-246
24421,5315,0,2023-03-01T18:52:01.726472,1711249,1419,1804,-580,-1181,-792,-298,-52,142,-246
24422,5316,0,2023-03-01T18:52:01.731799,1711255,1419,1804,-580,-1181,-792,-298,-52,142,-246
24423,5317,0,2023-03-01T18:52:01.737190,1711260,1419,1804,-580,-1181,-792,-298,-52,142,-246
24424,5318,0,2023-03-01T18:52:01.742300,1711265,1422,1804,-578,-1182,-798,-300,-52,142,-246
24425,5319,0,2023-03-01T18:52:01.748004,1711271,1422,1804,-578,-1182,-798,-300,-52,142,-246
24426,5320,0,2023-03-01T18:52:01.753588,1711277,1422,1804,-578,-1182,-798,-300,-52,142,-246
24427,5321,0,2023-03-01T18:52:01.758808,1711282,1422,1804,-578,-1182,-798,-300,-52,142,-246
24428,5322,0,2023-03-01T18:52:01.764325,1711288,1416,1803,-579,-1186,-783,-290,-52,142,-246
24429,5323,0,2023-03-01T18:52:01.769825,1711293,1416,1803,-579,-1186,-783,-290,-52,142,-246
24430,5324,0,2023-03-01T18:52:01.775419,1711298,1416,1803,-579,-1186,-783,-290,-52,142,-246
24431,5325,0,2023-03-01T18:52:01.780395,1711303,1419,1803,-584,-1196,-791,-291,-52,142,-246
24432,5326,0,2023-03-01T18:52:01.786541,1711309,1419,1803,-584,-1196,-791,-291,-52,142,-246
24433,5327,0,2023-03-01T18:52:01.791383,1711314,1419,1803,-584,-1196,-791,-291,-52,142,-246
24434,5328,0,2023-03-01T18:52:01.796644,1711320,1419,1803,-584,-1196,-791,-291,-52,142,-246
24435,5329,0,2023-03-01T18:52:01.801525,1711325,1421,1807,-577,-1190,-788,-295,-46,148,-240
24436,5330,0,2023-03-01T18:52:01.807370,1711330,1421,1807,-577,-1190,-788,-295,-46,148,-240
24437,5331,0,2023-03-01T18:52:01.812605,1711335,1421,1807,-577,-1190,-788,-295,-46,148,-240
24438,5332,0,2023-03-01T18:52:01.818138,1711341,1421,1807,-577,-1190,-788,-295,-46,148,-240
24439,5333,0,2023-03-01T18:52:01.823099,1711346,1415,1801,-577,-1184,-789,-300,-46,148,-240
24440,5334,0,2023-03-01T18:52:01.828669,1711351,1415,1801,-577,-1184,-789,-300,-46,148,-240
24441,5335,0,2023-03-01T18:52:01.834756,1711357,1415,1801,-577,-1184,-789,-300,-46,148,-240
24442,5336,0,2023-03-01T18:52:01.840153,1711363,1421,1807,-579,-1190,-790,-304,-46,148,-240
24443,5337,0,2023-03-01T18:52:01.845622,1711369,1421,1807,-579,-1190,-790,-304,-46,148,-240
24444,5338,0,2023-03-01T18:52:01.850366,1711374,1421,1807,-579,-1190,-790,-304,-46,148,-240
24445,5339,0,2023-03-01T18:52:01.856200,1711379,1421,1807,-579,-1190,-790,-304,-46,148,-240
24446,5340,0,2023-03-01T18:52:01.861962,1711385,1420,1805,-578,-1193,-791,-308,-46,148,-240
24447,5341,0,2023-03-01T18:52:01.867568,1711390,1420,1805,-578,-1193,-791,-308,-46,148,-240
24448,5342,0,2023-03-01T18:52:01.873027,1711395,1420,1805,-578,-1193,-791,-308,-46,148,-240
24449,5343,0,2023-03-01T18:52:01.878402,1711401,1420,1805,-578,-1193,-791,-308,-46,148,-240
24450,5344,0,2023-03-01T18:52:01.883978,1711408,1418,1806,-584,-1195,-795,-300,-46,148,-240
24451,5345,0,2023-03-01T18:52:01.889613,1711413,1418,1806,-584,-1195,-795,-300,-46,148,-240
24452,5346,0,2023-03-01T18:52:01.895827,1711419,1418,1806,-584,-1195,-795,-300,-46,148,-240
24453,5347,0,2023-03-01T18:52:01.900680,1711424,1421,1806,-582,-1195,-798,-305,-46,148,-240
24454,5348,0,2023-03-01T18:52:01.906183,1711429,1421,1806,-582,-1195,-798,-305,-46,148,-240
24455,5349,0,2023-03-01T18:52:01.911066,1711434,1421,1806,-582,-1195,-798,-305,-46,148,-240
24456,5350,0,2023-03-01T18:52:01.916518,1711439,1421,1806,-582,-1195,-798,-305,-46,148,-240
24457,5351,0,2023-03-01T18:52:01.921979,1711446,1418,1807,-581,-1198,-804,-297,-56,144,-248
24458,5352,0,2023-03-01T18:52:01.927620,1711451,1418,1807,-581,-1198,-804,-297,-56,144,-248
24459,5353,0,2023-03-01T18:52:01.932395,1711456,1418,1807,-581,-1198,-804,-297,-56,144,-248
24460,5354,0,2023-03-01T18:52:01.937994,1711461,1418,1807,-581,-1198,-804,-297,-56,144,-248
24461,5355,0,2023-03-01T18:52:01.943261,1711467,1420,1808,-578,-1187,-800,-295,-56,144,-248
24462,5356,0,2023-03-01T18:52:01.948635,1711471,1420,1808,-578,-1187,-800,-295,-56,144,-248
24463,5357,0,2023-03-01T18:52:01.953903,1711477,1420,1808,-578,-1187,-800,-295,-56,144,-248
24464,5358,0,2023-03-01T18:52:01.958774,1711482,1420,1808,-578,-1187,-800,-295,-56,144,-248
24465,5359,0,2023-03-01T18:52:01.963487,1711486,1418,1808,-577,-1192,-793,-302,-56,144,-248
24466,5360,0,2023-03-01T18:52:01.968660,1711492,1418,1808,-577,-1192,-793,-302,-56,144,-248
24467,5361,0,2023-03-01T18:52:01.974110,1711498,1418,1808,-577,-1192,-793,-302,-56,144,-248
24468,5362,0,2023-03-01T18:52:01.978942,1711502,1418,1808,-577,-1192,-793,-302,-56,144,-248
24469,5363,0,2023-03-01T18:52:01.983733,1711507,1416,1805,-580,-1196,-783,-300,-56,144,-248
24470,5364,0,2023-03-01T18:52:01.989642,1711513,1416,1805,-580,-1196,-783,-300,-56,144,-248
24471,5365,0,2023-03-01T18:52:01.995825,1711518,1416,1805,-580,-1196,-783,-300,-56,144,-248
24472,5366,0,2023-03-01T18:52:02.000954,1711524,1421,1807,-586,-1187,-792,-299,-56,144,-248
24473,5367,0,2023-03-01T18:52:02.006950,1711531,1421,1807,-586,-1187,-792,-299,-56,144,-248
24474,5368,0,2023-03-01T18:52:02.011683,1711535,1421,1807,-586,-1187,-792,-299,-56,144,-248
24475,5369,0,2023-03-01T18:52:02.017325,1711541,1421,1807,-586,-1187,-792,-299,-56,144,-248
24476,5370,0,2023-03-01T18:52:02.022144,1711546,1418,1803,-585,-1189,-790,-295,-56,144,-248
24477,5371,0,2023-03-01T18:52:02.028419,1711551,1418,1803,-585,-1189,-790,-295,-56,144,-248
24478,5372,0,2023-03-01T18:52:02.034207,1711557,1418,1803,-585,-1189,-790,-295,-56,144,-248
24479,5373,0,2023-03-01T18:52:02.039585,1711562,1418,1803,-585,-1189,-790,-295,-56,144,-248
24480,5374,0,2023-03-01T18:52:02.044822,1711567,1419,1804,-586,-1193,-791,-301,-56,144,-248
24481,5375,0,2023-03-01T18:52:02.050242,1711574,1419,1804,-586,-1193,-791,-301,-56,144,-248
24482,5376,0,2023-03-01T18:52:02.055764,1711579,1419,1804,-586,-1193,-791,-301,-56,144,-248
24483,5377,0,2023-03-01T18:52:02.061062,1711584,1421,1806,-581,-1196,-799,-298,-52,148,-244
24484,5378,0,2023-03-01T18:52:02.067108,1711590,1421,1806,-581,-1196,-799,-298,-52,148,-244
24485,5379,0,2023-03-01T18:52:02.072088,1711595,1421,1806,-581,-1196,-799,-298,-52,148,-244
24486,5380,0,2023-03-01T18:52:02.077395,1711601,1421,1806,-581,-1196,-799,-298,-52,148,-244
24487,5381,0,2023-03-01T18:52:02.082457,1711605,1418,1805,-572,-1191,-790,-295,-52,148,-244
24488,5382,0,2023-03-01T18:52:02.087994,1711611,1418,1805,-572,-1191,-790,-295,-52,148,-244
24489,5383,0,2023-03-01T18:52:02.093400,1711617,1418,1805,-572,-1191,-790,-295,-52,148,-244
24490,5384,0,2023-03-01T18:52:02.098910,1711622,1418,1805,-572,-1191,-790,-295,-52,148,-244
24491,5385,0,2023-03-01T18:52:02.104261,1711628,1413,1808,-581,-1196,-788,-302,-52,148,-244
24492,5386,0,2023-03-01T18:52:02.109522,1711633,1413,1808,-581,-1196,-788,-302,-52,148,-244
24493,5387,0,2023-03-01T18:52:02.114876,1711638,1413,1808,-581,-1196,-788,-302,-52,148,-244
24494,5388,0,2023-03-01T18:52:02.119963,1711643,1417,1806,-581,-1198,-785,-299,-52,148,-244
24495,5389,0,2023-03-01T18:52:02.126207,1711649,1417,1806,-581,-1198,-785,-299,-52,148,-244
24496,5390,0,2023-03-01T18:52:02.131182,1711654,1417,1806,-581,-1198,-785,-299,-52,148,-244
24497,5391,0,2023-03-01T18:52:02.136801,1711660,1417,1806,-581,-1198,-785,-299,-52,148,-244
24498,5392,0,2023-03-01T18:52:02.141494,1711665,1417,1807,-581,-1178,-782,-306,-52,148,-244
24499,5393,0,2023-03-01T18:52:02.146998,1711670,1417,1807,-581,-1178,-782,-306,-52,148,-244
