,Unnamed: 0,imu,server_time,arduino_time,ax,ay,az,gx,gy,gz,mx,my,mz
24500,5394,0,2023-03-01T18:52:02.151945,1711675,1417,1807,-581,-1178,-782,-306,-52,148,-244
24501,5395,0,2023-03-01T18:52:02.157732,1711681,1417,1807,-581,-1178,-782,-306,-52,148,-244
24502,5396,0,2023-03-01T18:52:02.163641,1711686,1422,1805,-586,-1188,-799,-311,-52,148,-244
24503,5397,0,2023-03-01T18:52:02.169073,1711692,1422,1805,-586,-1188,-799,-311,-52,148,-244
24504,5398,0,2023-03-01T18:52:02.174592,1711697,1422,1805,-586,-1188,-799,-311,-52,148,-244
24505,5399,0,2023-03-01T18:52:02.179432,1711703,1422,1805,-586,-1188,-799,-311,-52,148,-244
24506,5400,0,2023-03-01T18:52:02.185147,1711709,1419,1803,-580,-1185,-794,-304,-51,141,-241
24507,5401,0,2023-03-01T18:52:02.190395,1711714,1419,1803,-580,-1185,-794,-304,-51,141,-241
24508,5402,0,2023-03-01T18:52:02.195950,1711719,1419,1803,-580,-1185,-794,-304,-51,141,-241
24509,5403,0,2023-03-01T18:52:02.201049,1711724,1421,1805,-581,-1175,-787,-299,-51,141,-241
24510,5404,0,2023-03-01T18:52:02.206912,1711730,1421,1805,-581,-1175,-787,-299,-51,141,-241
24511,5405,0,2023-03-01T18:52:02.211632,1711735,1421,1805,-581,-1175,-787,-299,-51,141,-241
24512,5406,0,2023-03-01T18:52:02.217126,1711740,1421,1805,-581,-1175,-787,-299,-51,141,-241
24513,5407,0,2023-03-01T18:52:02.223395,1711746,1420,1808,-579,-1187,-787,-297,-51,141,-241
24514,5408,0,2023-03-01T18:52:02.230052,1711752,1420,1808,-579,-1187,-787,-297,-51,141,-241
24515,5409,0,2023-03-01T18:52:02.235560,1711759,1420,1808,-579,-1187,-787,-297,-51,141,-241
24516,5410,0,2023-03-01T18:52:02.240375,1711763,1416,1804,-577,-1191,-791,-299,-51,141,-241
24517,5411,0,2023-03-01T18:52:02.246147,1711769,1416,1804,-577,-1191,-791,-299,-51,141,-241
24518,5412,0,2023-03-01T18:52:02.250843,1711774,1416,1804,-577,-1191,-791,-299,-51,141,-241
24519,5413,0,2023-03-01T18:52:02.255767,1711778,1416,1804,-577,-1191,-791,-299,-51,141,-241
24520,5414,0,2023-03-01T18:52:02.260651,1711783,1420,1807,-584,-1192,-792,-299,-51,141,-241
24521,5415,0,2023-03-01T18:52:02.267088,1711790,1420,1807,-584,-1192,-792,-299,-51,141,-241
24522,5416,0,2023-03-01T18:52:02.272314,1711796,1420,1807,-584,-1192,-792,-299,-51,141,-241
24523,5417,0,2023-03-01T18:52:02.277842,1711801,1420,1807,-584,-1192,-792,-299,-51,141,-241
24524,5418,0,2023-03-01T18:52:02.282948,1711806,1418,1806,-582,-1179,-782,-299,-51,141,-241
24525,5419,0,2023-03-01T18:52:02.288638,1711812,1418,1806,-582,-1179,-782,-299,-51,141,-241
24526,5420,0,2023-03-01T18:52:02.294215,1711817,1418,1806,-582,-1179,-782,-299,-51,141,-241
24527,5421,0,2023-03-01T18:52:02.299172,1711822,1418,1806,-582,-1179,-782,-299,-51,141,-241
24528,5422,0,2023-03-01T18:52:02.305267,1711828,1417,1806,-584,-1184,-780,-303,-51,141,-241
24529,5423,0,2023-03-01T18:52:02.310793,1711834,1417,1806,-584,-1184,-780,-303,-51,141,-241
24530,5424,0,2023-03-01T18:52:02.316840,1711840,1417,1806,-584,-1184,-780,-303,-51,141,-241
24531,5425,0,2023-03-01T18:52:02.322576,1711846,1419,1806,-578,-1189,-786,-302,-55,147,-249
24532,5426,0,2023-03-01T18:52:02.328206,1711851,1419,1806,-578,-1189,-786,-302,-55,147,-249
24533,5427,0,2023-03-01T18:52:02.334714,1711858,1419,1806,-578,-1189,-786,-302,-55,147,-249
24534,5428,0,2023-03-01T18:52:02.339812,1711863,1419,1806,-578,-1189,-786,-302,-55,147,-249
24535,5429,0,2023-03-01T18:52:02.344954,1711867,1419,1806,-578,-1189,-786,-302,-55,147,-249
24536,5430,0,2023-03-01T18:52:02.350050,1711873,1419,1806,-578,-1189,-786,-302,-55,147,-249
24537,5431,0,2023-03-01T18:52:02.355591,1711879,1419,1806,-578,-1189,-786,-302,-55,147,-249
24538,5432,0,2023-03-01T18:52:02.360606,1711884,1420,1805,-583,-1188,-778,-301,-55,147,-249
24539,5433,0,2023-03-01T18:52:02.366416,1711890,1420,1805,-583,-1188,-778,-301,-55,147,-249
24540,5434,0,2023-03-01T18:52:02.371751,1711895,1420,1805,-583,-1188,-778,-301,-55,147,-249
24541,5435,0,2023-03-01T18:52:02.376752,1711900,1420,1805,-583,-1188,-778,-301,-55,147,-249
24542,5436,0,2023-03-01T18:52:02.383217,1711906,1419,1806,-588,-1176,-786,-310,-55,147,-249
24543,5437,0,2023-03-01T18:52:02.388895,1711912,1419,1806,-588,-1176,-786,-310,-55,147,-249
24544,5438,0,2023-03-01T18:52:02.396884,1711920,1419,1806,-588,-1176,-786,-310,-55,147,-249
24545,5439,0,2023-03-01T18:52:02.401826,1711925,1414,1804,-582,-1184,-789,-298,-55,147,-249
24546,5440,0,2023-03-01T18:52:02.407544,1711931,1414,1804,-582,-1184,-789,-298,-55,147,-249
24547,5441,0,2023-03-01T18:52:02.412617,1711936,1414,1804,-582,-1184,-789,-298,-55,147,-249
24548,5442,0,2023-03-01T18:52:02.418230,1711941,1414,1804,-582,-1184,-789,-298,-55,147,-249
24549,5443,0,2023-03-01T18:52:02.423841,1711947,1417,1800,-585,-1193,-798,-302,-55,147,-249
24550,5444,0,2023-03-01T18:52:02.429589,1711952,1417,1800,-585,-1193,-798,-302,-55,147,-249
24551,5445,0,2023-03-01T18:52:02.435096,1711959,1417,1800,-585,-1193,-798,-302,-55,147,-249
24552,5446,0,2023-03-01T18:52:02.439726,1711963,1417,1800,-585,-1193,-798,-302,-55,147,-249
24553,5447,0,2023-03-01T18:52:02.444649,1711968,1413,1801,-575,-1191,-794,-309,-54,142,-240
24554,5448,0,2023-03-01T18:52:02.450070,1711973,1413,1801,-575,-1191,-794,-309,-54,142,-240
24555,5449,0,2023-03-01T18:52:02.455420,1711978,1413,1801,-575,-1191,-794,-309,-54,142,-240
24556,5450,0,2023-03-01T18:52:02.460375,1711983,1423,1813,-585,-1198,-791,-311,-54,142,-240
24557,5451,0,2023-03-01T18:52:02.466404,1711989,1423,1813,-585,-1198,-791,-311,-54,142,-240
24558,5452,0,2023-03-01T18:52:02.471112,1711994,1423,1813,-585,-1198,-791,-311,-54,142,-240
24559,5453,0,2023-03-01T18:52:02.476317,1712000,1423,1813,-585,-1198,-791,-311,-54,142,-240
24560,5454,0,2023-03-01T18:52:02.482164,1712006,1418,1801,-586,-1192,-795,-298,-54,142,-240
24561,5455,0,2023-03-01T18:52:02.487814,1712011,1418,1801,-586,-1192,-795,-298,-54,142,-240
24562,5456,0,2023-03-01T18:52:02.493756,1712017,1418,1801,-586,-1192,-795,-298,-54,142,-240
24563,5457,0,2023-03-01T18:52:02.498501,1712022,1418,1801,-586,-1192,-795,-298,-54,142,-240
24564,5458,0,2023-03-01T18:52:02.503106,1712026,1415,1799,-579,-1188,-796,-303,-54,142,-240
24565,5459,0,2023-03-01T18:52:02.508835,1712032,1415,1799,-579,-1188,-796,-303,-54,142,-240
24566,5460,0,2023-03-01T18:52:02.514121,1712037,1415,1799,-579,-1188,-796,-303,-54,142,-240
24567,5461,0,2023-03-01T18:52:02.519086,1712043,1415,1799,-579,-1188,-796,-303,-54,142,-240
24568,5462,0,2023-03-01T18:52:02.524458,1712048,1422,1810,-588,-1181,-799,-310,-54,142,-240
24569,5463,0,2023-03-01T18:52:02.529384,1712053,1422,1810,-588,-1181,-799,-310,-54,142,-240
24570,5464,0,2023-03-01T18:52:02.534483,1712058,1422,1810,-588,-1181,-799,-310,-54,142,-240
24571,5465,0,2023-03-01T18:52:02.539563,1712063,1422,1810,-588,-1181,-799,-310,-54,142,-240
24572,5466,0,2023-03-01T18:52:02.544407,1712068,1415,1802,-575,-1192,-797,-304,-54,142,-240
24573,5467,0,2023-03-01T18:52:02.549802,1712073,1415,1802,-575,-1192,-797,-304,-54,142,-240
24574,5468,0,2023-03-01T18:52:02.554688,1712077,1415,1802,-575,-1192,-797,-304,-54,142,-240
24575,5469,0,2023-03-01T18:52:02.559377,1712082,1415,1802,-575,-1192,-797,-304,-54,142,-240
24576,5470,0,2023-03-01T18:52:02.563850,1712088,1419,1800,-576,-1191,-806,-296,-54,142,-240
24577,5471,0,2023-03-01T18:52:02.568938,1712093,1419,1800,-576,-1191,-806,-296,-54,142,-240
24578,5472,0,2023-03-01T18:52:02.574652,1712098,1419,1800,-576,-1191,-806,-296,-54,142,-240
24579,5473,0,2023-03-01T18:52:02.580115,1712103,1419,1800,-576,-1191,-806,-296,-54,142,-240
24580,5474,0,2023-03-01T18:52:02.585085,1712108,1422,1811,-585,-1191,-797,-302,-53,145,-249
24581,5475,0,2023-03-01T18:52:02.591467,1712114,1422,1811,-585,-1191,-797,-302,-53,145,-249
24582,5476,0,2023-03-01T18:52:02.597048,1712120,1422,1811,-585,-1191,-797,-302,-53,145,-249
24583,5477,0,2023-03-01T18:52:02.602485,1712125,1417,1802,-579,-1188,-790,-300,-53,145,-249
24584,5478,0,2023-03-01T18:52:02.608008,1712132,1417,1802,-579,-1188,-790,-300,-53,145,-249
24585,5479,0,2023-03-01T18:52:02.613624,1712137,1417,1802,-579,-1188,-790,-300,-53,145,-249
24586,5480,0,2023-03-01T18:52:02.618753,1712142,1417,1802,-579,-1188,-790,-300,-53,145,-249
24587,5481,0,2023-03-01T18:52:02.625090,1712148,1420,1804,-582,-1190,-795,-310,-53,145,-249
24588,5482,0,2023-03-01T18:52:02.630678,1712154,1420,1804,-582,-1190,-795,-310,-53,145,-249
24589,5483,0,2023-03-01T18:52:02.635523,1712158,1420,1804,-582,-1190,-795,-310,-53,145,-249
24590,5484,0,2023-03-01T18:52:02.640343,1712163,1422,1809,-590,-1190,-801,-298,-53,145,-249
24591,5485,0,2023-03-01T18:52:02.645481,1712168,1422,1809,-590,-1190,-801,-298,-53,145,-249
24592,5486,0,2023-03-01T18:52:02.650763,1712174,1422,1809,-590,-1190,-801,-298,-53,145,-249
24593,5487,0,2023-03-01T18:52:02.656617,1712180,1422,1809,-590,-1190,-801,-298,-53,145,-249
24594,5488,0,2023-03-01T18:52:02.661857,1712185,1418,1801,-578,-1196,-790,-298,-53,145,-249
24595,5489,0,2023-03-01T18:52:02.667071,1712190,1418,1801,-578,-1196,-790,-298,-53,145,-249
24596,5490,0,2023-03-01T18:52:02.671998,1712195,1418,1801,-578,-1196,-790,-298,-53,145,-249
24597,5491,0,2023-03-01T18:52:02.677618,1712201,1418,1801,-578,-1196,-790,-298,-53,145,-249
24598,5492,0,2023-03-01T18:52:02.682364,1712205,1421,1808,-583,-1189,-790,-304,-53,145,-249
24599,5493,0,2023-03-01T18:52:02.687358,1712210,1421,1808,-583,-1189,-790,-304,-53,145,-249
24600,5494,0,2023-03-01T18:52:02.692086,1712216,1421,1808,-583,-1189,-790,-304,-53,145,-249
24601,5495,0,2023-03-01T18:52:02.697486,1712221,1421,1808,-583,-1189,-790,-304,-53,145,-249
24602,5496,0,2023-03-01T18:52:02.702190,1712226,1422,1808,-576,-1192,-795,-297,-50,148,-242
24603,5497,0,2023-03-01T18:52:02.708078,1712231,1422,1808,-576,-1192,-795,-297,-50,148,-242
24604,5498,0,2023-03-01T18:52:02.713670,1712237,1422,1808,-576,-1192,-795,-297,-50,148,-242
24605,5499,0,2023-03-01T18:52:02.718407,1712241,1422,1808,-576,-1192,-795,-297,-50,148,-242
24606,5500,0,2023-03-01T18:52:02.723271,1712246,1418,1806,-585,-1187,-781,-294,-50,148,-242
24607,5501,0,2023-03-01T18:52:02.728716,1712252,1418,1806,-585,-1187,-781,-294,-50,148,-242
24608,5502,0,2023-03-01T18:52:02.734605,1712258,1418,1806,-585,-1187,-781,-294,-50,148,-242
24609,5503,0,2023-03-01T18:52:02.739681,1712263,1418,1806,-585,-1187,-781,-294,-50,148,-242
24610,5504,0,2023-03-01T18:52:02.744346,1712268,1415,1806,-586,-1185,-779,-303,-50,148,-242
24611,5505,0,2023-03-01T18:52:02.750458,1712274,1415,1806,-586,-1185,-779,-303,-50,148,-242
24612,5506,0,2023-03-01T18:52:02.756034,1712279,1415,1806,-586,-1185,-779,-303,-50,148,-242
24613,5507,0,2023-03-01T18:52:02.761232,1712284,1418,1804,-587,-1180,-780,-296,-50,148,-242
24614,5508,0,2023-03-01T18:52:02.767414,1712290,1418,1804,-587,-1180,-780,-296,-50,148,-242
24615,5509,0,2023-03-01T18:52:02.772363,1712295,1418,1804,-587,-1180,-780,-296,-50,148,-242
24616,5510,0,2023-03-01T18:52:02.778041,1712301,1418,1804,-587,-1180,-780,-296,-50,148,-242
24617,5511,0,2023-03-01T18:52:02.782985,1712306,1420,1804,-585,-1175,-781,-298,-50,148,-242
24618,5512,0,2023-03-01T18:52:02.788319,1712312,1420,1804,-585,-1175,-781,-298,-50,148,-242
24619,5513,0,2023-03-01T18:52:02.794040,1712317,1420,1804,-585,-1175,-781,-298,-50,148,-242
24620,5514,0,2023-03-01T18:52:02.798788,1712322,1420,1804,-585,-1175,-781,-298,-50,148,-242
24621,5515,0,2023-03-01T18:52:02.803927,1712327,1420,1808,-588,-1187,-771,-302,-50,148,-242
24622,5516,0,2023-03-01T18:52:02.809482,1712332,1420,1808,-588,-1187,-771,-302,-50,148,-242
24623,5517,0,2023-03-01T18:52:02.814803,1712337,1420,1808,-588,-1187,-771,-302,-50,148,-242
24624,5518,0,2023-03-01T18:52:02.820093,1712343,1420,1808,-588,-1187,-771,-302,-50,148,-242
24625,5519,0,2023-03-01T18:52:02.826309,1712350,1417,1805,-587,-1180,-773,-290,-57,141,-239
24626,5520,0,2023-03-01T18:52:02.831595,1712355,1417,1805,-587,-1180,-773,-290,-57,141,-239
24627,5521,0,2023-03-01T18:52:02.837269,1712360,1417,1805,-587,-1180,-773,-290,-57,141,-239
24628,5522,0,2023-03-01T18:52:02.842626,1712366,1419,1805,-581,-1178,-786,-304,-57,141,-239
24629,5523,0,2023-03-01T18:52:02.848353,1712371,1419,1805,-581,-1178,-786,-304,-57,141,-239
24630,5524,0,2023-03-01T18:52:02.853548,1712376,1419,1805,-581,-1178,-786,-304,-57,141,-239
24631,5525,0,2023-03-01T18:52:02.859096,1712382,1419,1805,-581,-1178,-786,-304,-57,141,-239
24632,5526,0,2023-03-01T18:52:02.864094,1712387,1418,1803,-590,-1169,-777,-294,-57,141,-239
24633,5527,0,2023-03-01T18:52:02.869874,1712393,1418,1803,-590,-1169,-777,-294,-57,141,-239
24634,5528,0,2023-03-01T18:52:02.875740,1712399,1418,1803,-590,-1169,-777,-294,-57,141,-239
24635,5529,0,2023-03-01T18:52:02.880664,1712404,1418,1803,-590,-1169,-777,-294,-57,141,-239
24636,5530,0,2023-03-01T18:52:02.886720,1712409,1418,1802,-585,-1175,-777,-307,-57,141,-239
24637,5531,0,2023-03-01T18:52:02.892520,1712415,1418,1802,-585,-1175,-777,-307,-57,141,-239
24638,5532,0,2023-03-01T18:52:02.897746,1712421,1418,1802,-585,-1175,-777,-307,-57,141,-239
24639,5533,0,2023-03-01T18:52:02.903862,1712427,1421,1805,-590,-1181,-779,-300,-57,141,-239
24640,5534,0,2023-03-01T18:52:02.909268,1712433,1421,1805,-590,-1181,-779,-300,-57,141,-239
24641,5535,0,2023-03-01T18:52:02.914573,1712438,1421,1805,-590,-1181,-779,-300,-57,141,-239
24642,5536,0,2023-03-01T18:52:02.919260,1712443,1421,1805,-590,-1181,-779,-300,-57,141,-239
24643,5537,0,2023-03-01T18:52:02.924817,1712447,1416,1805,-586,-1176,-776,-300,-57,141,-239
24644,5538,0,2023-03-01T18:52:02.931878,1712455,1416,1805,-586,-1176,-776,-300,-57,141,-239
24645,5539,0,2023-03-01T18:52:02.937199,1712460,1416,1805,-586,-1176,-776,-300,-57,141,-239
24646,5540,0,2023-03-01T18:52:02.942307,1712465,1418,1808,-585,-1176,-779,-297,-57,141,-239
24647,5541,0,2023-03-01T18:52:02.947899,1712472,1418,1808,-585,-1176,-779,-297,-57,141,-239
24648,5542,0,2023-03-01T18:52:02.953655,1712477,1418,1808,-585,-1176,-779,-297,-57,141,-239
24649,5543,0,2023-03-01T18:52:02.958661,1712482,1418,1808,-585,-1176,-779,-297,-57,141,-239
24650,5544,0,2023-03-01T18:52:02.964080,1712487,1419,1806,-583,-1181,-776,-295,-58,146,-250
24651,5545,0,2023-03-01T18:52:02.968992,1712492,1419,1806,-583,-1181,-776,-295,-58,146,-250
24652,5546,0,2023-03-01T18:52:02.977984,1712501,1419,1806,-583,-1181,-776,-295,-58,146,-250
24653,5547,0,2023-03-01T18:52:02.983476,1712506,1420,1804,-581,-1185,-775,-298,-58,146,-250
24654,5548,0,2023-03-01T18:52:02.989224,1712513,1420,1804,-581,-1185,-775,-298,-58,146,-250
24655,5549,0,2023-03-01T18:52:02.994614,1712518,1420,1804,-581,-1185,-775,-298,-58,146,-250
24656,5550,0,2023-03-01T18:52:02.999314,1712523,1420,1804,-581,-1185,-775,-298,-58,146,-250
24657,5551,0,2023-03-01T18:52:03.004151,1712527,1419,1805,-594,-1178,-783,-306,-58,146,-250
24658,5552,0,2023-03-01T18:52:03.009544,1712533,1419,1805,-594,-1178,-783,-306,-58,146,-250
24659,5553,0,2023-03-01T18:52:03.015568,1712539,1419,1805,-594,-1178,-783,-306,-58,146,-250
24660,5554,0,2023-03-01T18:52:03.020144,1712543,1419,1805,-594,-1178,-783,-306,-58,146,-250
24661,5555,0,2023-03-01T18:52:03.024769,1712548,1419,1802,-591,-1177,-787,-297,-58,146,-250
24662,5556,0,2023-03-01T18:52:03.029958,1712553,1419,1802,-591,-1177,-787,-297,-58,146,-250
24663,5557,0,2023-03-01T18:52:03.035682,1712559,1419,1802,-591,-1177,-787,-297,-58,146,-250
24664,5558,0,2023-03-01T18:52:03.041607,1712565,1417,1803,-587,-1177,-776,-302,-58,146,-250
24665,5559,0,2023-03-01T18:52:03.047811,1712571,1417,1803,-587,-1177,-776,-302,-58,146,-250
24666,5560,0,2023-03-01T18:52:03.053048,1712576,1417,1803,-587,-1177,-776,-302,-58,146,-250
24667,5561,0,2023-03-01T18:52:03.058001,1712581,1417,1803,-587,-1177,-776,-302,-58,146,-250
24668,5562,0,2023-03-01T18:52:03.063331,1712586,1422,1808,-584,-1177,-770,-301,-58,146,-250
24669,5563,0,2023-03-01T18:52:03.068755,1712592,1422,1808,-584,-1177,-770,-301,-58,146,-250
24670,5564,0,2023-03-01T18:52:03.074451,1712598,1422,1808,-584,-1177,-770,-301,-58,146,-250
24671,5565,0,2023-03-01T18:52:03.079385,1712603,1422,1808,-584,-1177,-770,-301,-58,146,-250
24672,5566,0,2023-03-01T18:52:03.084073,1712608,1417,1804,-579,-1176,-771,-302,-49,135,-249
24673,5567,0,2023-03-01T18:52:03.089326,1712613,1417,1804,-579,-1176,-771,-302,-49,135,-249
24674,5568,0,2023-03-01T18:52:03.094769,1712618,1417,1804,-579,-1176,-771,-302,-49,135,-249
24675,5569,0,2023-03-01T18:52:03.099564,1712623,1417,1804,-579,-1176,-771,-302,-49,135,-249
24676,5570,0,2023-03-01T18:52:03.104380,1712628,1419,1803,-587,-1180,-777,-300,-49,135,-249
24677,5571,0,2023-03-01T18:52:03.109598,1712633,1419,1803,-587,-1180,-777,-300,-49,135,-249
24678,5572,0,2023-03-01T18:52:03.114875,1712638,1419,1803,-587,-1180,-777,-300,-49,135,-249
24679,5573,0,2023-03-01T18:52:03.119647,1712643,1419,1803,-587,-1180,-777,-300,-49,135,-249
24680,5574,0,2023-03-01T18:52:03.124954,1712648,1420,1809,-592,-1177,-771,-300,-49,135,-249
24681,5575,0,2023-03-01T18:52:03.130456,1712654,1420,1809,-592,-1177,-771,-300,-49,135,-249
24682,5576,0,2023-03-01T18:52:03.135926,1712659,1420,1809,-592,-1177,-771,-300,-49,135,-249
24683,5577,0,2023-03-01T18:52:03.141093,1712664,1417,1803,-587,-1170,-770,-300,-49,135,-249
24684,5578,0,2023-03-01T18:52:03.147097,1712670,1417,1803,-587,-1170,-770,-300,-49,135,-249
24685,5579,0,2023-03-01T18:52:03.152437,1712675,1417,1803,-587,-1170,-770,-300,-49,135,-249
24686,5580,0,2023-03-01T18:52:03.158031,1712681,1417,1803,-587,-1170,-770,-300,-49,135,-249
24687,5581,0,2023-03-01T18:52:03.163210,1712687,1417,1807,-592,-1176,-773,-297,-49,135,-249
24688,5582,0,2023-03-01T18:52:03.168833,1712692,1417,1807,-592,-1176,-773,-297,-49,135,-249
24689,5583,0,2023-03-01T18:52:03.174513,1712698,1417,1807,-592,-1176,-773,-297,-49,135,-249
24690,5584,0,2023-03-01T18:52:03.180772,1712704,1417,1807,-592,-1176,-773,-297,-49,135,-249
24691,5585,0,2023-03-01T18:52:03.185567,1712709,1418,1806,-585,-1173,-778,-301,-49,135,-249
24692,5586,0,2023-03-01T18:52:03.191300,1712714,1418,1806,-585,-1173,-778,-301,-49,135,-249
24693,5587,0,2023-03-01T18:52:03.196423,1712720,1418,1806,-585,-1173,-778,-301,-49,135,-249
24694,5588,0,2023-03-01T18:52:03.201197,1712724,1416,1802,-585,-1175,-777,-290,-49,135,-249
24695,5589,0,2023-03-01T18:52:03.207253,1712731,1416,1802,-585,-1175,-777,-290,-49,135,-249
24696,5590,0,2023-03-01T18:52:03.211951,1712736,1416,1802,-585,-1175,-777,-290,-49,135,-249
24697,5591,0,2023-03-01T18:52:03.217302,1712741,1416,1802,-585,-1175,-777,-290,-49,135,-249
24698,5592,0,2023-03-01T18:52:03.222064,1712745,1423,1806,-583,-1182,-772,-299,-57,153,-249
24699,5593,0,2023-03-01T18:52:03.227694,1712751,1423,1806,-583,-1182,-772,-299,-57,153,-249
24700,5594,0,2023-03-01T18:52:03.232277,1712755,1423,1806,-583,-1182,-772,-299,-57,153,-249
24701,5595,0,2023-03-01T18:52:03.237135,1712760,1423,1806,-583,-1182,-772,-299,-57,153,-249
24702,5596,0,2023-03-01T18:52:03.242241,1712765,1423,1806,-583,-1182,-772,-299,-57,153,-249
24703,5597,0,2023-03-01T18:52:03.247249,1712771,1423,1806,-583,-1182,-772,-299,-57,153,-249
24704,5598,0,2023-03-01T18:52:03.251824,1712775,1423,1806,-583,-1182,-772,-299,-57,153,-249
24705,5599,0,2023-03-01T18:52:03.257321,1712781,1423,1806,-583,-1182,-772,-299,-57,153,-249
24706,5600,0,2023-03-01T18:52:03.262549,1712786,1420,1804,-586,-1182,-768,-305,-57,153,-249
24707,5601,0,2023-03-01T18:52:03.268154,1712791,1420,1804,-586,-1182,-768,-305,-57,153,-249
24708,5602,0,2023-03-01T18:52:03.273768,1712797,1420,1804,-586,-1182,-768,-305,-57,153,-249
24709,5603,0,2023-03-01T18:52:03.278494,1712801,1420,1804,-586,-1182,-768,-305,-57,153,-249
24710,5604,0,2023-03-01T18:52:03.283476,1712806,1420,1807,-593,-1187,-784,-296,-57,153,-249
24711,5605,0,2023-03-01T18:52:03.288668,1712813,1420,1807,-593,-1187,-784,-296,-57,153,-249
24712,5606,0,2023-03-01T18:52:03.294021,1712818,1420,1807,-593,-1187,-784,-296,-57,153,-249
24713,5607,0,2023-03-01T18:52:03.298919,1712822,1420,1807,-593,-1187,-784,-296,-57,153,-249
24714,5608,0,2023-03-01T18:52:03.304411,1712828,1418,1803,-588,-1184,-776,-310,-57,153,-249
24715,5609,0,2023-03-01T18:52:03.309720,1712833,1418,1803,-588,-1184,-776,-310,-57,153,-249
24716,5610,0,2023-03-01T18:52:03.315146,1712838,1418,1803,-588,-1184,-776,-310,-57,153,-249
24717,5611,0,2023-03-01T18:52:03.319908,1712843,1418,1803,-588,-1184,-776,-310,-57,153,-249
24718,5612,0,2023-03-01T18:52:03.325483,1712848,1421,1806,-588,-1177,-782,-305,-57,153,-249
24719,5613,0,2023-03-01T18:52:03.331674,1712855,1421,1806,-588,-1177,-782,-305,-57,153,-249
24720,5614,0,2023-03-01T18:52:03.339189,1712863,1421,1806,-588,-1177,-782,-305,-57,153,-249
24721,5615,0,2023-03-01T18:52:03.344739,1712868,1419,1804,-586,-1175,-782,-303,-52,140,-254
24722,5616,0,2023-03-01T18:52:03.350150,1712873,1419,1804,-586,-1175,-782,-303,-52,140,-254
24723,5617,0,2023-03-01T18:52:03.355942,1712879,1419,1804,-586,-1175,-782,-303,-52,140,-254
24724,5618,0,2023-03-01T18:52:03.361048,1712884,1419,1804,-586,-1175,-782,-303,-52,140,-254
24725,5619,0,2023-03-01T18:52:03.366341,1712889,1420,1804,-587,-1172,-779,-297,-52,140,-254
24726,5620,0,2023-03-01T18:52:03.374484,1712898,1420,1804,-587,-1172,-779,-297,-52,140,-254
24727,5621,0,2023-03-01T18:52:03.380077,1712904,1420,1804,-587,-1172,-779,-297,-52,140,-254
24728,5622,0,2023-03-01T18:52:03.385868,1712909,1420,1806,-583,-1185,-777,-302,-52,140,-254
24729,5623,0,2023-03-01T18:52:03.391958,1712915,1420,1806,-583,-1185,-777,-302,-52,140,-254
24730,5624,0,2023-03-01T18:52:03.396686,1712920,1420,1806,-583,-1185,-777,-302,-52,140,-254
24731,5625,0,2023-03-01T18:52:03.401589,1712924,1414,1803,-583,-1181,-780,-309,-52,140,-254
24732,5626,0,2023-03-01T18:52:03.407558,1712930,1414,1803,-583,-1181,-780,-309,-52,140,-254
24733,5627,0,2023-03-01T18:52:03.412374,1712935,1414,1803,-583,-1181,-780,-309,-52,140,-254
24734,5628,0,2023-03-01T18:52:03.418042,1712942,1414,1803,-583,-1181,-780,-309,-52,140,-254
24735,5629,0,2023-03-01T18:52:03.423321,1712947,1421,1806,-595,-1187,-781,-301,-52,140,-254
24736,5630,0,2023-03-01T18:52:03.429072,1712952,1421,1806,-595,-1187,-781,-301,-52,140,-254
24737,5631,0,2023-03-01T18:52:03.434351,1712958,1421,1806,-595,-1187,-781,-301,-52,140,-254
24738,5632,0,2023-03-01T18:52:03.439296,1712962,1421,1806,-595,-1187,-781,-301,-52,140,-254
24739,5633,0,2023-03-01T18:52:03.444353,1712967,1422,1808,-580,-1169,-762,-303,-52,140,-254
24740,5634,0,2023-03-01T18:52:03.449990,1712973,1422,1808,-580,-1169,-762,-303,-52,140,-254
24741,5635,0,2023-03-01T18:52:03.455185,1712978,1422,1808,-580,-1169,-762,-303,-52,140,-254
24742,5636,0,2023-03-01T18:52:03.459687,1712984,1422,1808,-580,-1169,-762,-303,-52,140,-254
24743,5637,0,2023-03-01T18:52:03.465293,1712989,1418,1803,-589,-1173,-775,-295,-52,146,-240
24744,5638,0,2023-03-01T18:52:03.470855,1712994,1418,1803,-589,-1173,-775,-295,-52,146,-240
24745,5639,0,2023-03-01T18:52:03.476786,1713000,1418,1803,-589,-1173,-775,-295,-52,146,-240
24746,5640,0,2023-03-01T18:52:03.482579,1713006,1419,1809,-585,-1184,-774,-299,-52,146,-240
24747,5641,0,2023-03-01T18:52:03.488077,1713011,1419,1809,-585,-1184,-774,-299,-52,146,-240
24748,5642,0,2023-03-01T18:52:03.493062,1713016,1419,1809,-585,-1184,-774,-299,-52,146,-240
24749,5643,0,2023-03-01T18:52:03.498900,1713022,1419,1809,-585,-1184,-774,-299,-52,146,-240
24750,5644,0,2023-03-01T18:52:03.503944,1713028,1417,1802,-591,-1180,-783,-304,-52,146,-240
24751,5645,0,2023-03-01T18:52:03.509438,1713033,1417,1802,-591,-1180,-783,-304,-52,146,-240
24752,5646,0,2023-03-01T18:52:03.515051,1713038,1417,1802,-591,-1180,-783,-304,-52,146,-240
24753,5647,0,2023-03-01T18:52:03.519956,1713043,1417,1802,-591,-1180,-783,-304,-52,146,-240
24754,5648,0,2023-03-01T18:52:03.526280,1713049,1418,1809,-591,-1185,-780,-296,-52,146,-240
24755,5649,0,2023-03-01T18:52:03.531926,1713055,1418,1809,-591,-1185,-780,-296,-52,146,-240
24756,5650,0,2023-03-01T18:52:03.537545,1713060,1418,1809,-591,-1185,-780,-296,-52,146,-240
24757,5651,0,2023-03-01T18:52:03.542321,1713065,1418,1806,-587,-1174,-769,-298,-52,146,-240
24758,5652,0,2023-03-01T18:52:03.547940,1713071,1418,1806,-587,-1174,-769,-298,-52,146,-240
24759,5653,0,2023-03-01T18:52:03.553381,1713076,1418,1806,-587,-1174,-769,-298,-52,146,-240
24760,5654,0,2023-03-01T18:52:03.559105,1713082,1418,1806,-587,-1174,-769,-298,-52,146,-240
24761,5655,0,2023-03-01T18:52:03.563869,1713087,1418,1806,-585,-1167,-769,-297,-52,146,-240
24762,5656,0,2023-03-01T18:52:03.569547,1713093,1418,1806,-585,-1167,-769,-297,-52,146,-240
24763,5657,0,2023-03-01T18:52:03.575225,1713098,1418,1806,-585,-1167,-769,-297,-52,146,-240
24764,5658,0,2023-03-01T18:52:03.580330,1713103,1418,1806,-585,-1167,-769,-297,-52,146,-240
24765,5659,0,2023-03-01T18:52:03.586135,1713108,1415,1808,-591,-1181,-782,-303,-52,146,-240
24766,5660,0,2023-03-01T18:52:03.592127,1713115,1415,1808,-591,-1181,-782,-303,-52,146,-240
24767,5661,0,2023-03-01T18:52:03.597792,1713121,1415,1808,-591,-1181,-782,-303,-52,146,-240
24768,5662,0,2023-03-01T18:52:03.603631,1713127,1417,1804,-590,-1182,-778,-290,-52,140,-246
24769,5663,0,2023-03-01T18:52:03.609387,1713133,1417,1804,-590,-1182,-778,-290,-52,140,-246
24770,5664,0,2023-03-01T18:52:03.614445,1713138,1417,1804,-590,-1182,-778,-290,-52,140,-246
24771,5665,0,2023-03-01T18:52:03.619408,1713142,1417,1804,-590,-1182,-778,-290,-52,140,-246
24772,5666,0,2023-03-01T18:52:03.625055,1713148,1416,1803,-585,-1181,-779,-300,-52,140,-246
24773,5667,0,2023-03-01T18:52:03.630599,1713154,1416,1803,-585,-1181,-779,-300,-52,140,-246
24774,5668,0,2023-03-01T18:52:03.636263,1713160,1416,1803,-585,-1181,-779,-300,-52,140,-246
24775,5669,0,2023-03-01T18:52:03.641005,1713164,1416,1803,-585,-1181,-779,-300,-52,140,-246
24776,5670,0,2023-03-01T18:52:03.646741,1713170,1420,1807,-595,-1186,-787,-300,-52,140,-246
24777,5671,0,2023-03-01T18:52:03.652116,1713175,1420,1807,-595,-1186,-787,-300,-52,140,-246
24778,5672,0,2023-03-01T18:52:03.657461,1713181,1420,1807,-595,-1186,-787,-300,-52,140,-246
24779,5673,0,2023-03-01T18:52:03.663092,1713186,1416,1802,-586,-1177,-774,-305,-52,140,-246
24780,5674,0,2023-03-01T18:52:03.669120,1713192,1416,1802,-586,-1177,-774,-305,-52,140,-246
24781,5675,0,2023-03-01T18:52:03.674863,1713199,1416,1802,-586,-1177,-774,-305,-52,140,-246
24782,5676,0,2023-03-01T18:52:03.679621,1713203,1416,1802,-586,-1177,-774,-305,-52,140,-246
24783,5677,0,2023-03-01T18:52:03.684816,1713208,1420,1803,-597,-1177,-776,-300,-52,140,-246
24784,5678,0,2023-03-01T18:52:03.690447,1713214,1420,1803,-597,-1177,-776,-300,-52,140,-246
24785,5679,0,2023-03-01T18:52:03.695742,1713219,1420,1803,-597,-1177,-776,-300,-52,140,-246
24786,5680,0,2023-03-01T18:52:03.701306,1713224,1420,1803,-597,-1177,-776,-300,-52,140,-246
24787,5681,0,2023-03-01T18:52:03.706156,1713229,1417,1804,-593,-1180,-779,-304,-52,140,-246
24788,5682,0,2023-03-01T18:52:03.711481,1713234,1417,1804,-593,-1180,-779,-304,-52,140,-246
24789,5683,0,2023-03-01T18:52:03.716918,1713241,1417,1804,-593,-1180,-779,-304,-52,140,-246
24790,5684,0,2023-03-01T18:52:03.721543,1713245,1417,1804,-593,-1180,-779,-304,-52,140,-246
24791,5685,0,2023-03-01T18:52:03.726452,1713250,1417,1805,-589,-1182,-786,-295,-53,145,-239
24792,5686,0,2023-03-01T18:52:03.731936,1713255,1417,1805,-589,-1182,-786,-295,-53,145,-239
24793,5687,0,2023-03-01T18:52:03.737436,1713261,1417,1805,-589,-1182,-786,-295,-53,145,-239
24794,5688,0,2023-03-01T18:52:03.742912,1713266,1421,1804,-588,-1181,-777,-294,-53,145,-239
24795,5689,0,2023-03-01T18:52:03.748894,1713272,1421,1804,-588,-1181,-777,-294,-53,145,-239
24796,5690,0,2023-03-01T18:52:03.754395,1713277,1421,1804,-588,-1181,-777,-294,-53,145,-239
24797,5691,0,2023-03-01T18:52:03.759616,1713283,1421,1804,-588,-1181,-777,-294,-53,145,-239
24798,5692,0,2023-03-01T18:52:03.764347,1713288,1420,1803,-596,-1182,-778,-292,-53,145,-239
24799,5693,0,2023-03-01T18:52:03.770046,1713293,1420,1803,-596,-1182,-778,-292,-53,145,-239
24800,5694,0,2023-03-01T18:52:03.775679,1713299,1420,1803,-596,-1182,-778,-292,-53,145,-239
24801,5695,0,2023-03-01T18:52:03.780299,1713304,1420,1803,-596,-1182,-778,-292,-53,145,-239
24802,5696,0,2023-03-01T18:52:03.784983,1713308,1419,1805,-583,-1182,-790,-296,-53,145,-239
24803,5697,0,2023-03-01T18:52:03.790226,1713313,1419,1805,-583,-1182,-790,-296,-53,145,-239
24804,5698,0,2023-03-01T18:52:03.795633,1713319,1419,1805,-583,-1182,-790,-296,-53,145,-239
24805,5699,0,2023-03-01T18:52:03.800982,1713324,1419,1805,-583,-1182,-790,-296,-53,145,-239
24806,5700,0,2023-03-01T18:52:03.806571,1713330,1418,1808,-590,-1190,-789,-301,-53,145,-239
24807,5701,0,2023-03-01T18:52:03.812119,1713336,1418,1808,-590,-1190,-789,-301,-53,145,-239
24808,5702,0,2023-03-01T18:52:03.818009,1713341,1418,1808,-590,-1190,-789,-301,-53,145,-239
24809,5703,0,2023-03-01T18:52:03.823164,1713346,1417,1803,-588,-1184,-786,-306,-53,145,-239
24810,5704,0,2023-03-01T18:52:03.828743,1713352,1417,1803,-588,-1184,-786,-306,-53,145,-239
24811,5705,0,2023-03-01T18:52:03.833567,1713356,1417,1803,-588,-1184,-786,-306,-53,145,-239
24812,5706,0,2023-03-01T18:52:03.837959,1713361,1417,1803,-588,-1184,-786,-306,-53,145,-239
24813,5707,0,2023-03-01T18:52:03.843506,1713367,1420,1805,-590,-1190,-795,-296,-53,145,-239
24814,5708,0,2023-03-01T18:52:03.848953,1713372,1420,1805,-590,-1190,-795,-296,-53,145,-239
24815,5709,0,2023-03-01T18:52:03.854646,1713378,1420,1805,-590,-1190,-795,-296,-53,145,-239
24816,5710,0,2023-03-01T18:52:03.859398,1713383,1420,1805,-590,-1190,-795,-296,-53,145,-239
24817,5711,0,2023-03-01T18:52:03.864618,1713388,1417,1803,-583,-1185,-794,-297,-44,142,-242
24818,5712,0,2023-03-01T18:52:03.870015,1713393,1417,1803,-583,-1185,-794,-297,-44,142,-242
24819,5713,0,2023-03-01T18:52:03.875616,1713398,1417,1803,-583,-1185,-794,-297,-44,142,-242
24820,5714,0,2023-03-01T18:52:03.880784,1713404,1417,1803,-583,-1185,-794,-297,-44,142,-242
24821,5715,0,2023-03-01T18:52:03.885777,1713410,1420,1805,-585,-1187,-794,-298,-44,142,-242
24822,5716,0,2023-03-01T18:52:03.891192,1713415,1420,1805,-585,-1187,-794,-298,-44,142,-242
24823,5717,0,2023-03-01T18:52:03.896581,1713420,1420,1805,-585,-1187,-794,-298,-44,142,-242
24824,5718,0,2023-03-01T18:52:03.901669,1713425,1420,1805,-585,-1187,-794,-298,-44,142,-242
24825,5719,0,2023-03-01T18:52:03.906586,1713430,1421,1803,-595,-1196,-799,-296,-44,142,-242
24826,5720,0,2023-03-01T18:52:03.912226,1713435,1421,1803,-595,-1196,-799,-296,-44,142,-242
24827,5721,0,2023-03-01T18:52:03.917683,1713441,1421,1803,-595,-1196,-799,-296,-44,142,-242
24828,5722,0,2023-03-01T18:52:03.923345,1713446,1418,1803,-587,-1183,-790,-299,-44,142,-242
24829,5723,0,2023-03-01T18:52:03.928625,1713452,1418,1803,-587,-1183,-790,-299,-44,142,-242
24830,5724,0,2023-03-01T18:52:03.935299,1713458,1418,1803,-587,-1183,-790,-299,-44,142,-242
24831,5725,0,2023-03-01T18:52:03.940021,1713464,1418,1803,-587,-1183,-790,-299,-44,142,-242
24832,5726,0,2023-03-01T18:52:03.945608,1713469,1421,1807,-588,-1182,-788,-297,-44,142,-242
24833,5727,0,2023-03-01T18:52:03.950183,1713473,1421,1807,-588,-1182,-788,-297,-44,142,-242
24834,5728,0,2023-03-01T18:52:03.955460,1713479,1421,1807,-588,-1182,-788,-297,-44,142,-242
24835,5729,0,2023-03-01T18:52:03.960577,1713484,1421,1807,-588,-1182,-788,-297,-44,142,-242
24836,5730,0,2023-03-01T18:52:03.966485,1713489,1415,1803,-592,-1189,-794,-294,-44,142,-242
24837,5731,0,2023-03-01T18:52:03.972063,1713496,1415,1803,-592,-1189,-794,-294,-44,142,-242
24838,5732,0,2023-03-01T18:52:03.977579,1713501,1415,1803,-592,-1189,-794,-294,-44,142,-242
24839,5733,0,2023-03-01T18:52:03.983312,1713507,1418,1806,-587,-1194,-798,-296,-52,142,-246
24840,5734,0,2023-03-01T18:52:03.989205,1713513,1418,1806,-587,-1194,-798,-296,-52,142,-246
24841,5735,0,2023-03-01T18:52:03.994988,1713518,1418,1806,-587,-1194,-798,-296,-52,142,-246
24842,5736,0,2023-03-01T18:52:04.000110,1713523,1418,1806,-587,-1194,-798,-296,-52,142,-246
24843,5737,0,2023-03-01T18:52:04.004862,1713528,1417,1808,-588,-1187,-784,-302,-52,142,-246
24844,5738,0,2023-03-01T18:52:04.010236,1713533,1417,1808,-588,-1187,-784,-302,-52,142,-246
24845,5739,0,2023-03-01T18:52:04.015859,1713539,1417,1808,-588,-1187,-784,-302,-52,142,-246
24846,5740,0,2023-03-01T18:52:04.020616,1713544,1417,1808,-588,-1187,-784,-302,-52,142,-246
24847,5741,0,2023-03-01T18:52:04.025483,1713549,1416,1804,-582,-1183,-790,-301,-52,142,-246
24848,5742,0,2023-03-01T18:52:04.031031,1713554,1416,1804,-582,-1183,-790,-301,-52,142,-246
24849,5743,0,2023-03-01T18:52:04.036295,1713560,1416,1804,-582,-1183,-790,-301,-52,142,-246
24850,5744,0,2023-03-01T18:52:04.041009,1713564,1416,1804,-582,-1183,-790,-301,-52,142,-246
24851,5745,0,2023-03-01T18:52:04.046592,1713569,1419,1806,-595,-1180,-795,-302,-52,142,-246
24852,5746,0,2023-03-01T18:52:04.052338,1713575,1419,1806,-595,-1180,-795,-302,-52,142,-246
24853,5747,0,2023-03-01T18:52:04.058395,1713581,1419,1806,-595,-1180,-795,-302,-52,142,-246
24854,5748,0,2023-03-01T18:52:04.063672,1713587,1418,1808,-601,-1187,-788,-296,-52,142,-246
24855,5749,0,2023-03-01T18:52:04.069103,1713593,1418,1808,-601,-1187,-788,-296,-52,142,-246
24856,5750,0,2023-03-01T18:52:04.074224,1713598,1418,1808,-601,-1187,-788,-296,-52,142,-246
24857,5751,0,2023-03-01T18:52:04.079182,1713602,1418,1808,-601,-1187,-788,-296,-52,142,-246
24858,5752,0,2023-03-01T18:52:04.083881,1713607,1416,1805,-596,-1176,-778,-307,-52,142,-246
24859,5753,0,2023-03-01T18:52:04.088947,1713612,1416,1805,-596,-1176,-778,-307,-52,142,-246
24860,5754,0,2023-03-01T18:52:04.094179,1713617,1416,1805,-596,-1176,-778,-307,-52,142,-246
24861,5755,0,2023-03-01T18:52:04.099029,1713623,1416,1805,-596,-1176,-778,-307,-52,142,-246
24862,5756,0,2023-03-01T18:52:04.104688,1713628,1420,1810,-591,-1176,-765,-310,-52,142,-246
24863,5757,0,2023-03-01T18:52:04.109851,1713633,1420,1810,-591,-1176,-765,-310,-52,142,-246
24864,5758,0,2023-03-01T18:52:04.115019,1713638,1420,1810,-591,-1176,-765,-310,-52,142,-246
24865,5759,0,2023-03-01T18:52:04.120216,1713643,1420,1810,-591,-1176,-765,-310,-52,142,-246
24866,5760,0,2023-03-01T18:52:04.126375,1713649,1421,1804,-586,-1165,-764,-302,-51,139,-241
24867,5761,0,2023-03-01T18:52:04.132267,1713655,1421,1804,-586,-1165,-764,-302,-51,139,-241
24868,5762,0,2023-03-01T18:52:04.137721,1713661,1421,1804,-586,-1165,-764,-302,-51,139,-241
24869,5763,0,2023-03-01T18:52:04.142610,1713666,1417,1804,-587,-1174,-763,-291,-51,139,-241
24870,5764,0,2023-03-01T18:52:04.147086,1713671,1417,1804,-587,-1174,-763,-291,-51,139,-241
24871,5765,0,2023-03-01T18:52:04.152249,1713675,1417,1804,-587,-1174,-763,-291,-51,139,-241
24872,5766,0,2023-03-01T18:52:04.157721,1713681,1417,1804,-587,-1174,-763,-291,-51,139,-241
24873,5767,0,2023-03-01T18:52:04.163436,1713687,1420,1809,-590,-1170,-765,-305,-51,139,-241
24874,5768,0,2023-03-01T18:52:04.168706,1713692,1420,1809,-590,-1170,-765,-305,-51,139,-241
24875,5769,0,2023-03-01T18:52:04.174357,1713697,1420,1809,-590,-1170,-765,-305,-51,139,-241
24876,5770,0,2023-03-01T18:52:04.179433,1713702,1420,1809,-590,-1170,-765,-305,-51,139,-241
24877,5771,0,2023-03-01T18:52:04.184342,1713708,1419,1807,-591,-1163,-768,-309,-51,139,-241
24878,5772,0,2023-03-01T18:52:04.189966,1713714,1419,1807,-591,-1163,-768,-309,-51,139,-241
24879,5773,0,2023-03-01T18:52:04.194995,1713719,1419,1807,-591,-1163,-768,-309,-51,139,-241
24880,5774,0,2023-03-01T18:52:04.200091,1713723,1419,1807,-591,-1163,-768,-309,-51,139,-241
24881,5775,0,2023-03-01T18:52:04.205291,1713728,1420,1806,-591,-1166,-771,-305,-51,139,-241
24882,5776,0,2023-03-01T18:52:04.210993,1713734,1420,1806,-591,-1166,-771,-305,-51,139,-241
24883,5777,0,2023-03-01T18:52:04.216593,1713740,1420,1806,-591,-1166,-771,-305,-51,139,-241
24884,5778,0,2023-03-01T18:52:04.221313,1713744,1420,1806,-591,-1166,-771,-305,-51,139,-241
24885,5779,0,2023-03-01T18:52:04.226120,1713750,1417,1808,-594,-1181,-776,-294,-51,139,-241
24886,5780,0,2023-03-01T18:52:04.231678,1713755,1417,1808,-594,-1181,-776,-294,-51,139,-241
24887,5781,0,2023-03-01T18:52:04.237491,1713761,1417,1808,-594,-1181,-776,-294,-51,139,-241
24888,5782,0,2023-03-01T18:52:04.242532,1713766,1415,1802,-592,-1180,-771,-306,-51,139,-241
24889,5783,0,2023-03-01T18:52:04.248839,1713772,1415,1802,-592,-1180,-771,-306,-49,139,-245
24890,5784,0,2023-03-01T18:52:04.254052,1713777,1415,1802,-592,-1180,-771,-306,-49,139,-245
24891,5785,0,2023-03-01T18:52:04.259095,1713782,1415,1802,-592,-1180,-771,-306,-49,139,-245
24892,5786,0,2023-03-01T18:52:04.263918,1713787,1419,1806,-591,-1182,-776,-310,-49,139,-245
24893,5787,0,2023-03-01T18:52:04.269679,1713793,1419,1806,-591,-1182,-776,-310,-49,139,-245
24894,5788,0,2023-03-01T18:52:04.275404,1713799,1419,1806,-591,-1182,-776,-310,-49,139,-245
24895,5789,0,2023-03-01T18:52:04.280036,1713804,1419,1806,-591,-1182,-776,-310,-49,139,-245
24896,5790,0,2023-03-01T18:52:04.285400,1713809,1417,1805,-586,-1180,-760,-299,-49,139,-245
24897,5791,0,2023-03-01T18:52:04.291012,1713814,1417,1805,-586,-1180,-760,-299,-49,139,-245
24898,5792,0,2023-03-01T18:52:04.296790,1713820,1417,1805,-586,-1180,-760,-299,-49,139,-245
24899,5793,0,2023-03-01T18:52:04.301731,1713825,1417,1805,-586,-1180,-760,-299,-49,139,-245
24900,5794,0,2023-03-01T18:52:04.306338,1713829,1420,1807,-594,-1173,-762,-304,-49,139,-245
24901,5795,0,2023-03-01T18:52:04.311738,1713836,1420,1807,-594,-1173,-762,-304,-49,139,-245
24902,5796,0,2023-03-01T18:52:04.317243,1713841,1420,1807,-594,-1173,-762,-304,-49,139,-245
24903,5797,0,2023-03-01T18:52:04.321960,1713846,1420,1807,-594,-1173,-762,-304,-49,139,-245
24904,5798,0,2023-03-01T18:52:04.326988,1713850,1420,1807,-594,-1173,-762,-304,-49,139,-245
24905,5799,0,2023-03-01T18:52:04.331908,1713855,1420,1807,-594,-1173,-762,-304,-49,139,-245
24906,5800,0,2023-03-01T18:52:04.337395,1713861,1420,1807,-594,-1173,-762,-304,-49,139,-245
24907,5801,0,2023-03-01T18:52:04.342362,1713866,1416,1802,-589,-1166,-776,-298,-49,139,-245
24908,5802,0,2023-03-01T18:52:04.348000,1713871,1416,1802,-589,-1166,-776,-298,-49,139,-245
24909,5803,0,2023-03-01T18:52:04.353046,1713876,1416,1802,-589,-1166,-776,-298,-49,139,-245
24910,5804,0,2023-03-01T18:52:04.359416,1713883,1416,1802,-589,-1166,-776,-298,-49,139,-245
24911,5805,0,2023-03-01T18:52:04.364841,1713888,1423,1806,-593,-1170,-774,-299,-54,132,-244
24912,5806,0,2023-03-01T18:52:04.370251,1713894,1423,1806,-593,-1170,-774,-299,-54,132,-244
24913,5807,0,2023-03-01T18:52:04.375874,1713899,1423,1806,-593,-1170,-774,-299,-54,132,-244
24914,5808,0,2023-03-01T18:52:04.381412,1713904,1423,1806,-593,-1170,-774,-299,-54,132,-244
24915,5809,0,2023-03-01T18:52:04.386375,1713909,1423,1806,-593,-1170,-774,-299,-54,132,-244
24916,5810,0,2023-03-01T18:52:04.391723,1713914,1423,1806,-593,-1170,-774,-299,-54,132,-244
24917,5811,0,2023-03-01T18:52:04.397485,1713921,1423,1806,-593,-1170,-774,-299,-54,132,-244
24918,5812,0,2023-03-01T18:52:04.402684,1713926,1421,1805,-586,-1175,-765,-292,-54,132,-244
24919,5813,0,2023-03-01T18:52:04.409279,1713932,1421,1805,-586,-1175,-765,-292,-54,132,-244
24920,5814,0,2023-03-01T18:52:04.415377,1713938,1421,1805,-586,-1175,-765,-292,-54,132,-244
24921,5815,0,2023-03-01T18:52:04.420994,1713943,1421,1805,-586,-1175,-765,-292,-54,132,-244
24922,5816,0,2023-03-01T18:52:04.425751,1713949,1423,1807,-588,-1187,-780,-294,-54,132,-244
24923,5817,0,2023-03-01T18:52:04.431257,1713954,1423,1807,-588,-1187,-780,-294,-54,132,-244
24924,5818,0,2023-03-01T18:52:04.436890,1713960,1423,1807,-588,-1187,-780,-294,-54,132,-244
24925,5819,0,2023-03-01T18:52:04.442331,1713965,1423,1807,-588,-1187,-780,-294,-54,132,-244
24926,5820,0,2023-03-01T18:52:04.447578,1713971,1416,1797,-590,-1180,-783,-307,-54,132,-244
24927,5821,0,2023-03-01T18:52:04.453495,1713977,1416,1797,-590,-1180,-783,-307,-54,132,-244
24928,5822,0,2023-03-01T18:52:04.458690,1713982,1416,1797,-590,-1180,-783,-307,-54,132,-244
24929,5823,0,2023-03-01T18:52:04.464410,1713987,1424,1808,-591,-1180,-779,-309,-54,132,-244
24930,5824,0,2023-03-01T18:52:04.470242,1713993,1424,1808,-591,-1180,-779,-309,-54,132,-244
24931,5825,0,2023-03-01T18:52:04.476138,1713999,1424,1808,-591,-1180,-779,-309,-54,132,-244
24932,5826,0,2023-03-01T18:52:04.480904,1714004,1424,1808,-591,-1180,-779,-309,-54,132,-244
24933,5827,0,2023-03-01T18:52:04.485665,1714009,1418,1805,-594,-1179,-782,-294,-54,132,-244
24934,5828,0,2023-03-01T18:52:04.491508,1714015,1418,1805,-594,-1179,-782,-294,-54,132,-244
24935,5829,0,2023-03-01T18:52:04.497569,1714021,1418,1805,-594,-1179,-782,-294,-54,132,-244
24936,5830,0,2023-03-01T18:52:04.502563,1714026,1418,1805,-594,-1179,-782,-294,-54,132,-244
24937,5831,0,2023-03-01T18:52:04.508048,1714031,1418,1800,-581,-1182,-772,-298,-53,145,-249
24938,5832,0,2023-03-01T18:52:04.513519,1714037,1418,1800,-581,-1182,-772,-298,-53,145,-249
24939,5833,0,2023-03-01T18:52:04.518840,1714042,1418,1800,-581,-1182,-772,-298,-53,145,-249
24940,5834,0,2023-03-01T18:52:04.524606,1714048,1419,1808,-588,-1178,-779,-302,-53,145,-249
24941,5835,0,2023-03-01T18:52:04.530680,1714054,1419,1808,-588,-1178,-779,-302,-53,145,-249
24942,5836,0,2023-03-01T18:52:04.536222,1714060,1419,1808,-588,-1178,-779,-302,-53,145,-249
24943,5837,0,2023-03-01T18:52:04.540927,1714064,1419,1808,-588,-1178,-779,-302,-53,145,-249
24944,5838,0,2023-03-01T18:52:04.545626,1714069,1420,1804,-590,-1181,-781,-295,-53,145,-249
24945,5839,0,2023-03-01T18:52:04.550942,1714074,1420,1804,-590,-1181,-781,-295,-53,145,-249
24946,5840,0,2023-03-01T18:52:04.556114,1714079,1420,1804,-590,-1181,-781,-295,-53,145,-249
24947,5841,0,2023-03-01T18:52:04.560989,1714084,1420,1804,-590,-1181,-781,-295,-53,145,-249
24948,5842,0,2023-03-01T18:52:04.566674,1714089,1419,1802,-591,-1184,-792,-296,-53,145,-249
24949,5843,0,2023-03-01T18:52:04.572070,1714096,1419,1802,-591,-1184,-792,-296,-53,145,-249
24950,5844,0,2023-03-01T18:52:04.579124,1714103,1419,1802,-591,-1184,-792,-296,-53,145,-249
24951,5845,0,2023-03-01T18:52:04.583850,1714107,1420,1809,-593,-1185,-794,-295,-53,145,-249
24952,5846,0,2023-03-01T18:52:04.589321,1714113,1420,1809,-593,-1185,-794,-295,-53,145,-249
24953,5847,0,2023-03-01T18:52:04.594964,1714118,1420,1809,-593,-1185,-794,-295,-53,145,-249
24954,5848,0,2023-03-01T18:52:04.600049,1714123,1420,1809,-593,-1185,-794,-295,-53,145,-249
24955,5849,0,2023-03-01T18:52:04.605596,1714128,1417,1802,-588,-1181,-794,-300,-53,145,-249
24956,5850,0,2023-03-01T18:52:04.611050,1714135,1417,1802,-588,-1181,-794,-300,-53,145,-249
24957,5851,0,2023-03-01T18:52:04.616947,1714140,1417,1802,-588,-1181,-794,-300,-53,145,-249
24958,5852,0,2023-03-01T18:52:04.621933,1714145,1417,1802,-588,-1181,-794,-300,-53,145,-249
24959,5853,0,2023-03-01T18:52:04.627522,1714151,1417,1805,-590,-1184,-793,-305,-52,138,-248
24960,5854,0,2023-03-01T18:52:04.633251,1714156,1417,1805,-590,-1184,-793,-305,-52,138,-248
24961,5855,0,2023-03-01T18:52:04.639114,1714162,1417,1805,-590,-1184,-793,-305,-52,138,-248
24962,5856,0,2023-03-01T18:52:04.644477,1714168,1418,1805,-591,-1187,-781,-310,-52,138,-248
24963,5857,0,2023-03-01T18:52:04.650204,1714173,1418,1805,-591,-1187,-781,-310,-52,138,-248
24964,5858,0,2023-03-01T18:52:04.656107,1714180,1418,1805,-591,-1187,-781,-310,-52,138,-248
24965,5859,0,2023-03-01T18:52:04.660821,1714184,1418,1805,-591,-1187,-781,-310,-52,138,-248
24966,5860,0,2023-03-01T18:52:04.665780,1714189,1418,1802,-590,-1184,-776,-304,-52,138,-248
24967,5861,0,2023-03-01T18:52:04.671401,1714195,1418,1802,-590,-1184,-776,-304,-52,138,-248
24968,5862,0,2023-03-01T18:52:04.676854,1714200,1418,1802,-590,-1184,-776,-304,-52,138,-248
24969,5863,0,2023-03-01T18:52:04.681973,1714205,1418,1802,-590,-1184,-776,-304,-52,138,-248
24970,5864,0,2023-03-01T18:52:04.687652,1714210,1419,1807,-597,-1180,-778,-302,-52,138,-248
24971,5865,0,2023-03-01T18:52:04.693489,1714216,1419,1807,-597,-1180,-778,-302,-52,138,-248
24972,5866,0,2023-03-01T18:52:04.699116,1714223,1419,1807,-597,-1180,-778,-302,-52,138,-248
24973,5867,0,2023-03-01T18:52:04.703881,1714228,1416,1802,-587,-1184,-781,-299,-52,138,-248
24974,5868,0,2023-03-01T18:52:04.709706,1714233,1416,1802,-587,-1184,-781,-299,-52,138,-248
24975,5869,0,2023-03-01T18:52:04.715633,1714239,1416,1802,-587,-1184,-781,-299,-52,138,-248
24976,5870,0,2023-03-01T18:52:04.721566,1714244,1416,1802,-587,-1184,-781,-299,-52,138,-248
24977,5871,0,2023-03-01T18:52:04.727406,1714250,1420,1804,-589,-1181,-787,-298,-52,138,-248
24978,5872,0,2023-03-01T18:52:04.732552,1714256,1420,1804,-589,-1181,-787,-298,-52,138,-248
24979,5873,0,2023-03-01T18:52:04.737948,1714262,1420,1804,-589,-1181,-787,-298,-52,138,-248
24980,5874,0,2023-03-01T18:52:04.742747,1714266,1420,1804,-589,-1181,-787,-298,-52,138,-248
24981,5875,0,2023-03-01T18:52:04.748520,1714272,1417,1807,-595,-1193,-790,-302,-52,138,-248
24982,5876,0,2023-03-01T18:52:04.754074,1714278,1417,1807,-595,-1193,-790,-302,-52,138,-248
24983,5877,0,2023-03-01T18:52:04.759531,1714283,1417,1807,-595,-1193,-790,-302,-52,138,-248
24984,5878,0,2023-03-01T18:52:04.764268,1714287,1419,1802,-588,-1185,-792,-304,-48,140,-244
24985,5879,0,2023-03-01T18:52:04.769931,1714293,1419,1802,-588,-1185,-792,-304,-48,140,-244
24986,5880,0,2023-03-01T18:52:04.775474,1714298,1419,1802,-588,-1185,-792,-304,-48,140,-244
24987,5881,0,2023-03-01T18:52:04.780228,1714304,1419,1802,-588,-1185,-792,-304,-48,140,-244
24988,5882,0,2023-03-01T18:52:04.786388,1714310,1418,1808,-590,-1184,-800,-302,-48,140,-244
24989,5883,0,2023-03-01T18:52:04.792288,1714316,1418,1808,-590,-1184,-800,-302,-48,140,-244
24990,5884,0,2023-03-01T18:52:04.797758,1714321,1418,1808,-590,-1184,-800,-302,-48,140,-244
24991,5885,0,2023-03-01T18:52:04.802745,1714326,1418,1808,-590,-1184,-800,-302,-48,140,-244
24992,5886,0,2023-03-01T18:52:04.809604,1714332,1419,1802,-595,-1194,-804,-302,-48,140,-244
24993,5887,0,2023-03-01T18:52:04.814763,1714338,1419,1802,-595,-1194,-804,-302,-48,140,-244
24994,5888,0,2023-03-01T18:52:04.820148,1714343,1419,1802,-595,-1194,-804,-302,-48,140,-244
24995,5889,0,2023-03-01T18:52:04.825533,1714349,1419,1803,-588,-1196,-795,-303,-48,140,-244
24996,5890,0,2023-03-01T18:52:04.832153,1714355,1419,1803,-588,-1196,-795,-303,-48,140,-244
24997,5891,0,2023-03-01T18:52:04.838317,1714362,1419,1803,-588,-1196,-795,-303,-48,140,-244
24998,5892,0,2023-03-01T18:52:04.843599,1714367,1422,1809,-595,-1188,-797,-303,-48,140,-244
24999,5893,0,2023-03-01T18:52:04.849297,1714372,1422,1809,-595,-1188,-797,-303,-48,140,-244
25000,5894,0,2023-03-01T18:52:04.854939,1714378,1422,1809,-595,-1188,-797,-303,-48,140,-244
25001,5895,0,2023-03-01T18:52:04.860587,1714383,1422,1809,-595,-1188,-797,-303,-48,140,-244
25002,5896,0,2023-03-01T18:52:04.866806,1714390,1415,1806,-597,-1192,-781,-299,-48,140,-244
25003,5897,0,2023-03-01T18:52:04.872774,1714396,1415,1806,-597,-1192,-781,-299,-48,140,-244
25004,5898,0,2023-03-01T18:52:04.878454,1714402,1415,1806,-597,-1192,-781,-299,-48,140,-244
25005,5899,0,2023-03-01T18:52:04.883859,1714407,1419,1805,-583,-1180,-773,-306,-58,144,-248
25006,5900,0,2023-03-01T18:52:04.890023,1714413,1419,1805,-583,-1180,-773,-306,-58,144,-248
25007,5901,0,2023-03-01T18:52:04.895613,1714419,1419,1805,-583,-1180,-773,-306,-58,144,-248
25008,5902,0,2023-03-01T18:52:04.900554,1714423,1419,1805,-583,-1180,-773,-306,-58,144,-248
25009,5903,0,2023-03-01T18:52:04.905487,1714428,1419,1808,-588,-1181,-782,-299,-58,144,-248
25010,5904,0,2023-03-01T18:52:04.911794,1714435,1419,1808,-588,-1181,-782,-299,-58,144,-248
25011,5905,0,2023-03-01T18:52:04.918299,1714441,1419,1808,-588,-1181,-782,-299,-58,144,-248
25012,5906,0,2023-03-01T18:52:04.924008,1714447,1417,1804,-592,-1185,-793,-298,-58,144,-248
25013,5907,0,2023-03-01T18:52:04.930139,1714453,1417,1804,-592,-1185,-793,-298,-58,144,-248
25014,5908,0,2023-03-01T18:52:04.935901,1714459,1417,1804,-592,-1185,-793,-298,-58,144,-248
25015,5909,0,2023-03-01T18:52:04.941025,1714464,1417,1804,-592,-1185,-793,-298,-58,144,-248
25016,5910,0,2023-03-01T18:52:04.947019,1714470,1416,1804,-594,-1182,-787,-306,-58,144,-248
25017,5911,0,2023-03-01T18:52:04.952787,1714476,1416,1804,-594,-1182,-787,-306,-58,144,-248
25018,5912,0,2023-03-01T18:52:04.958378,1714482,1416,1804,-594,-1182,-787,-306,-58,144,-248
25019,5913,0,2023-03-01T18:52:04.964107,1714487,1420,1805,-597,-1173,-765,-300,-58,144,-248
25020,5914,0,2023-03-01T18:52:04.970017,1714493,1420,1805,-597,-1173,-765,-300,-58,144,-248
25021,5915,0,2023-03-01T18:52:04.975777,1714499,1420,1805,-597,-1173,-765,-300,-58,144,-248
25022,5916,0,2023-03-01T18:52:04.980835,1714504,1420,1805,-597,-1173,-765,-300,-58,144,-248
25023,5917,0,2023-03-01T18:52:04.986450,1714509,1415,1806,-590,-1176,-761,-303,-58,144,-248
25024,5918,0,2023-03-01T18:52:04.992240,1714515,1415,1806,-590,-1176,-761,-303,-58,144,-248
25025,5919,0,2023-03-01T18:52:04.998041,1714522,1415,1806,-590,-1176,-761,-303,-58,144,-248
25026,5920,0,2023-03-01T18:52:05.002977,1714527,1415,1806,-590,-1176,-761,-303,-58,144,-248
25027,5921,0,2023-03-01T18:52:05.008653,1714532,1420,1808,-595,-1175,-759,-297,-58,144,-248
25028,5922,0,2023-03-01T18:52:05.014904,1714538,1420,1808,-595,-1175,-759,-297,-58,144,-248
25029,5923,0,2023-03-01T18:52:05.019671,1714543,1420,1808,-595,-1175,-759,-297,-58,144,-248
25030,5924,0,2023-03-01T18:52:05.024692,1714548,1415,1803,-593,-1162,-764,-291,-61,135,-247
25031,5925,0,2023-03-01T18:52:05.030707,1714554,1415,1803,-593,-1162,-764,-291,-61,135,-247
25032,5926,0,2023-03-01T18:52:05.036678,1714560,1415,1803,-593,-1162,-764,-291,-61,135,-247
25033,5927,0,2023-03-01T18:52:05.041490,1714565,1415,1803,-593,-1162,-764,-291,-61,135,-247
25034,5928,0,2023-03-01T18:52:05.047181,1714571,1417,1805,-587,-1161,-751,-304,-61,135,-247
25035,5929,0,2023-03-01T18:52:05.052837,1714576,1417,1805,-587,-1161,-751,-304,-61,135,-247
25036,5930,0,2023-03-01T18:52:05.058528,1714582,1417,1805,-587,-1161,-751,-304,-61,135,-247
25037,5931,0,2023-03-01T18:52:05.064392,1714588,1426,1807,-594,-1168,-753,-307,-61,135,-247
25038,5932,0,2023-03-01T18:52:05.070187,1714593,1426,1807,-594,-1168,-753,-307,-61,135,-247
25039,5933,0,2023-03-01T18:52:05.076118,1714598,1426,1807,-594,-1168,-753,-307,-61,135,-247
25040,5934,0,2023-03-01T18:52:05.081377,1714605,1426,1807,-594,-1168,-753,-307,-61,135,-247
25041,5935,0,2023-03-01T18:52:05.087337,1714611,1418,1802,-589,-1168,-751,-299,-61,135,-247
25042,5936,0,2023-03-01T18:52:05.092868,1714616,1418,1802,-589,-1168,-751,-299,-61,135,-247
25043,5937,0,2023-03-01T18:52:05.098547,1714622,1418,1802,-589,-1168,-751,-299,-61,135,-247
25044,5938,0,2023-03-01T18:52:05.104091,1714627,1419,1806,-589,-1177,-772,-298,-61,135,-247
25045,5939,0,2023-03-01T18:52:05.109653,1714633,1419,1806,-589,-1177,-772,-298,-61,135,-247
25046,5940,0,2023-03-01T18:52:05.115379,1714638,1419,1806,-589,-1177,-772,-298,-61,135,-247
25047,5941,0,2023-03-01T18:52:05.120254,1714643,1419,1806,-589,-1177,-772,-298,-61,135,-247
25048,5942,0,2023-03-01T18:52:05.126198,1714650,1419,1804,-588,-1171,-779,-311,-61,135,-247
25049,5943,0,2023-03-01T18:52:05.132111,1714656,1419,1804,-588,-1171,-779,-311,-61,135,-247
25050,5944,0,2023-03-01T18:52:05.137590,1714661,1419,1804,-588,-1171,-779,-311,-61,135,-247
25051,5945,0,2023-03-01T18:52:05.142554,1714666,1419,1804,-588,-1171,-779,-311,-61,135,-247
25052,5946,0,2023-03-01T18:52:05.147388,1714671,1417,1804,-588,-1178,-777,-307,-56,138,-242
25053,5947,0,2023-03-01T18:52:05.153892,1714677,1417,1804,-588,-1178,-777,-307,-56,138,-242
25054,5948,0,2023-03-01T18:52:05.159599,1714682,1417,1804,-588,-1178,-777,-307,-56,138,-242
25055,5949,0,2023-03-01T18:52:05.165625,1714689,1422,1805,-593,-1179,-782,-300,-56,138,-242
25056,5950,0,2023-03-01T18:52:05.172079,1714696,1422,1805,-593,-1179,-782,-300,-56,138,-242
25057,5951,0,2023-03-01T18:52:05.177496,1714701,1422,1805,-593,-1179,-782,-300,-56,138,-242
25058,5952,0,2023-03-01T18:52:05.182269,1714706,1422,1805,-593,-1179,-782,-300,-56,138,-242
25059,5953,0,2023-03-01T18:52:05.188078,1714711,1418,1803,-588,-1192,-788,-299,-56,138,-242
25060,5954,0,2023-03-01T18:52:05.193787,1714717,1418,1803,-588,-1192,-788,-299,-56,138,-242
25061,5955,0,2023-03-01T18:52:05.199453,1714722,1418,1803,-588,-1192,-788,-299,-56,138,-242
25062,5956,0,2023-03-01T18:52:05.204935,1714728,1417,1802,-589,-1189,-787,-294,-56,138,-242
25063,5957,0,2023-03-01T18:52:05.210053,1714734,1417,1802,-589,-1189,-787,-294,-56,138,-242
25064,5958,0,2023-03-01T18:52:05.215367,1714739,1417,1802,-589,-1189,-787,-294,-56,138,-242
25065,5959,0,2023-03-01T18:52:05.220685,1714744,1417,1802,-589,-1189,-787,-294,-56,138,-242
25066,5960,0,2023-03-01T18:52:05.226182,1714750,1421,1803,-600,-1190,-790,-290,-56,138,-242
25067,5961,0,2023-03-01T18:52:05.232162,1714755,1421,1803,-600,-1190,-790,-290,-56,138,-242
25068,5962,0,2023-03-01T18:52:05.237941,1714761,1421,1803,-600,-1190,-790,-290,-56,138,-242
25069,5963,0,2023-03-01T18:52:05.242739,1714766,1421,1803,-600,-1190,-790,-290,-56,138,-242
25070,5964,0,2023-03-01T18:52:05.248102,1714771,1416,1802,-594,-1193,-791,-293,-56,138,-242
25071,5965,0,2023-03-01T18:52:05.253752,1714777,1416,1802,-594,-1193,-791,-293,-56,138,-242
25072,5966,0,2023-03-01T18:52:05.259230,1714783,1416,1802,-594,-1193,-791,-293,-56,138,-242
25073,5967,0,2023-03-01T18:52:05.264420,1714788,1420,1808,-594,-1179,-795,-295,-54,138,-248
25074,5968,0,2023-03-01T18:52:05.269514,1714793,1420,1808,-594,-1179,-795,-295,-54,138,-248
25075,5969,0,2023-03-01T18:52:05.274224,1714797,1420,1808,-594,-1179,-795,-295,-54,138,-248
25076,5970,0,2023-03-01T18:52:05.279033,1714802,1420,1808,-594,-1179,-795,-295,-54,138,-248
25077,5971,0,2023-03-01T18:52:05.284424,1714807,1420,1807,-592,-1195,-796,-296,-54,138,-248
25078,5972,0,2023-03-01T18:52:05.290669,1714813,1420,1807,-592,-1195,-796,-296,-54,138,-248
25079,5973,0,2023-03-01T18:52:05.295770,1714820,1420,1807,-592,-1195,-796,-296,-54,138,-248
25080,5974,0,2023-03-01T18:52:05.300587,1714824,1420,1807,-592,-1195,-796,-296,-54,138,-248
25081,5975,0,2023-03-01T18:52:05.305352,1714829,1416,1799,-592,-1199,-800,-296,-54,138,-248
25082,5976,0,2023-03-01T18:52:05.311425,1714835,1416,1799,-592,-1199,-800,-296,-54,138,-248
25083,5977,0,2023-03-01T18:52:05.316640,1714840,1416,1799,-592,-1199,-800,-296,-54,138,-248
25084,5978,0,2023-03-01T18:52:05.321544,1714845,1416,1799,-592,-1199,-800,-296,-54,138,-248
25085,5979,0,2023-03-01T18:52:05.326364,1714849,1420,1808,-593,-1190,-797,-297,-54,138,-248
25086,5980,0,2023-03-01T18:52:05.331541,1714855,1420,1808,-593,-1190,-797,-297,-54,138,-248
25087,5981,0,2023-03-01T18:52:05.336482,1714860,1420,1808,-593,-1190,-797,-297,-54,138,-248
25088,5982,0,2023-03-01T18:52:05.341489,1714865,1420,1808,-593,-1190,-797,-297,-54,138,-248
25089,5983,0,2023-03-01T18:52:05.347348,1714871,1411,1805,-592,-1182,-786,-296,-54,138,-248
25090,5984,0,2023-03-01T18:52:05.352538,1714876,1411,1805,-592,-1182,-786,-296,-54,138,-248
25091,5985,0,2023-03-01T18:52:05.358072,1714881,1411,1805,-592,-1182,-786,-296,-54,138,-248
25092,5986,0,2023-03-01T18:52:05.362958,1714886,1411,1805,-592,-1182,-786,-296,-54,138,-248
25093,5987,0,2023-03-01T18:52:05.368462,1714892,1418,1806,-591,-1188,-790,-297,-54,138,-248
25094,5988,0,2023-03-01T18:52:05.374932,1714898,1418,1806,-591,-1188,-790,-297,-54,138,-248
25095,5989,0,2023-03-01T18:52:05.380290,1714904,1418,1806,-591,-1188,-790,-297,-54,138,-248
25096,5990,0,2023-03-01T18:52:05.386313,1714910,1420,1808,-592,-1186,-798,-300,-54,138,-248
25097,5991,0,2023-03-01T18:52:05.392217,1714916,1420,1808,-592,-1186,-798,-300,-54,138,-248
25098,5992,0,2023-03-01T18:52:05.397829,1714921,1420,1808,-592,-1186,-798,-300,-54,138,-248
25099,5993,0,2023-03-01T18:52:05.402734,1714926,1420,1808,-592,-1186,-798,-300,-54,138,-248
25100,5994,0,2023-03-01T18:52:05.408124,1714931,1419,1806,-595,-1193,-798,-291,-58,146,-246
25101,5995,0,2023-03-01T18:52:05.413973,1714937,1419,1806,-595,-1193,-798,-291,-58,146,-246
25102,5996,0,2023-03-01T18:52:05.419040,1714942,1419,1806,-595,-1193,-798,-291,-58,146,-246
25103,5997,0,2023-03-01T18:52:05.424846,1714948,1417,1807,-597,-1187,-789,-300,-58,146,-246
25104,5998,0,2023-03-01T18:52:05.430354,1714954,1417,1807,-597,-1187,-789,-300,-58,146,-246
25105,5999,0,2023-03-01T18:52:05.436269,1714959,1417,1807,-597,-1187,-789,-300,-58,146,-246
25106,6000,0,2023-03-01T18:52:05.441278,1714965,1417,1807,-597,-1187,-789,-300,-58,146,-246
25107,6001,0,2023-03-01T18:52:05.446072,1714969,1416,1806,-591,-1187,-790,-298,-58,146,-246
25108,6002,0,2023-03-01T18:52:05.451875,1714975,1416,1806,-591,-1187,-790,-298,-58,146,-246
25109,6003,0,2023-03-01T18:52:05.457897,1714981,1416,1806,-591,-1187,-790,-298,-58,146,-246
25110,6004,0,2023-03-01T18:52:05.462847,1714985,1416,1806,-591,-1187,-790,-298,-58,146,-246
25111,6005,0,2023-03-01T18:52:05.468251,1714992,1414,1805,-589,-1190,-790,-289,-58,146,-246
25112,6006,0,2023-03-01T18:52:05.473867,1714997,1414,1805,-589,-1190,-790,-289,-58,146,-246
25113,6007,0,2023-03-01T18:52:05.479396,1715003,1414,1805,-589,-1190,-790,-289,-58,146,-246
25114,6008,0,2023-03-01T18:52:05.484565,1715008,1420,1811,-595,-1184,-805,-299,-58,146,-246
25115,6009,0,2023-03-01T18:52:05.489769,1715013,1420,1811,-595,-1184,-805,-299,-58,146,-246
25116,6010,0,2023-03-01T18:52:05.495394,1715018,1420,1811,-595,-1184,-805,-299,-58,146,-246
25117,6011,0,2023-03-01T18:52:05.500850,1715024,1420,1811,-595,-1184,-805,-299,-58,146,-246
25118,6012,0,2023-03-01T18:52:05.505722,1715030,1420,1803,-591,-1177,-797,-298,-58,146,-246
25119,6013,0,2023-03-01T18:52:05.511457,1715035,1420,1803,-591,-1177,-797,-298,-58,146,-246
25120,6014,0,2023-03-01T18:52:05.519477,1715043,1420,1803,-591,-1177,-797,-298,-58,146,-246
25121,6015,0,2023-03-01T18:52:05.524470,1715048,1420,1807,-596,-1189,-788,-309,-50,140,-246
25122,6016,0,2023-03-01T18:52:05.530225,1715053,1420,1807,-596,-1189,-788,-309,-50,140,-250
25123,6017,0,2023-03-01T18:52:05.535989,1715059,1420,1807,-596,-1189,-788,-309,-50,140,-250
25124,6018,0,2023-03-01T18:52:05.541003,1715064,1420,1807,-596,-1189,-788,-309,-50,140,-250
25125,6019,0,2023-03-01T18:52:05.546075,1715069,1420,1808,-591,-1187,-784,-297,-50,140,-250
25126,6020,0,2023-03-01T18:52:05.551802,1715075,1420,1808,-591,-1187,-784,-297,-50,140,-250
25127,6021,0,2023-03-01T18:52:05.556836,1715080,1420,1808,-591,-1187,-784,-297,-50,140,-250
25128,6022,0,2023-03-01T18:52:05.562065,1715085,1420,1808,-591,-1187,-784,-297,-50,140,-250
25129,6023,0,2023-03-01T18:52:05.567812,1715091,1414,1805,-592,-1183,-780,-296,-50,140,-250
25130,6024,0,2023-03-01T18:52:05.573392,1715097,1414,1805,-592,-1183,-780,-296,-50,140,-250
25131,6025,0,2023-03-01T18:52:05.579290,1715103,1414,1805,-592,-1183,-780,-296,-50,140,-250
25132,6026,0,2023-03-01T18:52:05.584960,1715108,1416,1804,-597,-1172,-789,-307,-50,140,-250
25133,6027,0,2023-03-01T18:52:05.590169,1715113,1416,1804,-597,-1172,-789,-307,-50,140,-250
25134,6028,0,2023-03-01T18:52:05.596416,1715120,1416,1804,-597,-1172,-789,-307,-50,140,-250
25135,6029,0,2023-03-01T18:52:05.601225,1715125,1416,1804,-597,-1172,-789,-307,-50,140,-250
25136,6030,0,2023-03-01T18:52:05.607074,1715130,1415,1805,-598,-1174,-789,-306,-50,140,-250
25137,6031,0,2023-03-01T18:52:05.613127,1715136,1415,1805,-598,-1174,-789,-306,-50,140,-250
25138,6032,0,2023-03-01T18:52:05.618547,1715142,1415,1805,-598,-1174,-789,-306,-50,140,-250
25139,6033,0,2023-03-01T18:52:05.623291,1715146,1415,1805,-598,-1174,-789,-306,-50,140,-250
25140,6034,0,2023-03-01T18:52:05.629098,1715152,1416,1805,-593,-1180,-787,-300,-50,140,-250
25141,6035,0,2023-03-01T18:52:05.635143,1715159,1416,1805,-593,-1180,-787,-300,-50,140,-250
25142,6036,0,2023-03-01T18:52:05.640719,1715164,1416,1805,-593,-1180,-787,-300,-50,140,-250
25143,6037,0,2023-03-01T18:52:05.645572,1715169,1419,1808,-596,-1176,-788,-297,-50,140,-250
25144,6038,0,2023-03-01T18:52:05.650948,1715174,1419,1808,-596,-1176,-788,-297,-50,140,-250
25145,6039,0,2023-03-01T18:52:05.656052,1715180,1419,1808,-596,-1176,-788,-297,-50,140,-250
25146,6040,0,2023-03-01T18:52:05.660593,1715184,1419,1808,-596,-1176,-788,-297,-50,140,-250
25147,6041,0,2023-03-01T18:52:05.665507,1715189,1418,1805,-587,-1183,-784,-298,-53,143,-241
25148,6042,0,2023-03-01T18:52:05.672378,1715195,1418,1805,-587,-1183,-784,-298,-53,143,-241
25149,6043,0,2023-03-01T18:52:05.678170,1715202,1418,1805,-587,-1183,-784,-298,-53,143,-241
25150,6044,0,2023-03-01T18:52:05.683277,1715207,1418,1805,-587,-1183,-784,-298,-53,143,-241
25151,6045,0,2023-03-01T18:52:05.688270,1715212,1419,1806,-593,-1189,-784,-296,-53,143,-241
25152,6046,0,2023-03-01T18:52:05.693700,1715217,1419,1806,-593,-1189,-784,-296,-53,143,-241
25153,6047,0,2023-03-01T18:52:05.699199,1715222,1419,1806,-593,-1189,-784,-296,-53,143,-241
25154,6048,0,2023-03-01T18:52:05.705023,1715228,1418,1805,-594,-1192,-790,-299,-53,143,-241
25155,6049,0,2023-03-01T18:52:05.710342,1715233,1418,1805,-594,-1192,-790,-299,-53,143,-241
25156,6050,0,2023-03-01T18:52:05.715989,1715239,1418,1805,-594,-1192,-790,-299,-53,143,-241
25157,6051,0,2023-03-01T18:52:05.720859,1715244,1418,1805,-594,-1192,-790,-299,-53,143,-241
25158,6052,0,2023-03-01T18:52:05.725601,1715249,1414,1802,-594,-1193,-796,-303,-53,143,-241
25159,6053,0,2023-03-01T18:52:05.730974,1715255,1414,1802,-594,-1193,-796,-303,-53,143,-241
25160,6054,0,2023-03-01T18:52:05.736082,1715260,1414,1802,-594,-1193,-796,-303,-53,143,-241
25161,6055,0,2023-03-01T18:52:05.740692,1715264,1414,1802,-594,-1193,-796,-303,-53,143,-241
25162,6056,0,2023-03-01T18:52:05.745334,1715269,1417,1808,-596,-1198,-800,-294,-53,143,-241
25163,6057,0,2023-03-01T18:52:05.750733,1715274,1417,1808,-596,-1198,-800,-294,-53,143,-241
25164,6058,0,2023-03-01T18:52:05.756477,1715279,1417,1808,-596,-1198,-800,-294,-53,143,-241
25165,6059,0,2023-03-01T18:52:05.761119,1715284,1417,1808,-596,-1198,-800,-294,-53,143,-241
25166,6060,0,2023-03-01T18:52:05.766079,1715290,1417,1803,-594,-1184,-792,-292,-53,143,-241
25167,6061,0,2023-03-01T18:52:05.771519,1715295,1417,1803,-594,-1184,-792,-292,-53,143,-241
25168,6062,0,2023-03-01T18:52:05.777584,1715301,1417,1803,-594,-1184,-792,-292,-53,143,-241
25169,6063,0,2023-03-01T18:52:05.783224,1715306,1417,1803,-594,-1184,-792,-292,-53,143,-241
25170,6064,0,2023-03-01T18:52:05.787924,1715311,1416,1803,-587,-1199,-793,-298,-56,140,-240
25171,6065,0,2023-03-01T18:52:05.793375,1715316,1416,1803,-587,-1199,-793,-298,-56,140,-240
25172,6066,0,2023-03-01T18:52:05.799327,1715322,1416,1803,-587,-1199,-793,-298,-56,140,-240
25173,6067,0,2023-03-01T18:52:05.804822,1715329,1420,1804,-598,-1187,-799,-299,-56,140,-240
25174,6068,0,2023-03-01T18:52:05.810196,1715334,1420,1804,-598,-1187,-799,-299,-56,140,-240
25175,6069,0,2023-03-01T18:52:05.815772,1715339,1420,1804,-598,-1187,-799,-299,-56,140,-240
25176,6070,0,2023-03-01T18:52:05.820581,1715344,1420,1804,-598,-1187,-799,-299,-56,140,-240
25177,6071,0,2023-03-01T18:52:05.825439,1715349,1419,1803,-593,-1190,-791,-301,-56,140,-240
25178,6072,0,2023-03-01T18:52:05.831020,1715354,1419,1803,-593,-1190,-791,-301,-56,140,-240
25179,6073,0,2023-03-01T18:52:05.836758,1715360,1419,1803,-593,-1190,-791,-301,-56,140,-240
25180,6074,0,2023-03-01T18:52:05.841417,1715364,1419,1803,-593,-1190,-791,-301,-56,140,-240
25181,6075,0,2023-03-01T18:52:05.846570,1715369,1416,1803,-594,-1193,-797,-302,-56,140,-240
25182,6076,0,2023-03-01T18:52:05.851824,1715376,1416,1803,-594,-1193,-797,-302,-56,140,-240
25183,6077,0,2023-03-01T18:52:05.857177,1715381,1416,1803,-594,-1193,-797,-302,-56,140,-240
25184,6078,0,2023-03-01T18:52:05.862099,1715385,1416,1803,-594,-1193,-797,-302,-56,140,-240
25185,6079,0,2023-03-01T18:52:05.867315,1715391,1417,1805,-595,-1189,-799,-298,-56,140,-240
25186,6080,0,2023-03-01T18:52:05.872912,1715396,1417,1805,-595,-1189,-799,-298,-56,140,-240
25187,6081,0,2023-03-01T18:52:05.878052,1715401,1417,1805,-595,-1189,-799,-298,-56,140,-240
25188,6082,0,2023-03-01T18:52:05.883276,1715406,1417,1805,-595,-1189,-799,-298,-56,140,-240
25189,6083,0,2023-03-01T18:52:05.887984,1715411,1415,1803,-595,-1188,-796,-296,-56,140,-240
25190,6084,0,2023-03-01T18:52:05.894221,1715418,1415,1803,-595,-1188,-796,-296,-56,140,-240
25191,6085,0,2023-03-01T18:52:05.899593,1715423,1415,1803,-595,-1188,-796,-296,-56,140,-240
25192,6086,0,2023-03-01T18:52:05.905238,1715428,1418,1809,-596,-1192,-792,-298,-56,140,-240
25193,6087,0,2023-03-01T18:52:05.911169,1715434,1418,1809,-596,-1192,-792,-298,-56,140,-240
25194,6088,0,2023-03-01T18:52:05.917064,1715440,1418,1809,-596,-1192,-792,-298,-56,140,-240
25195,6089,0,2023-03-01T18:52:05.921735,1715445,1418,1809,-596,-1192,-792,-298,-56,140,-240
25196,6090,0,2023-03-01T18:52:05.927571,1715450,1416,1804,-593,-1187,-796,-293,-51,133,-241
25197,6091,0,2023-03-01T18:52:05.933237,1715457,1416,1804,-593,-1187,-796,-293,-51,133,-241
25198,6092,0,2023-03-01T18:52:05.939835,1715463,1416,1804,-593,-1187,-796,-293,-51,133,-241
25199,6093,0,2023-03-01T18:52:05.945105,1715468,1416,1803,-596,-1194,-793,-298,-51,133,-241
