,Unnamed: 0,imu,server_time,arduino_time,ax,ay,az,gx,gy,gz,mx,my,mz
25200,6094,0,2023-03-01T18:52:05.951354,1715475,1416,1803,-596,-1194,-793,-298,-51,133,-241
25201,6095,0,2023-03-01T18:52:05.957065,1715480,1416,1803,-596,-1194,-793,-298,-51,133,-241
25202,6096,0,2023-03-01T18:52:05.962258,1715485,1416,1803,-596,-1194,-793,-298,-51,133,-241
25203,6097,0,2023-03-01T18:52:05.968271,1715491,1418,1805,-601,-1186,-790,-303,-51,133,-241
25204,6098,0,2023-03-01T18:52:05.973233,1715496,1418,1805,-601,-1186,-790,-303,-51,133,-241
25205,6099,0,2023-03-01T18:52:05.978477,1715502,1418,1805,-601,-1186,-790,-303,-51,133,-241
25206,6100,0,2023-03-01T18:52:05.983732,1715507,1418,1805,-601,-1186,-790,-303,-51,133,-241
25207,6101,0,2023-03-01T18:52:05.990205,1715513,1417,1805,-593,-1183,-783,-304,-51,133,-241
25208,6102,0,2023-03-01T18:52:05.997540,1715520,1417,1805,-593,-1183,-783,-304,-51,133,-241
25209,6103,0,2023-03-01T18:52:06.002449,1715526,1417,1805,-593,-1183,-783,-304,-51,133,-241
25210,6104,0,2023-03-01T18:52:06.008113,1715531,1418,1803,-592,-1194,-793,-299,-51,133,-241
25211,6105,0,2023-03-01T18:52:06.013597,1715536,1418,1803,-592,-1194,-793,-299,-51,133,-241
25212,6106,0,2023-03-01T18:52:06.019614,1715543,1418,1803,-592,-1194,-793,-299,-51,133,-241
25213,6107,0,2023-03-01T18:52:06.027083,1715549,1416,1806,-598,-1196,-800,-297,-51,133,-241
25214,6108,0,2023-03-01T18:52:06.032009,1715555,1416,1806,-598,-1196,-800,-297,-51,133,-241
25215,6109,0,2023-03-01T18:52:06.037544,1715561,1416,1806,-598,-1196,-800,-297,-51,133,-241
25216,6110,0,2023-03-01T18:52:06.042297,1715566,1416,1806,-598,-1196,-800,-297,-51,133,-241
25217,6111,0,2023-03-01T18:52:06.047400,1715571,1414,1803,-599,-1190,-792,-302,-49,141,-247
25218,6112,0,2023-03-01T18:52:06.053184,1715576,1414,1803,-599,-1190,-792,-302,-49,141,-247
25219,6113,0,2023-03-01T18:52:06.059642,1715582,1414,1803,-599,-1190,-792,-302,-49,141,-247
25220,6114,0,2023-03-01T18:52:06.064295,1715588,1414,1803,-599,-1190,-792,-302,-49,141,-247
25221,6115,0,2023-03-01T18:52:06.069091,1715593,1416,1807,-593,-1194,-797,-293,-49,141,-247
25222,6116,0,2023-03-01T18:52:06.075234,1715599,1416,1807,-593,-1194,-797,-293,-49,141,-247
25223,6117,0,2023-03-01T18:52:06.079937,1715604,1416,1807,-593,-1194,-797,-293,-49,141,-247
25224,6118,0,2023-03-01T18:52:06.084684,1715608,1416,1807,-593,-1194,-797,-293,-49,141,-247
25225,6119,0,2023-03-01T18:52:06.089807,1715613,1414,1803,-590,-1193,-799,-295,-49,141,-247
25226,6120,0,2023-03-01T18:52:06.096336,1715619,1414,1803,-590,-1193,-799,-295,-49,141,-247
25227,6121,0,2023-03-01T18:52:06.101700,1715624,1414,1803,-590,-1193,-799,-295,-49,141,-247
25228,6122,0,2023-03-01T18:52:06.107681,1715631,1419,1807,-609,-1193,-808,-293,-49,141,-247
25229,6123,0,2023-03-01T18:52:06.114502,1715638,1419,1807,-609,-1193,-808,-293,-49,141,-247
25230,6124,0,2023-03-01T18:52:06.119989,1715643,1419,1807,-609,-1193,-808,-293,-49,141,-247
25231,6125,0,2023-03-01T18:52:06.125711,1715649,1418,1805,-600,-1192,-809,-293,-49,141,-247
25232,6126,0,2023-03-01T18:52:06.131162,1715654,1418,1805,-600,-1192,-809,-293,-49,141,-247
25233,6127,0,2023-03-01T18:52:06.136891,1715660,1418,1805,-600,-1192,-809,-293,-49,141,-247
25234,6128,0,2023-03-01T18:52:06.142030,1715665,1418,1805,-600,-1192,-809,-293,-49,141,-247
25235,6129,0,2023-03-01T18:52:06.146644,1715671,1417,1799,-594,-1185,-799,-299,-49,141,-247
25236,6130,0,2023-03-01T18:52:06.152063,1715676,1417,1799,-594,-1185,-799,-299,-49,141,-247
25237,6131,0,2023-03-01T18:52:06.157343,1715681,1417,1799,-594,-1185,-799,-299,-49,141,-247
25238,6132,0,2023-03-01T18:52:06.163066,1715686,1417,1799,-594,-1185,-799,-299,-49,141,-247
25239,6133,0,2023-03-01T18:52:06.169278,1715692,1419,1806,-598,-1198,-801,-295,-53,141,-233
25240,6134,0,2023-03-01T18:52:06.175933,1715699,1419,1806,-598,-1198,-801,-295,-53,141,-233
25241,6135,0,2023-03-01T18:52:06.180920,1715704,1419,1806,-598,-1198,-801,-295,-53,141,-233
25242,6136,0,2023-03-01T18:52:06.186830,1715709,1417,1806,-594,-1196,-802,-295,-53,141,-233
25243,6137,0,2023-03-01T18:52:06.192658,1715716,1417,1806,-594,-1196,-802,-295,-53,141,-233
25244,6138,0,2023-03-01T18:52:06.198185,1715722,1417,1806,-594,-1196,-802,-295,-53,141,-233
25245,6139,0,2023-03-01T18:52:06.202915,1715727,1417,1806,-594,-1196,-802,-295,-53,141,-233
25246,6140,0,2023-03-01T18:52:06.207957,1715731,1416,1805,-597,-1203,-804,-299,-53,141,-233
25247,6141,0,2023-03-01T18:52:06.213425,1715737,1416,1805,-597,-1203,-804,-299,-53,141,-233
25248,6142,0,2023-03-01T18:52:06.220626,1715743,1416,1805,-597,-1203,-804,-299,-53,141,-233
25249,6143,0,2023-03-01T18:52:06.226786,1715750,1420,1809,-600,-1198,-802,-295,-53,141,-233
25250,6144,0,2023-03-01T18:52:06.232202,1715756,1420,1809,-600,-1198,-802,-295,-53,141,-233
25251,6145,0,2023-03-01T18:52:06.237744,1715761,1420,1809,-600,-1198,-802,-295,-53,141,-233
25252,6146,0,2023-03-01T18:52:06.242688,1715766,1420,1809,-600,-1198,-802,-295,-53,141,-233
25253,6147,0,2023-03-01T18:52:06.249548,1715772,1415,1803,-601,-1198,-804,-299,-53,141,-233
25254,6148,0,2023-03-01T18:52:06.255469,1715779,1415,1803,-601,-1198,-804,-299,-53,141,-233
25255,6149,0,2023-03-01T18:52:06.260835,1715784,1415,1803,-601,-1198,-804,-299,-53,141,-233
25256,6150,0,2023-03-01T18:52:06.266252,1715789,1417,1805,-602,-1199,-798,-297,-53,141,-233
25257,6151,0,2023-03-01T18:52:06.271926,1715795,1417,1805,-602,-1199,-798,-297,-53,141,-233
25258,6152,0,2023-03-01T18:52:06.277415,1715801,1417,1805,-602,-1199,-798,-297,-53,141,-233
25259,6153,0,2023-03-01T18:52:06.282442,1715806,1417,1805,-602,-1199,-798,-297,-53,141,-233
25260,6154,0,2023-03-01T18:52:06.288783,1715812,1415,1808,-600,-1193,-807,-296,-53,141,-233
25261,6155,0,2023-03-01T18:52:06.294557,1715818,1415,1808,-600,-1193,-807,-296,-53,141,-233
25262,6156,0,2023-03-01T18:52:06.300150,1715823,1415,1808,-600,-1193,-807,-296,-53,141,-233
25263,6157,0,2023-03-01T18:52:06.304898,1715828,1415,1805,-590,-1194,-803,-294,-53,141,-233
25264,6158,0,2023-03-01T18:52:06.310450,1715834,1415,1805,-590,-1194,-803,-294,-50,142,-238
25265,6159,0,2023-03-01T18:52:06.315929,1715840,1415,1805,-590,-1194,-803,-294,-50,142,-238
25266,6160,0,2023-03-01T18:52:06.320873,1715845,1415,1805,-590,-1194,-803,-294,-50,142,-238
25267,6161,0,2023-03-01T18:52:06.325625,1715849,1418,1806,-599,-1188,-802,-306,-50,142,-238
25268,6162,0,2023-03-01T18:52:06.331642,1715855,1418,1806,-599,-1188,-802,-306,-50,142,-238
25269,6163,0,2023-03-01T18:52:06.337083,1715860,1418,1806,-599,-1188,-802,-306,-50,142,-238
25270,6164,0,2023-03-01T18:52:06.341958,1715865,1418,1806,-599,-1188,-802,-306,-50,142,-238
25271,6165,0,2023-03-01T18:52:06.347329,1715871,1418,1804,-600,-1186,-805,-297,-50,142,-238
25272,6166,0,2023-03-01T18:52:06.352626,1715876,1418,1804,-600,-1186,-805,-297,-50,142,-238
25273,6167,0,2023-03-01T18:52:06.358228,1715881,1418,1804,-600,-1186,-805,-297,-50,142,-238
25274,6168,0,2023-03-01T18:52:06.363043,1715887,1418,1804,-600,-1186,-805,-297,-50,142,-238
25275,6169,0,2023-03-01T18:52:06.368492,1715892,1414,1802,-596,-1197,-814,-298,-50,142,-238
25276,6170,0,2023-03-01T18:52:06.373740,1715897,1414,1802,-596,-1197,-814,-298,-50,142,-238
25277,6171,0,2023-03-01T18:52:06.379262,1715903,1414,1802,-596,-1197,-814,-298,-50,142,-238
25278,6172,0,2023-03-01T18:52:06.384431,1715908,1414,1802,-596,-1197,-814,-298,-50,142,-238
25279,6173,0,2023-03-01T18:52:06.390106,1715913,1418,1808,-600,-1197,-797,-299,-50,142,-238
25280,6174,0,2023-03-01T18:52:06.395997,1715919,1418,1808,-600,-1197,-797,-299,-50,142,-238
25281,6175,0,2023-03-01T18:52:06.400993,1715924,1418,1808,-600,-1197,-797,-299,-50,142,-238
25282,6176,0,2023-03-01T18:52:06.407187,1715931,1415,1803,-595,-1197,-802,-303,-50,142,-238
25283,6177,0,2023-03-01T18:52:06.412527,1715936,1415,1803,-595,-1197,-802,-303,-50,142,-238
25284,6178,0,2023-03-01T18:52:06.417640,1715941,1415,1803,-595,-1197,-802,-303,-50,142,-238
25285,6179,0,2023-03-01T18:52:06.422733,1715946,1415,1803,-595,-1197,-802,-303,-50,142,-238
25286,6180,0,2023-03-01T18:52:06.427786,1715951,1416,1808,-588,-1195,-797,-304,-52,130,-248
25287,6181,0,2023-03-01T18:52:06.433665,1715956,1416,1808,-588,-1195,-797,-304,-52,130,-248
25288,6182,0,2023-03-01T18:52:06.441333,1715964,1416,1808,-588,-1195,-797,-304,-52,130,-248
25289,6183,0,2023-03-01T18:52:06.446344,1715970,1416,1808,-588,-1195,-797,-304,-52,130,-248
25290,6184,0,2023-03-01T18:52:06.451305,1715975,1416,1808,-588,-1195,-797,-304,-52,130,-248
25291,6185,0,2023-03-01T18:52:06.457395,1715981,1416,1808,-588,-1195,-797,-304,-52,130,-248
25292,6186,0,2023-03-01T18:52:06.462451,1715986,1416,1808,-588,-1195,-797,-304,-52,130,-248
25293,6187,0,2023-03-01T18:52:06.468319,1715992,1417,1805,-596,-1176,-778,-304,-52,130,-248
25294,6188,0,2023-03-01T18:52:06.474079,1715997,1417,1805,-596,-1176,-778,-304,-52,130,-248
25295,6189,0,2023-03-01T18:52:06.480029,1716003,1417,1805,-596,-1176,-778,-304,-52,130,-248
25296,6190,0,2023-03-01T18:52:06.486187,1716009,1415,1801,-599,-1175,-777,-299,-52,130,-248
25297,6191,0,2023-03-01T18:52:06.492004,1716016,1415,1801,-599,-1175,-777,-299,-52,130,-248
25298,6192,0,2023-03-01T18:52:06.497862,1716021,1415,1801,-599,-1175,-777,-299,-52,130,-248
25299,6193,0,2023-03-01T18:52:06.502944,1716026,1415,1801,-599,-1175,-777,-299,-52,130,-248
25300,6194,0,2023-03-01T18:52:06.508081,1716031,1417,1807,-600,-1180,-790,-303,-52,130,-248
25301,6195,0,2023-03-01T18:52:06.513990,1716037,1417,1807,-600,-1180,-790,-303,-52,130,-248
25302,6196,0,2023-03-01T18:52:06.519625,1716043,1417,1807,-600,-1180,-790,-303,-52,130,-248
25303,6197,0,2023-03-01T18:52:06.524607,1716048,1417,1807,-600,-1180,-790,-303,-52,130,-248
25304,6198,0,2023-03-01T18:52:06.530092,1716054,1418,1804,-606,-1180,-786,-308,-52,130,-248
25305,6199,0,2023-03-01T18:52:06.536230,1716060,1418,1804,-606,-1180,-786,-308,-52,130,-248
25306,6200,0,2023-03-01T18:52:06.541569,1716065,1418,1804,-606,-1180,-786,-308,-52,130,-248
25307,6201,0,2023-03-01T18:52:06.547830,1716071,1418,1804,-606,-1180,-786,-308,-52,130,-248
25308,6202,0,2023-03-01T18:52:06.552933,1716076,1418,1804,-606,-1180,-786,-308,-52,130,-248
25309,6203,0,2023-03-01T18:52:06.558730,1716082,1418,1804,-606,-1180,-786,-308,-52,130,-248
25310,6204,0,2023-03-01T18:52:06.563520,1716087,1418,1804,-606,-1180,-786,-308,-52,130,-248
25311,6205,0,2023-03-01T18:52:06.568683,1716091,1417,1806,-597,-1190,-785,-304,-46,148,-240
25312,6206,0,2023-03-01T18:52:06.574725,1716099,1417,1806,-597,-1190,-785,-304,-46,148,-240
25313,6207,0,2023-03-01T18:52:06.579882,1716104,1417,1806,-597,-1190,-785,-304,-46,148,-240
25314,6208,0,2023-03-01T18:52:06.585222,1716109,1417,1806,-597,-1190,-785,-304,-46,148,-240
25315,6209,0,2023-03-01T18:52:06.590421,1716114,1416,1809,-603,-1199,-789,-299,-46,148,-240
25316,6210,0,2023-03-01T18:52:06.596900,1716120,1416,1809,-603,-1199,-789,-299,-46,148,-240
25317,6211,0,2023-03-01T18:52:06.601979,1716125,1416,1809,-603,-1199,-789,-299,-46,148,-240
25318,6212,0,2023-03-01T18:52:06.607627,1716131,1418,1807,-596,-1187,-783,-304,-46,148,-240
25319,6213,0,2023-03-01T18:52:06.613161,1716136,1418,1807,-596,-1187,-783,-304,-46,148,-240
25320,6214,0,2023-03-01T18:52:06.618014,1716142,1418,1807,-596,-1187,-783,-304,-46,148,-240
25321,6215,0,2023-03-01T18:52:06.622632,1716146,1418,1807,-596,-1187,-783,-304,-46,148,-240
25322,6216,0,2023-03-01T18:52:06.627507,1716151,1418,1803,-602,-1178,-785,-294,-46,148,-240
25323,6217,0,2023-03-01T18:52:06.632955,1716157,1418,1803,-602,-1178,-785,-294,-46,148,-240
25324,6218,0,2023-03-01T18:52:06.638197,1716162,1418,1803,-602,-1178,-785,-294,-46,148,-240
25325,6219,0,2023-03-01T18:52:06.643069,1716166,1418,1803,-602,-1178,-785,-294,-46,148,-240
25326,6220,0,2023-03-01T18:52:06.648007,1716171,1418,1810,-603,-1190,-785,-300,-46,148,-240
25327,6221,0,2023-03-01T18:52:06.653410,1716176,1418,1810,-603,-1190,-785,-300,-46,148,-240
25328,6222,0,2023-03-01T18:52:06.658694,1716182,1418,1810,-603,-1190,-785,-300,-46,148,-240
25329,6223,0,2023-03-01T18:52:06.663733,1716188,1418,1810,-603,-1190,-785,-300,-46,148,-240
25330,6224,0,2023-03-01T18:52:06.668506,1716192,1415,1805,-599,-1191,-785,-302,-46,148,-240
25331,6225,0,2023-03-01T18:52:06.674048,1716198,1415,1805,-599,-1191,-785,-302,-46,148,-240
25332,6226,0,2023-03-01T18:52:06.679616,1716203,1415,1805,-599,-1191,-785,-302,-46,148,-240
25333,6227,0,2023-03-01T18:52:06.684895,1716208,1415,1805,-599,-1191,-785,-302,-46,148,-240
25334,6228,0,2023-03-01T18:52:06.689821,1716213,1420,1804,-594,-1182,-782,-308,-53,139,-243
25335,6229,0,2023-03-01T18:52:06.695661,1716219,1420,1804,-594,-1182,-782,-308,-53,139,-243
25336,6230,0,2023-03-01T18:52:06.701024,1716225,1420,1804,-594,-1182,-782,-308,-53,139,-243
25337,6231,0,2023-03-01T18:52:06.706298,1716230,1418,1805,-596,-1178,-792,-302,-53,139,-243
25338,6232,0,2023-03-01T18:52:06.711344,1716235,1418,1805,-596,-1178,-792,-302,-53,139,-243
25339,6233,0,2023-03-01T18:52:06.716962,1716240,1418,1805,-596,-1178,-792,-302,-53,139,-243
25340,6234,0,2023-03-01T18:52:06.721479,1716245,1418,1805,-596,-1178,-792,-302,-53,139,-243
25341,6235,0,2023-03-01T18:52:06.727072,1716250,1414,1801,-595,-1184,-786,-308,-53,139,-243
25342,6236,0,2023-03-01T18:52:06.732465,1716256,1414,1801,-595,-1184,-786,-308,-53,139,-243
25343,6237,0,2023-03-01T18:52:06.737797,1716261,1414,1801,-595,-1184,-786,-308,-53,139,-243
25344,6238,0,2023-03-01T18:52:06.742723,1716267,1414,1801,-595,-1184,-786,-308,-53,139,-243
25345,6239,0,2023-03-01T18:52:06.748141,1716272,1419,1809,-601,-1182,-794,-305,-53,139,-243
25346,6240,0,2023-03-01T18:52:06.753127,1716277,1419,1809,-601,-1182,-794,-305,-53,139,-243
25347,6241,0,2023-03-01T18:52:06.758176,1716282,1419,1809,-601,-1182,-794,-305,-53,139,-243
25348,6242,0,2023-03-01T18:52:06.763102,1716286,1419,1809,-601,-1182,-794,-305,-53,139,-243
25349,6243,0,2023-03-01T18:52:06.768046,1716291,1418,1806,-603,-1190,-792,-298,-53,139,-243
25350,6244,0,2023-03-01T18:52:06.773530,1716297,1418,1806,-603,-1190,-792,-298,-53,139,-243
25351,6245,0,2023-03-01T18:52:06.779515,1716303,1418,1806,-603,-1190,-792,-298,-53,139,-243
25352,6246,0,2023-03-01T18:52:06.784413,1716308,1418,1806,-603,-1190,-792,-298,-53,139,-243
25353,6247,0,2023-03-01T18:52:06.789978,1716314,1415,1803,-597,-1191,-783,-296,-53,139,-243
25354,6248,0,2023-03-01T18:52:06.796241,1716320,1415,1803,-597,-1191,-783,-296,-53,139,-243
25355,6249,0,2023-03-01T18:52:06.801110,1716325,1415,1803,-597,-1191,-783,-296,-53,139,-243
25356,6250,0,2023-03-01T18:52:06.806265,1716330,1416,1807,-604,-1189,-784,-300,-53,139,-243
25357,6251,0,2023-03-01T18:52:06.812473,1716336,1416,1807,-604,-1189,-784,-300,-53,139,-243
25358,6252,0,2023-03-01T18:52:06.820139,1716343,1416,1807,-604,-1189,-784,-300,-53,139,-243
25359,6253,0,2023-03-01T18:52:06.825154,1716348,1416,1807,-604,-1189,-784,-300,-53,139,-243
25360,6254,0,2023-03-01T18:52:06.830014,1716354,1416,1804,-592,-1185,-781,-297,-52,140,-240
25361,6255,0,2023-03-01T18:52:06.836755,1716360,1416,1804,-592,-1185,-781,-297,-52,140,-240
25362,6256,0,2023-03-01T18:52:06.841510,1716365,1416,1804,-592,-1185,-781,-297,-52,140,-240
25363,6257,0,2023-03-01T18:52:06.846162,1716370,1417,1804,-599,-1178,-780,-298,-52,140,-240
25364,6258,0,2023-03-01T18:52:06.851686,1716375,1417,1804,-599,-1178,-780,-298,-52,140,-240
25365,6259,0,2023-03-01T18:52:06.857179,1716380,1417,1804,-599,-1178,-780,-298,-52,140,-240
25366,6260,0,2023-03-01T18:52:06.861932,1716385,1417,1804,-599,-1178,-780,-298,-52,140,-240
25367,6261,0,2023-03-01T18:52:06.868007,1716390,1418,1809,-596,-1165,-769,-307,-52,140,-240
25368,6262,0,2023-03-01T18:52:06.873783,1716398,1418,1809,-596,-1165,-769,-307,-52,140,-240
25369,6263,0,2023-03-01T18:52:06.879482,1716403,1418,1809,-596,-1165,-769,-307,-52,140,-240
25370,6264,0,2023-03-01T18:52:06.884165,1716408,1418,1809,-596,-1165,-769,-307,-52,140,-240
25371,6265,0,2023-03-01T18:52:06.888888,1716412,1413,1802,-601,-1169,-768,-296,-52,140,-240
25372,6266,0,2023-03-01T18:52:06.894690,1716418,1413,1802,-601,-1169,-768,-296,-52,140,-240
25373,6267,0,2023-03-01T18:52:06.900588,1716424,1413,1802,-601,-1169,-768,-296,-52,140,-240
25374,6268,0,2023-03-01T18:52:06.905707,1716429,1417,1803,-599,-1178,-769,-303,-52,140,-240
25375,6269,0,2023-03-01T18:52:06.910785,1716434,1417,1803,-599,-1178,-769,-303,-52,140,-240
25376,6270,0,2023-03-01T18:52:06.915484,1716439,1417,1803,-599,-1178,-769,-303,-52,140,-240
25377,6271,0,2023-03-01T18:52:06.920276,1716444,1417,1803,-599,-1178,-769,-303,-52,140,-240
25378,6272,0,2023-03-01T18:52:06.925709,1716449,1420,1805,-603,-1178,-775,-300,-52,140,-240
25379,6273,0,2023-03-01T18:52:06.931269,1716455,1420,1805,-603,-1178,-775,-300,-52,140,-240
25380,6274,0,2023-03-01T18:52:06.936444,1716460,1420,1805,-603,-1178,-775,-300,-52,140,-240
25381,6275,0,2023-03-01T18:52:06.940955,1716464,1420,1805,-603,-1178,-775,-300,-52,140,-240
25382,6276,0,2023-03-01T18:52:06.945867,1716469,1417,1801,-595,-1174,-765,-303,-52,140,-240
25383,6277,0,2023-03-01T18:52:06.951192,1716474,1417,1801,-595,-1174,-765,-303,-43,137,-247
25384,6278,0,2023-03-01T18:52:06.957233,1716481,1417,1801,-595,-1174,-765,-303,-43,137,-247
25385,6279,0,2023-03-01T18:52:06.962121,1716486,1417,1801,-595,-1174,-765,-303,-43,137,-247
25386,6280,0,2023-03-01T18:52:06.967083,1716491,1418,1807,-598,-1184,-764,-310,-43,137,-247
25387,6281,0,2023-03-01T18:52:06.972575,1716496,1418,1807,-598,-1184,-764,-310,-43,137,-247
25388,6282,0,2023-03-01T18:52:06.978752,1716501,1418,1807,-598,-1184,-764,-310,-43,137,-247
25389,6283,0,2023-03-01T18:52:06.983691,1716507,1418,1807,-598,-1184,-764,-310,-43,137,-247
25390,6284,0,2023-03-01T18:52:06.989426,1716513,1415,1806,-599,-1181,-771,-299,-43,137,-247
25391,6285,0,2023-03-01T18:52:06.995482,1716518,1415,1806,-599,-1181,-771,-299,-43,137,-247
25392,6286,0,2023-03-01T18:52:07.000153,1716524,1415,1806,-599,-1181,-771,-299,-43,137,-247
25393,6287,0,2023-03-01T18:52:07.005329,1716529,1415,1806,-599,-1181,-771,-299,-43,137,-247
25394,6288,0,2023-03-01T18:52:07.010350,1716534,1419,1803,-599,-1182,-770,-300,-43,137,-247
25395,6289,0,2023-03-01T18:52:07.016556,1716540,1419,1803,-599,-1182,-770,-300,-43,137,-247
25396,6290,0,2023-03-01T18:52:07.021403,1716545,1419,1803,-599,-1182,-770,-300,-43,137,-247
25397,6291,0,2023-03-01T18:52:07.026804,1716550,1418,1805,-608,-1183,-768,-297,-43,137,-247
25398,6292,0,2023-03-01T18:52:07.032062,1716555,1418,1805,-608,-1183,-768,-297,-43,137,-247
25399,6293,0,2023-03-01T18:52:07.037389,1716560,1418,1805,-608,-1183,-768,-297,-43,137,-247
25400,6294,0,2023-03-01T18:52:07.042749,1716567,1418,1805,-608,-1183,-768,-297,-43,137,-247
25401,6295,0,2023-03-01T18:52:07.048391,1716572,1414,1806,-598,-1181,-784,-296,-43,137,-247
25402,6296,0,2023-03-01T18:52:07.053817,1716578,1414,1806,-598,-1181,-784,-296,-43,137,-247
25403,6297,0,2023-03-01T18:52:07.059075,1716582,1414,1806,-598,-1181,-784,-296,-43,137,-247
25404,6298,0,2023-03-01T18:52:07.064162,1716587,1414,1806,-598,-1181,-784,-296,-43,137,-247
25405,6299,0,2023-03-01T18:52:07.069434,1716593,1416,1803,-600,-1185,-781,-295,-48,138,-240
25406,6300,0,2023-03-01T18:52:07.075144,1716598,1416,1803,-600,-1185,-781,-295,-48,138,-240
25407,6301,0,2023-03-01T18:52:07.079807,1716603,1416,1803,-600,-1185,-781,-295,-48,138,-240
25408,6302,0,2023-03-01T18:52:07.084538,1716609,1416,1803,-600,-1185,-781,-295,-48,138,-240
25409,6303,0,2023-03-01T18:52:07.090026,1716613,1419,1803,-597,-1178,-781,-306,-48,138,-240
25410,6304,0,2023-03-01T18:52:07.096850,1716620,1419,1803,-597,-1178,-781,-306,-48,138,-240
25411,6305,0,2023-03-01T18:52:07.102235,1716626,1419,1803,-597,-1178,-781,-306,-48,138,-240
25412,6306,0,2023-03-01T18:52:07.107576,1716631,1415,1807,-601,-1183,-780,-293,-48,138,-240
25413,6307,0,2023-03-01T18:52:07.113110,1716636,1415,1807,-601,-1183,-780,-293,-48,138,-240
25414,6308,0,2023-03-01T18:52:07.118423,1716642,1415,1807,-601,-1183,-780,-293,-48,138,-240
25415,6309,0,2023-03-01T18:52:07.122933,1716646,1415,1807,-601,-1183,-780,-293,-48,138,-240
25416,6310,0,2023-03-01T18:52:07.128462,1716652,1421,1805,-601,-1183,-779,-299,-48,138,-240
25417,6311,0,2023-03-01T18:52:07.134181,1716658,1421,1805,-601,-1183,-779,-299,-48,138,-240
25418,6312,0,2023-03-01T18:52:07.139405,1716663,1421,1805,-601,-1183,-779,-299,-48,138,-240
25419,6313,0,2023-03-01T18:52:07.144553,1716668,1421,1805,-601,-1183,-779,-299,-48,138,-240
25420,6314,0,2023-03-01T18:52:07.149294,1716673,1417,1804,-597,-1191,-788,-295,-48,138,-240
25421,6315,0,2023-03-01T18:52:07.155451,1716679,1417,1804,-597,-1191,-788,-295,-48,138,-240
25422,6316,0,2023-03-01T18:52:07.160504,1716683,1417,1804,-597,-1191,-788,-295,-48,138,-240
25423,6317,0,2023-03-01T18:52:07.166009,1716689,1419,1809,-601,-1177,-786,-301,-48,138,-240
25424,6318,0,2023-03-01T18:52:07.171699,1716695,1419,1809,-601,-1177,-786,-301,-48,138,-240
25425,6319,0,2023-03-01T18:52:07.176707,1716701,1419,1809,-601,-1177,-786,-301,-48,138,-240
25426,6320,0,2023-03-01T18:52:07.181548,1716705,1419,1809,-601,-1177,-786,-301,-48,138,-240
25427,6321,0,2023-03-01T18:52:07.186334,1716710,1416,1807,-604,-1186,-782,-305,-48,138,-240
25428,6322,0,2023-03-01T18:52:07.191873,1716715,1416,1807,-604,-1186,-782,-305,-48,138,-240
25429,6323,0,2023-03-01T18:52:07.197514,1716721,1416,1807,-604,-1186,-782,-305,-48,138,-240
25430,6324,0,2023-03-01T18:52:07.202321,1716725,1416,1807,-604,-1186,-782,-305,-48,138,-240
25431,6325,0,2023-03-01T18:52:07.208506,1716731,1420,1802,-594,-1177,-781,-301,-50,140,-236
25432,6326,0,2023-03-01T18:52:07.214201,1716738,1420,1802,-594,-1177,-781,-301,-50,140,-236
25433,6327,0,2023-03-01T18:52:07.219345,1716743,1420,1802,-594,-1177,-781,-301,-50,140,-236
25434,6328,0,2023-03-01T18:52:07.224532,1716748,1420,1802,-594,-1177,-781,-301,-50,140,-236
25435,6329,0,2023-03-01T18:52:07.229677,1716753,1418,1806,-600,-1180,-785,-292,-50,140,-236
25436,6330,0,2023-03-01T18:52:07.235210,1716759,1418,1806,-600,-1180,-785,-292,-50,140,-236
25437,6331,0,2023-03-01T18:52:07.240118,1716763,1418,1806,-600,-1180,-785,-292,-50,140,-236
25438,6332,0,2023-03-01T18:52:07.244829,1716768,1418,1806,-600,-1180,-785,-292,-50,140,-236
25439,6333,0,2023-03-01T18:52:07.250448,1716773,1414,1804,-598,-1178,-788,-291,-50,140,-236
25440,6334,0,2023-03-01T18:52:07.256947,1716780,1414,1804,-598,-1178,-788,-291,-50,140,-236
25441,6335,0,2023-03-01T18:52:07.261560,1716785,1414,1804,-598,-1178,-788,-291,-50,140,-236
25442,6336,0,2023-03-01T18:52:07.266520,1716790,1419,1808,-595,-1171,-779,-302,-50,140,-236
25443,6337,0,2023-03-01T18:52:07.272000,1716795,1419,1808,-595,-1171,-779,-302,-50,140,-236
25444,6338,0,2023-03-01T18:52:07.277469,1716801,1419,1808,-595,-1171,-779,-302,-50,140,-236
25445,6339,0,2023-03-01T18:52:07.281962,1716806,1419,1808,-595,-1171,-779,-302,-50,140,-236
25446,6340,0,2023-03-01T18:52:07.286652,1716810,1419,1808,-602,-1181,-780,-299,-50,140,-236
25447,6341,0,2023-03-01T18:52:07.292076,1716815,1419,1808,-602,-1181,-780,-299,-50,140,-236
25448,6342,0,2023-03-01T18:52:07.297558,1716822,1419,1808,-602,-1181,-780,-299,-50,140,-236
25449,6343,0,2023-03-01T18:52:07.303007,1716827,1419,1808,-602,-1181,-780,-299,-50,140,-236
25450,6344,0,2023-03-01T18:52:07.308600,1716832,1417,1801,-598,-1177,-778,-294,-50,140,-236
25451,6345,0,2023-03-01T18:52:07.314110,1716837,1417,1801,-598,-1177,-778,-294,-50,140,-236
25452,6346,0,2023-03-01T18:52:07.319479,1716843,1417,1801,-598,-1177,-778,-294,-50,140,-236
25453,6347,0,2023-03-01T18:52:07.324272,1716848,1417,1801,-598,-1177,-778,-294,-50,140,-236
25454,6348,0,2023-03-01T18:52:07.329058,1716852,1416,1806,-599,-1188,-775,-302,-42,130,-238
25455,6349,0,2023-03-01T18:52:07.334476,1716858,1416,1806,-599,-1188,-775,-302,-42,130,-238
25456,6350,0,2023-03-01T18:52:07.340180,1716864,1416,1806,-599,-1188,-775,-302,-42,130,-238
25457,6351,0,2023-03-01T18:52:07.345467,1716869,1416,1806,-599,-1188,-775,-302,-42,130,-238
25458,6352,0,2023-03-01T18:52:07.350307,1716874,1416,1806,-599,-1188,-775,-302,-42,130,-238
25459,6353,0,2023-03-01T18:52:07.356290,1716880,1416,1806,-599,-1188,-775,-302,-42,130,-238
25460,6354,0,2023-03-01T18:52:07.361270,1716885,1416,1806,-599,-1188,-775,-302,-42,130,-238
25461,6355,0,2023-03-01T18:52:07.366101,1716890,1416,1806,-599,-1188,-775,-302,-42,130,-238
25462,6356,0,2023-03-01T18:52:07.371412,1716894,1417,1803,-601,-1178,-783,-294,-42,130,-238
25463,6357,0,2023-03-01T18:52:07.377663,1716901,1417,1803,-601,-1178,-783,-294,-42,130,-238
25464,6358,0,2023-03-01T18:52:07.382209,1716905,1417,1803,-601,-1178,-783,-294,-42,130,-238
25465,6359,0,2023-03-01T18:52:07.387011,1716911,1419,1810,-609,-1163,-772,-305,-42,130,-238
25466,6360,0,2023-03-01T18:52:07.392270,1716916,1419,1810,-609,-1163,-772,-305,-42,130,-238
25467,6361,0,2023-03-01T18:52:07.396925,1716920,1419,1810,-609,-1163,-772,-305,-42,130,-238
25468,6362,0,2023-03-01T18:52:07.401742,1716925,1419,1810,-609,-1163,-772,-305,-42,130,-238
25469,6363,0,2023-03-01T18:52:07.407293,1716931,1413,1802,-607,-1163,-761,-299,-42,130,-238
25470,6364,0,2023-03-01T18:52:07.413075,1716936,1413,1802,-607,-1163,-761,-299,-42,130,-238
25471,6365,0,2023-03-01T18:52:07.418607,1716942,1413,1802,-607,-1163,-761,-299,-42,130,-238
25472,6366,0,2023-03-01T18:52:07.423446,1716946,1413,1802,-607,-1163,-761,-299,-42,130,-238
25473,6367,0,2023-03-01T18:52:07.428452,1716952,1417,1807,-601,-1173,-773,-290,-42,130,-238
25474,6368,0,2023-03-01T18:52:07.433990,1716958,1417,1807,-601,-1173,-773,-290,-42,130,-238
25475,6369,0,2023-03-01T18:52:07.439944,1716964,1417,1807,-601,-1173,-773,-290,-42,130,-238
25476,6370,0,2023-03-01T18:52:07.444488,1716968,1417,1807,-601,-1173,-773,-290,-42,130,-238
25477,6371,0,2023-03-01T18:52:07.448909,1716973,1418,1806,-607,-1181,-780,-292,-42,130,-238
25478,6372,0,2023-03-01T18:52:07.454073,1716977,1418,1806,-607,-1181,-780,-292,-42,130,-238
25479,6373,0,2023-03-01T18:52:07.459519,1716983,1418,1806,-607,-1181,-780,-292,-42,130,-238
25480,6374,0,2023-03-01T18:52:07.464631,1716988,1418,1806,-607,-1181,-780,-292,-42,130,-238
25481,6375,0,2023-03-01T18:52:07.470109,1716994,1416,1806,-596,-1174,-773,-298,-56,142,-246
25482,6376,0,2023-03-01T18:52:07.475564,1717000,1416,1806,-596,-1174,-773,-298,-56,142,-246
25483,6377,0,2023-03-01T18:52:07.480156,1717004,1416,1806,-596,-1174,-773,-298,-56,142,-246
25484,6378,0,2023-03-01T18:52:07.485433,1717009,1416,1806,-596,-1174,-773,-298,-56,142,-246
25485,6379,0,2023-03-01T18:52:07.491057,1717015,1418,1806,-596,-1189,-776,-300,-56,142,-246
25486,6380,0,2023-03-01T18:52:07.497504,1717021,1418,1806,-596,-1189,-776,-300,-56,142,-246
25487,6381,0,2023-03-01T18:52:07.502453,1717025,1418,1806,-596,-1189,-776,-300,-56,142,-246
25488,6382,0,2023-03-01T18:52:07.507627,1717030,1417,1805,-602,-1184,-778,-299,-56,142,-246
25489,6383,0,2023-03-01T18:52:07.513383,1717037,1417,1805,-602,-1184,-778,-299,-56,142,-246
25490,6384,0,2023-03-01T18:52:07.519273,1717043,1417,1805,-602,-1184,-778,-299,-56,142,-246
25491,6385,0,2023-03-01T18:52:07.524270,1717048,1417,1805,-602,-1184,-778,-299,-56,142,-246
25492,6386,0,2023-03-01T18:52:07.529174,1717052,1415,1799,-603,-1178,-781,-302,-56,142,-246
25493,6387,0,2023-03-01T18:52:07.535269,1717059,1415,1799,-603,-1178,-781,-302,-56,142,-246
25494,6388,0,2023-03-01T18:52:07.540500,1717064,1415,1799,-603,-1178,-781,-302,-56,142,-246
25495,6389,0,2023-03-01T18:52:07.545687,1717069,1415,1799,-603,-1178,-781,-302,-56,142,-246
25496,6390,0,2023-03-01T18:52:07.551564,1717074,1415,1806,-602,-1177,-770,-301,-56,142,-246
25497,6391,0,2023-03-01T18:52:07.558066,1717082,1415,1806,-602,-1177,-770,-301,-56,142,-246
25498,6392,0,2023-03-01T18:52:07.563062,1717087,1415,1806,-602,-1177,-770,-301,-56,142,-246
25499,6393,0,2023-03-01T18:52:07.568991,1717092,1416,1802,-600,-1181,-780,-292,-56,142,-246
25500,6394,0,2023-03-01T18:52:07.574860,1717098,1416,1802,-600,-1181,-780,-292,-56,142,-246
25501,6395,0,2023-03-01T18:52:07.580655,1717104,1416,1802,-600,-1181,-780,-292,-56,142,-246
25502,6396,0,2023-03-01T18:52:07.585399,1717109,1416,1802,-600,-1181,-780,-292,-56,142,-246
25503,6397,0,2023-03-01T18:52:07.590571,1717114,1417,1805,-601,-1184,-789,-294,-49,137,-247
25504,6398,0,2023-03-01T18:52:07.596613,1717121,1417,1805,-601,-1184,-789,-294,-49,137,-247
25505,6399,0,2023-03-01T18:52:07.601261,1717125,1417,1805,-601,-1184,-789,-294,-49,137,-247
25506,6400,0,2023-03-01T18:52:07.606269,1717130,1417,1805,-601,-1184,-789,-294,-49,137,-247
25507,6401,0,2023-03-01T18:52:07.611466,1717135,1416,1804,-604,-1173,-776,-305,-49,137,-247
25508,6402,0,2023-03-01T18:52:07.616225,1717140,1416,1804,-604,-1173,-776,-305,-49,137,-247
25509,6403,0,2023-03-01T18:52:07.620963,1717144,1416,1804,-604,-1173,-776,-305,-49,137,-247
25510,6404,0,2023-03-01T18:52:07.625901,1717149,1416,1804,-604,-1173,-776,-305,-49,137,-247
25511,6405,0,2023-03-01T18:52:07.631003,1717154,1417,1803,-602,-1172,-776,-299,-49,137,-247
25512,6406,0,2023-03-01T18:52:07.637316,1717160,1417,1803,-602,-1172,-776,-299,-49,137,-247
25513,6407,0,2023-03-01T18:52:07.642150,1717166,1417,1803,-602,-1172,-776,-299,-49,137,-247
25514,6408,0,2023-03-01T18:52:07.647072,1717171,1417,1804,-604,-1176,-783,-305,-49,137,-247
25515,6409,0,2023-03-01T18:52:07.652476,1717176,1417,1804,-604,-1176,-783,-305,-49,137,-247
25516,6410,0,2023-03-01T18:52:07.658506,1717182,1417,1804,-604,-1176,-783,-305,-49,137,-247
25517,6411,0,2023-03-01T18:52:07.663259,1717187,1417,1804,-604,-1176,-783,-305,-49,137,-247
25518,6412,0,2023-03-01T18:52:07.667842,1717191,1417,1803,-604,-1174,-778,-301,-49,137,-247
25519,6413,0,2023-03-01T18:52:07.673028,1717196,1417,1803,-604,-1174,-778,-301,-49,137,-247
25520,6414,0,2023-03-01T18:52:07.678591,1717202,1417,1803,-604,-1174,-778,-301,-49,137,-247
25521,6415,0,2023-03-01T18:52:07.683431,1717207,1417,1803,-604,-1174,-778,-301,-49,137,-247
25522,6416,0,2023-03-01T18:52:07.688589,1717212,1416,1805,-601,-1171,-771,-302,-49,137,-247
25523,6417,0,2023-03-01T18:52:07.693891,1717218,1416,1805,-601,-1171,-771,-302,-49,137,-247
25524,6418,0,2023-03-01T18:52:07.698869,1717223,1416,1805,-601,-1171,-771,-302,-49,137,-247
25525,6419,0,2023-03-01T18:52:07.703845,1717227,1416,1805,-601,-1171,-771,-302,-49,137,-247
25526,6420,0,2023-03-01T18:52:07.708597,1717232,1418,1806,-605,-1173,-776,-300,-53,145,-243
25527,6421,0,2023-03-01T18:52:07.713971,1717237,1418,1806,-605,-1173,-776,-300,-53,145,-243
25528,6422,0,2023-03-01T18:52:07.719435,1717243,1418,1806,-605,-1173,-776,-300,-53,145,-243
25529,6423,0,2023-03-01T18:52:07.724337,1717248,1418,1806,-605,-1173,-776,-300,-53,145,-243
25530,6424,0,2023-03-01T18:52:07.729312,1717253,1417,1803,-596,-1166,-769,-300,-53,145,-243
25531,6425,0,2023-03-01T18:52:07.735112,1717259,1417,1803,-596,-1166,-769,-300,-53,145,-243
25532,6426,0,2023-03-01T18:52:07.740214,1717264,1417,1803,-596,-1166,-769,-300,-53,145,-243
25533,6427,0,2023-03-01T18:52:07.745056,1717269,1417,1803,-596,-1166,-769,-300,-53,145,-243
25534,6428,0,2023-03-01T18:52:07.749879,1717273,1413,1803,-604,-1179,-776,-303,-53,145,-243
25535,6429,0,2023-03-01T18:52:07.757227,1717280,1413,1803,-604,-1179,-776,-303,-53,145,-243
25536,6430,0,2023-03-01T18:52:07.762164,1717285,1413,1803,-604,-1179,-776,-303,-53,145,-243
25537,6431,0,2023-03-01T18:52:07.767148,1717291,1415,1806,-603,-1183,-780,-301,-53,145,-243
25538,6432,0,2023-03-01T18:52:07.772629,1717296,1415,1806,-603,-1183,-780,-301,-53,145,-243
25539,6433,0,2023-03-01T18:52:07.777980,1717302,1415,1806,-603,-1183,-780,-301,-53,145,-243
25540,6434,0,2023-03-01T18:52:07.782798,1717306,1415,1806,-603,-1183,-780,-301,-53,145,-243
25541,6435,0,2023-03-01T18:52:07.788392,1717312,1414,1801,-598,-1177,-773,-300,-53,145,-243
25542,6436,0,2023-03-01T18:52:07.793971,1717317,1414,1801,-598,-1177,-773,-300,-53,145,-243
25543,6437,0,2023-03-01T18:52:07.799507,1717323,1414,1801,-598,-1177,-773,-300,-53,145,-243
25544,6438,0,2023-03-01T18:52:07.805030,1717328,1414,1801,-598,-1177,-773,-300,-53,145,-243
25545,6439,0,2023-03-01T18:52:07.809909,1717334,1416,1806,-606,-1186,-782,-295,-53,145,-243
25546,6440,0,2023-03-01T18:52:07.815979,1717340,1416,1806,-606,-1186,-782,-295,-53,145,-243
25547,6441,0,2023-03-01T18:52:07.820794,1717344,1416,1806,-606,-1186,-782,-295,-53,145,-243
25548,6442,0,2023-03-01T18:52:07.825986,1717349,1416,1806,-606,-1186,-782,-295,-53,145,-243
25549,6443,0,2023-03-01T18:52:07.830640,1717354,1417,1803,-607,-1191,-787,-297,-53,145,-243
25550,6444,0,2023-03-01T18:52:07.836326,1717360,1417,1803,-607,-1191,-787,-297,-53,145,-243
25551,6445,0,2023-03-01T18:52:07.841212,1717364,1417,1803,-607,-1191,-787,-297,-53,145,-243
25552,6446,0,2023-03-01T18:52:07.845827,1717369,1417,1803,-607,-1191,-787,-297,-53,145,-243
25553,6447,0,2023-03-01T18:52:07.850791,1717374,1415,1801,-602,-1175,-781,-304,-57,139,-247
25554,6448,0,2023-03-01T18:52:07.856589,1717380,1415,1801,-602,-1175,-781,-304,-57,139,-247
25555,6449,0,2023-03-01T18:52:07.861564,1717385,1415,1801,-602,-1175,-781,-304,-57,139,-247
25556,6450,0,2023-03-01T18:52:07.866365,1717390,1415,1801,-602,-1175,-781,-304,-57,139,-247
25557,6451,0,2023-03-01T18:52:07.871262,1717395,1419,1806,-606,-1184,-769,-307,-57,139,-247
25558,6452,0,2023-03-01T18:52:07.877523,1717401,1419,1806,-606,-1184,-769,-307,-57,139,-247
25559,6453,0,2023-03-01T18:52:07.882086,1717405,1419,1806,-606,-1184,-769,-307,-57,139,-247
25560,6454,0,2023-03-01T18:52:07.886951,1717410,1414,1802,-603,-1184,-789,-297,-57,139,-247
25561,6455,0,2023-03-01T18:52:07.892705,1717416,1414,1802,-603,-1184,-789,-297,-57,139,-247
25562,6456,0,2023-03-01T18:52:07.898796,1717423,1414,1802,-603,-1184,-789,-297,-57,139,-247
25563,6457,0,2023-03-01T18:52:07.905101,1717428,1414,1802,-603,-1184,-789,-297,-57,139,-247
25564,6458,0,2023-03-01T18:52:07.910051,1717434,1418,1805,-596,-1187,-787,-300,-57,139,-247
25565,6459,0,2023-03-01T18:52:07.915858,1717439,1418,1805,-596,-1187,-787,-300,-57,139,-247
25566,6460,0,2023-03-01T18:52:07.920505,1717444,1418,1805,-596,-1187,-787,-300,-57,139,-247
25567,6461,0,2023-03-01T18:52:07.925720,1717449,1418,1805,-596,-1187,-787,-300,-57,139,-247
25568,6462,0,2023-03-01T18:52:07.931236,1717454,1417,1805,-603,-1183,-783,-305,-57,139,-247
25569,6463,0,2023-03-01T18:52:07.937177,1717460,1417,1805,-603,-1183,-783,-305,-57,139,-247
25570,6464,0,2023-03-01T18:52:07.941899,1717466,1417,1805,-603,-1183,-783,-305,-57,139,-247
25571,6465,0,2023-03-01T18:52:07.947033,1717471,1415,1802,-604,-1174,-778,-304,-57,139,-247
25572,6466,0,2023-03-01T18:52:07.952565,1717476,1415,1802,-604,-1174,-778,-304,-57,139,-247
25573,6467,0,2023-03-01T18:52:07.958139,1717482,1415,1802,-604,-1174,-778,-304,-57,139,-247
25574,6468,0,2023-03-01T18:52:07.963023,1717486,1415,1802,-604,-1174,-778,-304,-57,139,-247
25575,6469,0,2023-03-01T18:52:07.967804,1717491,1417,1802,-602,-1179,-790,-302,-56,142,-240
25576,6470,0,2023-03-01T18:52:07.973075,1717496,1417,1802,-602,-1179,-790,-302,-56,142,-240
25577,6471,0,2023-03-01T18:52:07.978966,1717502,1417,1802,-602,-1179,-790,-302,-56,142,-240
25578,6472,0,2023-03-01T18:52:07.984141,1717508,1417,1802,-602,-1179,-790,-302,-56,142,-240
25579,6473,0,2023-03-01T18:52:07.989811,1717514,1417,1804,-601,-1196,-791,-307,-56,142,-240
25580,6474,0,2023-03-01T18:52:07.996180,1717520,1417,1804,-601,-1196,-791,-307,-56,142,-240
25581,6475,0,2023-03-01T18:52:08.001381,1717524,1417,1804,-601,-1196,-791,-307,-56,142,-240
25582,6476,0,2023-03-01T18:52:08.007175,1717530,1417,1804,-601,-1196,-791,-307,-56,142,-240
25583,6477,0,2023-03-01T18:52:08.012119,1717535,1416,1804,-605,-1197,-798,-291,-56,142,-240
25584,6478,0,2023-03-01T18:52:08.018701,1717541,1416,1804,-605,-1197,-798,-291,-56,142,-240
25585,6479,0,2023-03-01T18:52:08.023734,1717548,1416,1804,-605,-1197,-798,-291,-56,142,-240
25586,6480,0,2023-03-01T18:52:08.028348,1717552,1418,1806,-603,-1194,-795,-296,-56,142,-240
25587,6481,0,2023-03-01T18:52:08.033698,1717557,1418,1806,-603,-1194,-795,-296,-56,142,-240
25588,6482,0,2023-03-01T18:52:08.040047,1717563,1418,1806,-603,-1194,-795,-296,-56,142,-240
25589,6483,0,2023-03-01T18:52:08.045134,1717568,1418,1806,-603,-1194,-795,-296,-56,142,-240
25590,6484,0,2023-03-01T18:52:08.050003,1717573,1419,1803,-601,-1195,-794,-298,-56,142,-240
25591,6485,0,2023-03-01T18:52:08.055832,1717579,1419,1803,-601,-1195,-794,-298,-56,142,-240
25592,6486,0,2023-03-01T18:52:08.061008,1717584,1419,1803,-601,-1195,-794,-298,-56,142,-240
25593,6487,0,2023-03-01T18:52:08.065736,1717590,1419,1803,-601,-1195,-794,-298,-56,142,-240
25594,6488,0,2023-03-01T18:52:08.070699,1717595,1417,1806,-600,-1206,-792,-309,-56,142,-240
25595,6489,0,2023-03-01T18:52:08.076739,1717600,1417,1806,-600,-1206,-792,-309,-56,142,-240
25596,6490,0,2023-03-01T18:52:08.081997,1717605,1417,1806,-600,-1206,-792,-309,-56,142,-240
25597,6491,0,2023-03-01T18:52:08.087471,1717611,1414,1802,-607,-1191,-801,-304,-56,142,-240
25598,6492,0,2023-03-01T18:52:08.092583,1717616,1414,1802,-607,-1191,-801,-304,-56,142,-240
25599,6493,0,2023-03-01T18:52:08.098075,1717621,1414,1802,-607,-1191,-801,-304,-56,142,-240
25600,6494,0,2023-03-01T18:52:08.102847,1717626,1414,1802,-607,-1191,-801,-304,-56,142,-240
25601,6495,0,2023-03-01T18:52:08.107651,1717632,1415,1803,-599,-1183,-792,-300,-48,144,-244
25602,6496,0,2023-03-01T18:52:08.112285,1717636,1415,1803,-599,-1183,-792,-300,-48,144,-244
25603,6497,0,2023-03-01T18:52:08.117882,1717641,1415,1803,-599,-1183,-792,-300,-48,144,-244
25604,6498,0,2023-03-01T18:52:08.123174,1717647,1415,1803,-599,-1183,-792,-300,-48,144,-244
25605,6499,0,2023-03-01T18:52:08.128832,1717652,1417,1805,-609,-1191,-790,-304,-48,144,-244
25606,6500,0,2023-03-01T18:52:08.134104,1717658,1417,1805,-609,-1191,-790,-304,-48,144,-244
25607,6501,0,2023-03-01T18:52:08.139461,1717663,1417,1805,-609,-1191,-790,-304,-48,144,-244
25608,6502,0,2023-03-01T18:52:08.144404,1717667,1417,1805,-609,-1191,-790,-304,-48,144,-244
25609,6503,0,2023-03-01T18:52:08.149741,1717673,1412,1804,-602,-1190,-786,-296,-48,144,-244
25610,6504,0,2023-03-01T18:52:08.156310,1717680,1412,1804,-602,-1190,-786,-296,-48,144,-244
25611,6505,0,2023-03-01T18:52:08.161657,1717685,1412,1804,-602,-1190,-786,-296,-48,144,-244
25612,6506,0,2023-03-01T18:52:08.166420,1717690,1412,1804,-602,-1190,-786,-296,-48,144,-244
25613,6507,0,2023-03-01T18:52:08.171385,1717695,1415,1805,-609,-1198,-789,-297,-48,144,-244
25614,6508,0,2023-03-01T18:52:08.177257,1717701,1415,1805,-609,-1198,-789,-297,-48,144,-244
25615,6509,0,2023-03-01T18:52:08.181833,1717705,1415,1805,-609,-1198,-789,-297,-48,144,-244
25616,6510,0,2023-03-01T18:52:08.187322,1717710,1419,1806,-605,-1198,-800,-291,-48,144,-244
25617,6511,0,2023-03-01T18:52:08.192706,1717716,1419,1806,-605,-1198,-800,-291,-48,144,-244
25618,6512,0,2023-03-01T18:52:08.197843,1717722,1419,1806,-605,-1198,-800,-291,-48,144,-244
25619,6513,0,2023-03-01T18:52:08.202510,1717726,1419,1806,-605,-1198,-800,-291,-48,144,-244
25620,6514,0,2023-03-01T18:52:08.207467,1717731,1419,1806,-605,-1198,-800,-291,-48,144,-244
25621,6515,0,2023-03-01T18:52:08.212410,1717736,1416,1800,-603,-1195,-798,-299,-48,144,-244
25622,6516,0,2023-03-01T18:52:08.218595,1717742,1416,1800,-603,-1195,-798,-299,-48,144,-244
25623,6517,0,2023-03-01T18:52:08.223837,1717747,1416,1800,-603,-1195,-798,-299,-48,144,-244
25624,6518,0,2023-03-01T18:52:08.228386,1717752,1419,1806,-607,-1194,-794,-297,-44,136,-238
25625,6519,0,2023-03-01T18:52:08.233843,1717757,1419,1806,-607,-1194,-794,-297,-44,136,-238
25626,6520,0,2023-03-01T18:52:08.239777,1717764,1419,1806,-607,-1194,-794,-297,-44,136,-238
25627,6521,0,2023-03-01T18:52:08.244635,1717768,1419,1806,-607,-1194,-794,-297,-44,136,-238
25628,6522,0,2023-03-01T18:52:08.249352,1717773,1419,1805,-600,-1190,-786,-297,-44,136,-238
25629,6523,0,2023-03-01T18:52:08.254794,1717778,1419,1805,-600,-1190,-786,-297,-44,136,-238
25630,6524,0,2023-03-01T18:52:08.260229,1717784,1419,1805,-600,-1190,-786,-297,-44,136,-238
25631,6525,0,2023-03-01T18:52:08.265053,1717788,1419,1805,-600,-1190,-786,-297,-44,136,-238
25632,6526,0,2023-03-01T18:52:08.271005,1717794,1417,1806,-603,-1191,-779,-297,-44,136,-238
25633,6527,0,2023-03-01T18:52:08.277084,1717800,1417,1806,-603,-1191,-779,-297,-44,136,-238
25634,6528,0,2023-03-01T18:52:08.281895,1717806,1417,1806,-603,-1191,-779,-297,-44,136,-238
25635,6529,0,2023-03-01T18:52:08.287082,1717811,1417,1806,-603,-1191,-779,-297,-44,136,-238
25636,6530,0,2023-03-01T18:52:08.291900,1717816,1421,1806,-604,-1177,-765,-298,-44,136,-238
25637,6531,0,2023-03-01T18:52:08.297250,1717821,1421,1806,-604,-1177,-765,-298,-44,136,-238
25638,6532,0,2023-03-01T18:52:08.302117,1717825,1421,1806,-604,-1177,-765,-298,-44,136,-238
25639,6533,0,2023-03-01T18:52:08.307905,1717831,1412,1801,-605,-1183,-775,-293,-44,136,-238
25640,6534,0,2023-03-01T18:52:08.313275,1717836,1412,1801,-605,-1183,-775,-293,-44,136,-238
25641,6535,0,2023-03-01T18:52:08.318608,1717842,1412,1801,-605,-1183,-775,-293,-44,136,-238
25642,6536,0,2023-03-01T18:52:08.323967,1717848,1412,1801,-605,-1183,-775,-293,-44,136,-238
25643,6537,0,2023-03-01T18:52:08.329323,1717853,1421,1807,-604,-1179,-766,-309,-44,136,-238
25644,6538,0,2023-03-01T18:52:08.335401,1717859,1421,1807,-604,-1179,-766,-309,-44,136,-238
25645,6539,0,2023-03-01T18:52:08.340210,1717864,1421,1807,-604,-1179,-766,-309,-44,136,-238
25646,6540,0,2023-03-01T18:52:08.345350,1717869,1421,1807,-604,-1179,-766,-309,-44,136,-238
25647,6541,0,2023-03-01T18:52:08.350844,1717874,1417,1805,-606,-1177,-771,-298,-44,136,-238
25648,6542,0,2023-03-01T18:52:08.356636,1717880,1417,1805,-606,-1177,-771,-298,-44,136,-238
25649,6543,0,2023-03-01T18:52:08.361671,1717885,1417,1805,-606,-1177,-771,-298,-44,136,-238
25650,6544,0,2023-03-01T18:52:08.366297,1717890,1417,1805,-606,-1177,-771,-298,-44,136,-238
25651,6545,0,2023-03-01T18:52:08.371105,1717895,1415,1803,-596,-1177,-765,-302,-47,135,-237
25652,6546,0,2023-03-01T18:52:08.376991,1717901,1415,1803,-596,-1177,-765,-302,-47,135,-237
25653,6547,0,2023-03-01T18:52:08.381567,1717905,1415,1803,-596,-1177,-765,-302,-47,135,-237
25654,6548,0,2023-03-01T18:52:08.386328,1717910,1415,1803,-596,-1177,-765,-302,-47,135,-237
25655,6549,0,2023-03-01T18:52:08.391832,1717915,1416,1808,-611,-1181,-770,-307,-47,135,-237
25656,6550,0,2023-03-01T18:52:08.397372,1717921,1416,1808,-611,-1181,-770,-307,-47,135,-237
25657,6551,0,2023-03-01T18:52:08.402435,1717926,1416,1808,-611,-1181,-770,-307,-47,135,-237
25658,6552,0,2023-03-01T18:52:08.408179,1717932,1413,1802,-601,-1185,-760,-295,-47,135,-237
25659,6553,0,2023-03-01T18:52:08.413611,1717938,1413,1802,-601,-1185,-760,-295,-47,135,-237
25660,6554,0,2023-03-01T18:52:08.419203,1717943,1413,1802,-601,-1185,-760,-295,-47,135,-237
25661,6555,0,2023-03-01T18:52:08.423939,1717948,1413,1802,-601,-1185,-760,-295,-47,135,-237
25662,6556,0,2023-03-01T18:52:08.428980,1717952,1418,1804,-602,-1178,-764,-298,-47,135,-237
25663,6557,0,2023-03-01T18:52:08.434584,1717958,1418,1804,-602,-1178,-764,-298,-47,135,-237
25664,6558,0,2023-03-01T18:52:08.439995,1717963,1418,1804,-602,-1178,-764,-298,-47,135,-237
25665,6559,0,2023-03-01T18:52:08.444425,1717968,1418,1804,-602,-1178,-764,-298,-47,135,-237
25666,6560,0,2023-03-01T18:52:08.448986,1717972,1419,1809,-609,-1184,-763,-304,-47,135,-237
25667,6561,0,2023-03-01T18:52:08.454314,1717978,1419,1809,-609,-1184,-763,-304,-47,135,-237
25668,6562,0,2023-03-01T18:52:08.460286,1717983,1419,1809,-609,-1184,-763,-304,-47,135,-237
25669,6563,0,2023-03-01T18:52:08.464798,1717989,1419,1809,-609,-1184,-763,-304,-47,135,-237
25670,6564,0,2023-03-01T18:52:08.470460,1717994,1411,1796,-598,-1182,-758,-299,-47,135,-237
25671,6565,0,2023-03-01T18:52:08.476557,1718000,1411,1796,-598,-1182,-758,-299,-47,135,-237
25672,6566,0,2023-03-01T18:52:08.481475,1718005,1411,1796,-598,-1182,-758,-299,-47,135,-237
25673,6567,0,2023-03-01T18:52:08.486779,1718010,1411,1796,-598,-1182,-758,-299,-47,135,-237
25674,6568,0,2023-03-01T18:52:08.491774,1718016,1420,1812,-604,-1208,-740,-329,-47,143,-233
25675,6569,0,2023-03-01T18:52:08.497803,1718022,1420,1812,-604,-1208,-740,-329,-47,143,-233
25676,6570,0,2023-03-01T18:52:08.502357,1718026,1420,1812,-604,-1208,-740,-329,-47,143,-233
25677,6571,0,2023-03-01T18:52:08.507800,1718032,1412,1796,-605,-1204,-753,-297,-47,143,-233
25678,6572,0,2023-03-01T18:52:08.513241,1718037,1412,1796,-605,-1204,-753,-297,-47,143,-233
25679,6573,0,2023-03-01T18:52:08.518776,1718042,1412,1796,-605,-1204,-753,-297,-47,143,-233
25680,6574,0,2023-03-01T18:52:08.524494,1718047,1412,1796,-605,-1204,-753,-297,-47,143,-233
25681,6575,0,2023-03-01T18:52:08.529887,1718053,1417,1812,-603,-1212,-732,-319,-47,143,-233
25682,6576,0,2023-03-01T18:52:08.536111,1718060,1417,1812,-603,-1212,-732,-319,-47,143,-233
25683,6577,0,2023-03-01T18:52:08.541278,1718065,1417,1812,-603,-1212,-732,-319,-47,143,-233
25684,6578,0,2023-03-01T18:52:08.546584,1718070,1417,1812,-603,-1212,-732,-319,-47,143,-233
25685,6579,0,2023-03-01T18:52:08.551459,1718075,1421,1815,-615,-1219,-744,-302,-47,143,-233
25686,6580,0,2023-03-01T18:52:08.557775,1718081,1421,1815,-615,-1219,-744,-302,-47,143,-233
25687,6581,0,2023-03-01T18:52:08.562864,1718086,1421,1815,-615,-1219,-744,-302,-47,143,-233
25688,6582,0,2023-03-01T18:52:08.568572,1718092,1406,1792,-592,-1217,-723,-304,-47,143,-233
25689,6583,0,2023-03-01T18:52:08.574439,1718097,1406,1792,-592,-1217,-723,-304,-47,143,-233
25690,6584,0,2023-03-01T18:52:08.580136,1718104,1406,1792,-592,-1217,-723,-304,-47,143,-233
25691,6585,0,2023-03-01T18:52:08.585248,1718109,1406,1792,-592,-1217,-723,-304,-47,143,-233
25692,6586,0,2023-03-01T18:52:08.590341,1718114,1421,1813,-604,-1220,-744,-319,-47,143,-233
25693,6587,0,2023-03-01T18:52:08.597621,1718120,1421,1813,-604,-1220,-744,-319,-47,143,-233
25694,6588,0,2023-03-01T18:52:08.602907,1718126,1421,1813,-604,-1220,-744,-319,-47,143,-233
25695,6589,0,2023-03-01T18:52:08.609615,1718133,1424,1814,-606,-1227,-743,-319,-51,133,-243
25696,6590,0,2023-03-01T18:52:08.615654,1718139,1424,1814,-606,-1227,-743,-319,-51,133,-243
25697,6591,0,2023-03-01T18:52:08.620266,1718144,1424,1814,-606,-1227,-743,-319,-51,133,-243
25698,6592,0,2023-03-01T18:52:08.624950,1718149,1424,1814,-606,-1227,-743,-319,-51,133,-243
25699,6593,0,2023-03-01T18:52:08.629454,1718153,1409,1795,-589,-1226,-748,-303,-51,133,-243
25700,6594,0,2023-03-01T18:52:08.635763,1718159,1409,1795,-589,-1226,-748,-303,-51,133,-243
25701,6595,0,2023-03-01T18:52:08.641364,1718165,1409,1795,-589,-1226,-748,-303,-51,133,-243
25702,6596,0,2023-03-01T18:52:08.645816,1718169,1409,1795,-589,-1226,-748,-303,-51,133,-243
25703,6597,0,2023-03-01T18:52:08.650556,1718174,1420,1810,-610,-1201,-749,-306,-51,133,-243
25704,6598,0,2023-03-01T18:52:08.656096,1718179,1420,1810,-610,-1201,-749,-306,-51,133,-243
25705,6599,0,2023-03-01T18:52:08.661034,1718184,1420,1810,-610,-1201,-749,-306,-51,133,-243
25706,6600,0,2023-03-01T18:52:08.666098,1718190,1420,1810,-610,-1201,-749,-306,-51,133,-243
25707,6601,0,2023-03-01T18:52:08.671010,1718195,1422,1815,-598,-1217,-721,-311,-51,133,-243
25708,6602,0,2023-03-01T18:52:08.677872,1718201,1422,1815,-598,-1217,-721,-311,-51,133,-243
25709,6603,0,2023-03-01T18:52:08.683059,1718207,1422,1815,-598,-1217,-721,-311,-51,133,-243
25710,6604,0,2023-03-01T18:52:08.688019,1718211,1409,1792,-607,-1205,-746,-297,-51,133,-243
25711,6605,0,2023-03-01T18:52:08.693228,1718217,1409,1792,-607,-1205,-746,-297,-51,133,-243
25712,6606,0,2023-03-01T18:52:08.698253,1718222,1409,1792,-607,-1205,-746,-297,-51,133,-243
25713,6607,0,2023-03-01T18:52:08.702842,1718226,1409,1792,-607,-1205,-746,-297,-51,133,-243
25714,6608,0,2023-03-01T18:52:08.707330,1718231,1409,1792,-607,-1205,-746,-297,-51,133,-243
25715,6609,0,2023-03-01T18:52:08.712313,1718236,1417,1810,-595,-1208,-729,-326,-51,133,-243
25716,6610,0,2023-03-01T18:52:08.718718,1718242,1417,1810,-595,-1208,-729,-326,-51,133,-243
25717,6611,0,2023-03-01T18:52:08.723428,1718247,1417,1810,-595,-1208,-729,-326,-51,133,-243
25718,6612,0,2023-03-01T18:52:08.728093,1718252,1417,1810,-595,-1208,-729,-326,-51,133,-243
25719,6613,0,2023-03-01T18:52:08.732964,1718256,1417,1810,-595,-1208,-729,-326,-51,133,-243
25720,6614,0,2023-03-01T18:52:08.739133,1718262,1417,1810,-595,-1208,-729,-326,-51,133,-243
25721,6615,0,2023-03-01T18:52:08.743846,1718267,1417,1810,-595,-1208,-729,-326,-51,133,-243
25722,6616,0,2023-03-01T18:52:08.749527,1718273,1413,1801,-591,-1235,-716,-306,-49,135,-245
25723,6617,0,2023-03-01T18:52:08.755897,1718280,1413,1801,-591,-1235,-716,-306,-49,135,-245
25724,6618,0,2023-03-01T18:52:08.761030,1718285,1413,1801,-591,-1235,-716,-306,-49,135,-245
25725,6619,0,2023-03-01T18:52:08.765598,1718289,1413,1801,-591,-1235,-716,-306,-49,135,-245
25726,6620,0,2023-03-01T18:52:08.771396,1718295,1419,1802,-613,-1247,-742,-313,-49,135,-245
25727,6621,0,2023-03-01T18:52:08.777441,1718301,1419,1802,-613,-1247,-742,-313,-49,135,-245
25728,6622,0,2023-03-01T18:52:08.782325,1718305,1419,1802,-613,-1247,-742,-313,-49,135,-245
25729,6623,0,2023-03-01T18:52:08.787836,1718311,1419,1802,-613,-1247,-742,-313,-49,135,-245
25730,6624,0,2023-03-01T18:52:08.792697,1718317,1416,1817,-594,-1244,-725,-321,-49,135,-245
25731,6625,0,2023-03-01T18:52:08.798628,1718323,1416,1817,-594,-1244,-725,-321,-49,135,-245
25732,6626,0,2023-03-01T18:52:08.803543,1718327,1416,1817,-594,-1244,-725,-321,-49,135,-245
25733,6627,0,2023-03-01T18:52:08.808322,1718332,1413,1789,-614,-1265,-744,-306,-49,135,-245
25734,6628,0,2023-03-01T18:52:08.813950,1718337,1413,1789,-614,-1265,-744,-306,-49,135,-245
25735,6629,0,2023-03-01T18:52:08.819832,1718343,1413,1789,-614,-1265,-744,-306,-49,135,-245
25736,6630,0,2023-03-01T18:52:08.824820,1718348,1413,1789,-614,-1265,-744,-306,-49,135,-245
25737,6631,0,2023-03-01T18:52:08.829450,1718353,1418,1821,-580,-1275,-686,-349,-49,135,-245
25738,6632,0,2023-03-01T18:52:08.834908,1718359,1418,1821,-580,-1275,-686,-349,-49,135,-245
25739,6633,0,2023-03-01T18:52:08.840048,1718364,1418,1821,-580,-1275,-686,-349,-49,135,-245
25740,6634,0,2023-03-01T18:52:08.844853,1718369,1418,1821,-580,-1275,-686,-349,-49,135,-245
25741,6635,0,2023-03-01T18:52:08.849769,1718373,1413,1802,-617,-1208,-784,-288,-49,135,-245
25742,6636,0,2023-03-01T18:52:08.855831,1718379,1413,1802,-617,-1208,-784,-288,-49,135,-245
25743,6637,0,2023-03-01T18:52:08.861000,1718384,1413,1802,-617,-1208,-784,-288,-49,135,-245
25744,6638,0,2023-03-01T18:52:08.865811,1718389,1413,1802,-617,-1208,-784,-288,-49,135,-245
25745,6639,0,2023-03-01T18:52:08.871450,1718395,1419,1815,-588,-1240,-700,-341,-48,134,-246
25746,6640,0,2023-03-01T18:52:08.877664,1718402,1419,1815,-588,-1240,-700,-341,-48,134,-246
25747,6641,0,2023-03-01T18:52:08.882586,1718407,1419,1815,-588,-1240,-700,-341,-48,134,-246
25748,6642,0,2023-03-01T18:52:08.887975,1718412,1419,1815,-588,-1240,-700,-341,-48,134,-246
25749,6643,0,2023-03-01T18:52:08.892849,1718416,1402,1782,-601,-1241,-733,-297,-48,134,-246
25750,6644,0,2023-03-01T18:52:08.898798,1718422,1402,1782,-601,-1241,-733,-297,-48,134,-246
25751,6645,0,2023-03-01T18:52:08.903817,1718427,1402,1782,-601,-1241,-733,-297,-48,134,-246
25752,6646,0,2023-03-01T18:52:08.908738,1718432,1427,1823,-597,-1254,-680,-336,-48,134,-246
25753,6647,0,2023-03-01T18:52:08.914623,1718438,1427,1823,-597,-1254,-680,-336,-48,134,-246
25754,6648,0,2023-03-01T18:52:08.920086,1718444,1427,1823,-597,-1254,-680,-336,-48,134,-246
25755,6649,0,2023-03-01T18:52:08.925102,1718449,1427,1823,-597,-1254,-680,-336,-48,134,-246
25756,6650,0,2023-03-01T18:52:08.930516,1718454,1402,1780,-592,-1237,-723,-300,-48,134,-246
25757,6651,0,2023-03-01T18:52:08.936659,1718460,1402,1780,-592,-1237,-723,-300,-48,134,-246
25758,6652,0,2023-03-01T18:52:08.941396,1718465,1402,1780,-592,-1237,-723,-300,-48,134,-246
25759,6653,0,2023-03-01T18:52:08.946261,1718470,1402,1780,-592,-1237,-723,-300,-48,134,-246
25760,6654,0,2023-03-01T18:52:08.950787,1718474,1428,1828,-601,-1325,-642,-361,-48,134,-246
25761,6655,0,2023-03-01T18:52:08.956803,1718480,1428,1828,-601,-1325,-642,-361,-48,134,-246
25762,6656,0,2023-03-01T18:52:08.961758,1718486,1428,1828,-601,-1325,-642,-361,-48,134,-246
25763,6657,0,2023-03-01T18:52:08.967558,1718491,1428,1828,-601,-1325,-642,-361,-48,134,-246
25764,6658,0,2023-03-01T18:52:08.972413,1718496,1412,1809,-600,-1213,-749,-296,-48,134,-246
25765,6659,0,2023-03-01T18:52:08.978646,1718502,1412,1809,-600,-1213,-749,-296,-48,134,-246
25766,6660,0,2023-03-01T18:52:08.983692,1718507,1412,1809,-600,-1213,-749,-296,-48,134,-246
25767,6661,0,2023-03-01T18:52:08.988589,1718512,1403,1778,-600,-1311,-672,-316,-48,134,-246
25768,6662,0,2023-03-01T18:52:08.994115,1718517,1403,1778,-600,-1311,-672,-316,-48,134,-246
25769,6663,0,2023-03-01T18:52:08.999594,1718523,1403,1778,-600,-1311,-672,-316,-48,134,-246
25770,6664,0,2023-03-01T18:52:09.004721,1718529,1403,1778,-600,-1311,-672,-316,-48,134,-246
25771,6665,0,2023-03-01T18:52:09.010605,1718534,1425,1830,-583,-1358,-639,-365,-52,136,-242
25772,6666,0,2023-03-01T18:52:09.016543,1718540,1425,1830,-583,-1358,-639,-365,-52,136,-242
25773,6667,0,2023-03-01T18:52:09.021731,1718545,1425,1830,-583,-1358,-639,-365,-52,136,-242
25774,6668,0,2023-03-01T18:52:09.026825,1718550,1425,1830,-583,-1358,-639,-365,-52,136,-242
25775,6669,0,2023-03-01T18:52:09.031369,1718555,1420,1810,-619,-1210,-788,-280,-52,136,-242
25776,6670,0,2023-03-01T18:52:09.037512,1718561,1420,1810,-619,-1210,-788,-280,-52,136,-242
25777,6671,0,2023-03-01T18:52:09.042611,1718566,1420,1810,-619,-1210,-788,-280,-52,136,-242
25778,6672,0,2023-03-01T18:52:09.047859,1718572,1420,1810,-619,-1210,-788,-280,-52,136,-242
25779,6673,0,2023-03-01T18:52:09.052505,1718576,1401,1781,-572,-1233,-706,-312,-52,136,-242
25780,6674,0,2023-03-01T18:52:09.058605,1718582,1401,1781,-572,-1233,-706,-312,-52,136,-242
25781,6675,0,2023-03-01T18:52:09.063803,1718587,1401,1781,-572,-1233,-706,-312,-52,136,-242
25782,6676,0,2023-03-01T18:52:09.068768,1718592,1434,1831,-613,-1317,-688,-348,-52,136,-242
25783,6677,0,2023-03-01T18:52:09.074719,1718598,1434,1831,-613,-1317,-688,-348,-52,136,-242
25784,6678,0,2023-03-01T18:52:09.080198,1718603,1434,1831,-613,-1317,-688,-348,-52,136,-242
25785,6679,0,2023-03-01T18:52:09.085241,1718608,1434,1831,-613,-1317,-688,-348,-52,136,-242
25786,6680,0,2023-03-01T18:52:09.090321,1718614,1409,1800,-585,-1217,-726,-291,-52,136,-242
25787,6681,0,2023-03-01T18:52:09.096757,1718620,1409,1800,-585,-1217,-726,-291,-52,136,-242
25788,6682,0,2023-03-01T18:52:09.101519,1718625,1409,1800,-585,-1217,-726,-291,-52,136,-242
25789,6683,0,2023-03-01T18:52:09.106541,1718630,1409,1800,-585,-1217,-726,-291,-52,136,-242
25790,6684,0,2023-03-01T18:52:09.112813,1718635,1420,1816,-603,-1301,-659,-343,-52,136,-242
25791,6685,0,2023-03-01T18:52:09.119113,1718642,1420,1816,-603,-1301,-659,-343,-52,136,-242
25792,6686,0,2023-03-01T18:52:09.124128,1718647,1420,1816,-603,-1301,-659,-343,-52,136,-242
25793,6687,0,2023-03-01T18:52:09.130279,1718653,1416,1812,-576,-1242,-669,-314,-49,129,-243
25794,6688,0,2023-03-01T18:52:09.136295,1718660,1416,1812,-576,-1242,-669,-314,-49,129,-243
25795,6689,0,2023-03-01T18:52:09.141144,1718665,1416,1812,-576,-1242,-669,-314,-49,129,-243
25796,6690,0,2023-03-01T18:52:09.146416,1718670,1416,1812,-576,-1242,-669,-314,-49,129,-243
25797,6691,0,2023-03-01T18:52:09.152509,1718676,1394,1760,-591,-1263,-685,-302,-49,129,-243
25798,6692,0,2023-03-01T18:52:09.158404,1718682,1394,1760,-591,-1263,-685,-302,-49,129,-243
25799,6693,0,2023-03-01T18:52:09.163182,1718687,1394,1760,-591,-1263,-685,-302,-49,129,-243
25800,6694,0,2023-03-01T18:52:09.167933,1718691,1394,1760,-591,-1263,-685,-302,-49,129,-243
25801,6695,0,2023-03-01T18:52:09.172615,1718696,1441,1851,-594,-1440,-541,-404,-49,129,-243
25802,6696,0,2023-03-01T18:52:09.178577,1718702,1441,1851,-594,-1440,-541,-404,-49,129,-243
25803,6697,0,2023-03-01T18:52:09.183411,1718707,1441,1851,-594,-1440,-541,-404,-49,129,-243
25804,6698,0,2023-03-01T18:52:09.188456,1718712,1441,1851,-594,-1440,-541,-404,-49,129,-243
25805,6699,0,2023-03-01T18:52:09.195116,1718718,1408,1795,-608,-1234,-724,-271,-49,129,-243
25806,6700,0,2023-03-01T18:52:09.201232,1718724,1408,1795,-608,-1234,-724,-271,-49,129,-243
25807,6701,0,2023-03-01T18:52:09.206199,1718729,1408,1795,-608,-1234,-724,-271,-49,129,-243
25808,6702,0,2023-03-01T18:52:09.211927,1718735,1413,1810,-583,-1171,-710,-325,-49,129,-243
25809,6703,0,2023-03-01T18:52:09.218228,1718742,1413,1810,-583,-1171,-710,-325,-49,129,-243
25810,6704,0,2023-03-01T18:52:09.222958,1718747,1413,1810,-583,-1171,-710,-325,-49,129,-243
25811,6705,0,2023-03-01T18:52:09.227789,1718751,1413,1810,-583,-1171,-710,-325,-49,129,-243
25812,6706,0,2023-03-01T18:52:09.232666,1718756,1416,1803,-599,-1318,-649,-337,-49,129,-243
25813,6707,0,2023-03-01T18:52:09.239170,1718762,1416,1803,-599,-1318,-649,-337,-49,129,-243
25814,6708,0,2023-03-01T18:52:09.244559,1718768,1416,1803,-599,-1318,-649,-337,-49,129,-243
25815,6709,0,2023-03-01T18:52:09.250461,1718774,1413,1807,-578,-1316,-625,-340,-49,129,-243
25816,6710,0,2023-03-01T18:52:09.256513,1718780,1413,1807,-578,-1316,-625,-340,-49,129,-243
25817,6711,0,2023-03-01T18:52:09.261432,1718786,1413,1807,-578,-1316,-625,-340,-49,129,-243
25818,6712,0,2023-03-01T18:52:09.266651,1718791,1413,1807,-578,-1316,-625,-340,-49,129,-243
25819,6713,0,2023-03-01T18:52:09.272466,1718796,1411,1798,-595,-1216,-726,-305,-47,143,-243
25820,6714,0,2023-03-01T18:52:09.278741,1718803,1411,1798,-595,-1216,-726,-305,-47,143,-243
25821,6715,0,2023-03-01T18:52:09.283389,1718807,1411,1798,-595,-1216,-726,-305,-47,143,-243
25822,6716,0,2023-03-01T18:52:09.288203,1718812,1411,1798,-595,-1216,-726,-305,-47,143,-243
25823,6717,0,2023-03-01T18:52:09.293061,1718816,1426,1825,-578,-1286,-614,-359,-47,143,-243
25824,6718,0,2023-03-01T18:52:09.299012,1718822,1426,1825,-578,-1286,-614,-359,-47,143,-243
25825,6719,0,2023-03-01T18:52:09.304260,1718828,1426,1825,-578,-1286,-614,-359,-47,143,-243
25826,6720,0,2023-03-01T18:52:09.309266,1718833,1390,1777,-571,-1250,-669,-297,-47,143,-243
25827,6721,0,2023-03-01T18:52:09.314911,1718839,1390,1777,-571,-1250,-669,-297,-47,143,-243
25828,6722,0,2023-03-01T18:52:09.320464,1718844,1390,1777,-571,-1250,-669,-297,-47,143,-243
25829,6723,0,2023-03-01T18:52:09.325329,1718849,1390,1777,-571,-1250,-669,-297,-47,143,-243
25830,6724,0,2023-03-01T18:52:09.330245,1718854,1437,1839,-605,-1341,-588,-390,-47,143,-243
25831,6725,0,2023-03-01T18:52:09.337064,1718860,1437,1839,-605,-1341,-588,-390,-47,143,-243
25832,6726,0,2023-03-01T18:52:09.342212,1718865,1437,1839,-605,-1341,-588,-390,-47,143,-243
25833,6727,0,2023-03-01T18:52:09.347267,1718871,1437,1839,-605,-1341,-588,-390,-47,143,-243
25834,6728,0,2023-03-01T18:52:09.352445,1718876,1403,1801,-571,-1226,-665,-302,-47,143,-243
25835,6729,0,2023-03-01T18:52:09.358394,1718882,1403,1801,-571,-1226,-665,-302,-47,143,-243
25836,6730,0,2023-03-01T18:52:09.363787,1718887,1403,1801,-571,-1226,-665,-302,-47,143,-243
25837,6731,0,2023-03-01T18:52:09.369071,1718893,1416,1797,-599,-1235,-668,-333,-47,143,-243
25838,6732,0,2023-03-01T18:52:09.374959,1718898,1416,1797,-599,-1235,-668,-333,-47,143,-243
25839,6733,0,2023-03-01T18:52:09.380378,1718904,1416,1797,-599,-1235,-668,-333,-47,143,-243
25840,6734,0,2023-03-01T18:52:09.385096,1718908,1416,1797,-599,-1235,-668,-333,-47,143,-243
25841,6735,0,2023-03-01T18:52:09.389748,1718914,1412,1816,-561,-1272,-634,-342,-47,135,-237
25842,6736,0,2023-03-01T18:52:09.395387,1718919,1412,1816,-561,-1272,-634,-342,-47,135,-237
25843,6737,0,2023-03-01T18:52:09.400659,1718924,1412,1816,-561,-1272,-634,-342,-47,135,-237
25844,6738,0,2023-03-01T18:52:09.405656,1718929,1412,1816,-561,-1272,-634,-342,-47,135,-237
25845,6739,0,2023-03-01T18:52:09.411014,1718934,1421,1805,-610,-1303,-664,-322,-47,135,-237
25846,6740,0,2023-03-01T18:52:09.417621,1718941,1421,1805,-610,-1303,-664,-322,-47,135,-237
25847,6741,0,2023-03-01T18:52:09.422625,1718946,1421,1805,-610,-1303,-664,-322,-47,135,-237
25848,6742,0,2023-03-01T18:52:09.428053,1718951,1421,1805,-610,-1303,-664,-322,-47,135,-237
25849,6743,0,2023-03-01T18:52:09.433155,1718957,1404,1807,-550,-1265,-635,-335,-47,135,-237
25850,6744,0,2023-03-01T18:52:09.438971,1718963,1404,1807,-550,-1265,-635,-335,-47,135,-237
25851,6745,0,2023-03-01T18:52:09.443734,1718968,1404,1807,-550,-1265,-635,-335,-47,135,-237
25852,6746,0,2023-03-01T18:52:09.448774,1718972,1404,1807,-550,-1265,-635,-335,-47,135,-237
25853,6747,0,2023-03-01T18:52:09.453478,1718977,1430,1821,-618,-1338,-647,-345,-47,135,-237
25854,6748,0,2023-03-01T18:52:09.459368,1718983,1430,1821,-618,-1338,-647,-345,-47,135,-237
25855,6749,0,2023-03-01T18:52:09.464455,1718987,1430,1821,-618,-1338,-647,-345,-47,135,-237
25856,6750,0,2023-03-01T18:52:09.470191,1718993,1411,1807,-549,-1276,-635,-327,-47,135,-237
25857,6751,0,2023-03-01T18:52:09.476495,1719000,1411,1807,-549,-1276,-635,-327,-47,135,-237
25858,6752,0,2023-03-01T18:52:09.481665,1719006,1411,1807,-549,-1276,-635,-327,-47,135,-237
25859,6753,0,2023-03-01T18:52:09.486401,1719010,1411,1807,-549,-1276,-635,-327,-47,135,-237
25860,6754,0,2023-03-01T18:52:09.491744,1719015,1407,1792,-605,-1303,-699,-315,-47,135,-237
25861,6755,0,2023-03-01T18:52:09.497511,1719021,1407,1792,-605,-1303,-699,-315,-47,135,-237
25862,6756,0,2023-03-01T18:52:09.502344,1719026,1407,1792,-605,-1303,-699,-315,-47,135,-237
25863,6757,0,2023-03-01T18:52:09.507876,1719031,1407,1792,-605,-1303,-699,-315,-47,135,-237
25864,6758,0,2023-03-01T18:52:09.512609,1719036,1422,1830,-554,-1315,-600,-369,-53,137,-235
25865,6759,0,2023-03-01T18:52:09.518573,1719043,1422,1830,-554,-1315,-600,-369,-53,137,-235
25866,6760,0,2023-03-01T18:52:09.525592,1719049,1422,1830,-554,-1315,-600,-369,-53,137,-235
25867,6761,0,2023-03-01T18:52:09.530546,1719054,1404,1782,-594,-1243,-740,-282,-53,137,-235
25868,6762,0,2023-03-01T18:52:09.536901,1719060,1404,1782,-594,-1243,-740,-282,-53,137,-235
25869,6763,0,2023-03-01T18:52:09.541724,1719065,1404,1782,-594,-1243,-740,-282,-53,137,-235
25870,6764,0,2023-03-01T18:52:09.546658,1719070,1404,1782,-594,-1243,-740,-282,-53,137,-235
25871,6765,0,2023-03-01T18:52:09.551474,1719075,1431,1842,-550,-1298,-598,-376,-53,137,-235
25872,6766,0,2023-03-01T18:52:09.556676,1719080,1431,1842,-550,-1298,-598,-376,-53,137,-235
25873,6767,0,2023-03-01T18:52:09.561724,1719086,1431,1842,-550,-1298,-598,-376,-53,137,-235
25874,6768,0,2023-03-01T18:52:09.566897,1719091,1431,1842,-550,-1298,-598,-376,-53,137,-235
25875,6769,0,2023-03-01T18:52:09.571911,1719096,1404,1791,-589,-1298,-680,-308,-53,137,-235
25876,6770,0,2023-03-01T18:52:09.578326,1719102,1404,1791,-589,-1298,-680,-308,-53,137,-235
25877,6771,0,2023-03-01T18:52:09.583321,1719107,1404,1791,-589,-1298,-680,-308,-53,137,-235
25878,6772,0,2023-03-01T18:52:09.588622,1719112,1404,1791,-589,-1298,-680,-308,-53,137,-235
25879,6773,0,2023-03-01T18:52:09.593766,1719117,1415,1817,-554,-1293,-631,-348,-53,137,-235
25880,6774,0,2023-03-01T18:52:09.600704,1719123,1415,1817,-554,-1293,-631,-348,-53,137,-235
25881,6775,0,2023-03-01T18:52:09.605787,1719130,1415,1817,-554,-1293,-631,-348,-53,137,-235
25882,6776,0,2023-03-01T18:52:09.611360,1719135,1425,1822,-600,-1312,-681,-334,-53,137,-235
25883,6777,0,2023-03-01T18:52:09.618779,1719142,1425,1822,-600,-1312,-681,-334,-53,137,-235
25884,6778,0,2023-03-01T18:52:09.623791,1719147,1425,1822,-600,-1312,-681,-334,-53,137,-235
25885,6779,0,2023-03-01T18:52:09.630482,1719153,1399,1780,-553,-1272,-647,-307,-53,137,-235
25886,6780,0,2023-03-01T18:52:09.637615,1719161,1399,1780,-553,-1272,-647,-307,-53,137,-235
25887,6781,0,2023-03-01T18:52:09.643064,1719166,1399,1780,-553,-1272,-647,-307,-53,137,-235
25888,6782,0,2023-03-01T18:52:09.648753,1719173,1399,1780,-553,-1272,-647,-307,-53,137,-235
25889,6783,0,2023-03-01T18:52:09.653725,1719177,1438,1843,-601,-1373,-627,-374,-55,139,-245
25890,6784,0,2023-03-01T18:52:09.660098,1719183,1438,1843,-601,-1373,-627,-374,-55,139,-245
25891,6785,0,2023-03-01T18:52:09.664937,1719188,1438,1843,-601,-1373,-627,-374,-55,139,-245
25892,6786,0,2023-03-01T18:52:09.670628,1719194,1396,1796,-545,-1251,-659,-307,-55,139,-245
25893,6787,0,2023-03-01T18:52:09.677365,1719201,1396,1796,-545,-1251,-659,-307,-55,139,-245
25894,6788,0,2023-03-01T18:52:09.682167,1719205,1396,1796,-545,-1251,-659,-307,-55,139,-245
25895,6789,0,2023-03-01T18:52:09.686853,1719211,1396,1796,-545,-1251,-659,-307,-55,139,-245
25896,6790,0,2023-03-01T18:52:09.691732,1719216,1414,1806,-592,-1294,-680,-339,-55,139,-245
25897,6791,0,2023-03-01T18:52:09.698400,1719222,1414,1806,-592,-1294,-680,-339,-55,139,-245
25898,6792,0,2023-03-01T18:52:09.703291,1719227,1414,1806,-592,-1294,-680,-339,-55,139,-245
25899,6793,0,2023-03-01T18:52:09.709015,1719232,1414,1806,-592,-1294,-680,-339,-55,139,-245
