,Unnamed: 0,imu,server_time,arduino_time,ax,ay,az,gx,gy,gz,mx,my,mz
25900,6794,0,2023-03-01T18:52:09.714115,1719238,1415,1825,-544,-1278,-639,-346,-55,139,-245
25901,6795,0,2023-03-01T18:52:09.720251,1719244,1415,1825,-544,-1278,-639,-346,-55,139,-245
25902,6796,0,2023-03-01T18:52:09.725221,1719248,1415,1825,-544,-1278,-639,-346,-55,139,-245
25903,6797,0,2023-03-01T18:52:09.730774,1719255,1415,1825,-544,-1278,-639,-346,-55,139,-245
25904,6798,0,2023-03-01T18:52:09.736828,1719260,1415,1825,-544,-1278,-639,-346,-55,139,-245
25905,6799,0,2023-03-01T18:52:09.742152,1719266,1415,1825,-544,-1278,-639,-346,-55,139,-245
25906,6800,0,2023-03-01T18:52:09.747759,1719271,1415,1825,-544,-1278,-639,-346,-55,139,-245
25907,6801,0,2023-03-01T18:52:09.753135,1719277,1412,1821,-547,-1296,-635,-350,-55,139,-245
25908,6802,0,2023-03-01T18:52:09.759056,1719282,1412,1821,-547,-1296,-635,-350,-55,139,-245
25909,6803,0,2023-03-01T18:52:09.764302,1719287,1412,1821,-547,-1296,-635,-350,-55,139,-245
25910,6804,0,2023-03-01T18:52:09.768983,1719292,1412,1821,-547,-1296,-635,-350,-55,139,-245
25911,6805,0,2023-03-01T18:52:09.774127,1719298,1425,1822,-596,-1286,-690,-321,-52,140,-240
25912,6806,0,2023-03-01T18:52:09.780208,1719304,1425,1822,-596,-1286,-690,-321,-52,140,-240
25913,6807,0,2023-03-01T18:52:09.785038,1719309,1425,1822,-596,-1286,-690,-321,-52,140,-240
25914,6808,0,2023-03-01T18:52:09.790540,1719314,1394,1791,-526,-1281,-621,-331,-52,140,-240
25915,6809,0,2023-03-01T18:52:09.795362,1719319,1394,1791,-526,-1281,-621,-331,-52,140,-240
25916,6810,0,2023-03-01T18:52:09.800387,1719324,1394,1791,-526,-1281,-621,-331,-52,140,-240
25917,6811,0,2023-03-01T18:52:09.805023,1719328,1394,1791,-526,-1281,-621,-331,-52,140,-240
25918,6812,0,2023-03-01T18:52:09.810229,1719333,1430,1836,-587,-1326,-661,-356,-52,140,-240
25919,6813,0,2023-03-01T18:52:09.816227,1719340,1430,1836,-587,-1326,-661,-356,-52,140,-240
25920,6814,0,2023-03-01T18:52:09.821803,1719346,1430,1836,-587,-1326,-661,-356,-52,140,-240
25921,6815,0,2023-03-01T18:52:09.826456,1719350,1430,1836,-587,-1326,-661,-356,-52,140,-240
25922,6816,0,2023-03-01T18:52:09.831732,1719355,1396,1785,-542,-1262,-648,-301,-52,140,-240
25923,6817,0,2023-03-01T18:52:09.837838,1719361,1396,1785,-542,-1262,-648,-301,-52,140,-240
25924,6818,0,2023-03-01T18:52:09.843415,1719367,1396,1785,-542,-1262,-648,-301,-52,140,-240
25925,6819,0,2023-03-01T18:52:09.848261,1719372,1396,1785,-542,-1262,-648,-301,-52,140,-240
25926,6820,0,2023-03-01T18:52:09.853053,1719376,1429,1840,-574,-1322,-647,-360,-52,140,-240
25927,6821,0,2023-03-01T18:52:09.859324,1719383,1429,1840,-574,-1322,-647,-360,-52,140,-240
25928,6822,0,2023-03-01T18:52:09.863974,1719388,1429,1840,-574,-1322,-647,-360,-52,140,-240
25929,6823,0,2023-03-01T18:52:09.868465,1719392,1429,1840,-574,-1322,-647,-360,-52,140,-240
25930,6824,0,2023-03-01T18:52:09.873352,1719397,1406,1797,-559,-1275,-677,-306,-52,140,-240
25931,6825,0,2023-03-01T18:52:09.879011,1719403,1406,1797,-559,-1275,-677,-306,-52,140,-240
25932,6826,0,2023-03-01T18:52:09.883384,1719407,1406,1797,-559,-1275,-677,-306,-52,140,-240
25933,6827,0,2023-03-01T18:52:09.888118,1719411,1406,1797,-559,-1275,-677,-306,-52,140,-240
25934,6828,0,2023-03-01T18:52:09.892890,1719416,1414,1822,-556,-1303,-643,-347,-52,140,-240
25935,6829,0,2023-03-01T18:52:09.898931,1719422,1414,1822,-556,-1303,-643,-347,-52,140,-240
25936,6830,0,2023-03-01T18:52:09.904175,1719428,1414,1822,-556,-1303,-643,-347,-52,140,-240
25937,6831,0,2023-03-01T18:52:09.909992,1719434,1418,1818,-570,-1297,-667,-331,-41,135,-239
25938,6832,0,2023-03-01T18:52:09.915786,1719440,1418,1818,-570,-1297,-667,-331,-41,135,-239
25939,6833,0,2023-03-01T18:52:09.920552,1719444,1418,1818,-570,-1297,-667,-331,-41,135,-239
25940,6834,0,2023-03-01T18:52:09.925597,1719449,1418,1818,-570,-1297,-667,-331,-41,135,-239
25941,6835,0,2023-03-01T18:52:09.931028,1719455,1401,1808,-539,-1272,-645,-318,-41,135,-239
25942,6836,0,2023-03-01T18:52:09.936773,1719460,1401,1808,-539,-1272,-645,-318,-41,135,-239
25943,6837,0,2023-03-01T18:52:09.941636,1719465,1401,1808,-539,-1272,-645,-318,-41,135,-239
25944,6838,0,2023-03-01T18:52:09.946391,1719471,1401,1808,-539,-1272,-645,-318,-41,135,-239
25945,6839,0,2023-03-01T18:52:09.951296,1719475,1427,1827,-589,-1342,-651,-361,-41,135,-239
25946,6840,0,2023-03-01T18:52:09.957412,1719481,1427,1827,-589,-1342,-651,-361,-41,135,-239
25947,6841,0,2023-03-01T18:52:09.962338,1719486,1427,1827,-589,-1342,-651,-361,-41,135,-239
25948,6842,0,2023-03-01T18:52:09.967266,1719491,1427,1827,-589,-1342,-651,-361,-41,135,-239
25949,6843,0,2023-03-01T18:52:09.971992,1719495,1405,1807,-529,-1275,-630,-328,-41,135,-239
25950,6844,0,2023-03-01T18:52:09.978171,1719501,1405,1807,-529,-1275,-630,-328,-41,135,-239
25951,6845,0,2023-03-01T18:52:09.982838,1719506,1405,1807,-529,-1275,-630,-328,-41,135,-239
25952,6846,0,2023-03-01T18:52:09.988001,1719512,1405,1807,-529,-1275,-630,-328,-41,135,-239
25953,6847,0,2023-03-01T18:52:09.993241,1719517,1405,1807,-529,-1275,-630,-328,-41,135,-239
25954,6848,0,2023-03-01T18:52:09.998754,1719522,1405,1807,-529,-1275,-630,-328,-41,135,-239
25955,6849,0,2023-03-01T18:52:10.004104,1719528,1405,1807,-529,-1275,-630,-328,-41,135,-239
25956,6850,0,2023-03-01T18:52:10.009691,1719533,1432,1842,-545,-1371,-570,-393,-41,135,-239
25957,6851,0,2023-03-01T18:52:10.015196,1719539,1432,1842,-545,-1371,-570,-393,-41,135,-239
25958,6852,0,2023-03-01T18:52:10.020458,1719544,1432,1842,-545,-1371,-570,-393,-41,135,-239
25959,6853,0,2023-03-01T18:52:10.025334,1719549,1432,1842,-545,-1371,-570,-393,-41,135,-239
25960,6854,0,2023-03-01T18:52:10.030969,1719555,1409,1807,-561,-1226,-726,-282,-52,142,-228
25961,6855,0,2023-03-01T18:52:10.037020,1719561,1409,1807,-561,-1226,-726,-282,-52,142,-228
25962,6856,0,2023-03-01T18:52:10.041925,1719566,1409,1807,-561,-1226,-726,-282,-52,142,-228
25963,6857,0,2023-03-01T18:52:10.046599,1719570,1409,1807,-561,-1226,-726,-282,-52,142,-228
25964,6858,0,2023-03-01T18:52:10.051297,1719575,1387,1774,-535,-1278,-639,-322,-52,142,-228
25965,6859,0,2023-03-01T18:52:10.057195,1719580,1387,1774,-535,-1278,-639,-322,-52,142,-228
25966,6860,0,2023-03-01T18:52:10.062264,1719585,1387,1774,-535,-1278,-639,-322,-52,142,-228
25967,6861,0,2023-03-01T18:52:10.067097,1719590,1387,1774,-535,-1278,-639,-322,-52,142,-228
25968,6862,0,2023-03-01T18:52:10.072205,1719596,1443,1861,-564,-1458,-541,-406,-52,142,-228
25969,6863,0,2023-03-01T18:52:10.078566,1719602,1443,1861,-564,-1458,-541,-406,-52,142,-228
25970,6864,0,2023-03-01T18:52:10.083197,1719607,1443,1861,-564,-1458,-541,-406,-52,142,-228
25971,6865,0,2023-03-01T18:52:10.088710,1719612,1443,1861,-564,-1458,-541,-406,-52,142,-228
25972,6866,0,2023-03-01T18:52:10.094006,1719617,1406,1801,-561,-1232,-714,-283,-52,142,-228
25973,6867,0,2023-03-01T18:52:10.099910,1719623,1406,1801,-561,-1232,-714,-283,-52,142,-228
25974,6868,0,2023-03-01T18:52:10.105351,1719628,1406,1801,-561,-1232,-714,-283,-52,142,-228
25975,6869,0,2023-03-01T18:52:10.110910,1719634,1400,1793,-542,-1186,-710,-325,-52,142,-228
25976,6870,0,2023-03-01T18:52:10.117068,1719641,1400,1793,-542,-1186,-710,-325,-52,142,-228
25977,6871,0,2023-03-01T18:52:10.122338,1719646,1400,1793,-542,-1186,-710,-325,-52,142,-228
25978,6872,0,2023-03-01T18:52:10.127519,1719651,1400,1793,-542,-1186,-710,-325,-52,142,-228
25979,6873,0,2023-03-01T18:52:10.132475,1719656,1429,1840,-578,-1338,-633,-363,-52,142,-228
25980,6874,0,2023-03-01T18:52:10.138711,1719662,1429,1840,-578,-1338,-633,-363,-52,142,-228
25981,6875,0,2023-03-01T18:52:10.144007,1719667,1429,1840,-578,-1338,-633,-363,-52,142,-228
25982,6876,0,2023-03-01T18:52:10.149010,1719672,1429,1840,-578,-1338,-633,-363,-52,142,-228
25983,6877,0,2023-03-01T18:52:10.153840,1719677,1399,1801,-528,-1258,-659,-310,-52,142,-228
25984,6878,0,2023-03-01T18:52:10.160093,1719684,1399,1801,-528,-1258,-659,-310,-52,142,-228
25985,6879,0,2023-03-01T18:52:10.164982,1719689,1399,1801,-528,-1258,-659,-310,-52,142,-228
25986,6880,0,2023-03-01T18:52:10.171009,1719694,1404,1795,-558,-1286,-680,-324,-46,132,-228
25987,6881,0,2023-03-01T18:52:10.177085,1719701,1404,1795,-558,-1286,-680,-324,-46,132,-228
25988,6882,0,2023-03-01T18:52:10.182199,1719705,1404,1795,-558,-1286,-680,-324,-46,132,-228
25989,6883,0,2023-03-01T18:52:10.186960,1719710,1404,1795,-558,-1286,-680,-324,-46,132,-228
25990,6884,0,2023-03-01T18:52:10.192607,1719716,1426,1837,-530,-1339,-587,-371,-46,132,-228
25991,6885,0,2023-03-01T18:52:10.198538,1719723,1426,1837,-530,-1339,-587,-371,-46,132,-228
25992,6886,0,2023-03-01T18:52:10.203962,1719728,1426,1837,-530,-1339,-587,-371,-46,132,-228
25993,6887,0,2023-03-01T18:52:10.208895,1719733,1426,1837,-530,-1339,-587,-371,-46,132,-228
25994,6888,0,2023-03-01T18:52:10.214133,1719738,1410,1809,-562,-1201,-744,-288,-46,132,-228
25995,6889,0,2023-03-01T18:52:10.220526,1719744,1410,1809,-562,-1201,-744,-288,-46,132,-228
25996,6890,0,2023-03-01T18:52:10.225839,1719749,1410,1809,-562,-1201,-744,-288,-46,132,-228
25997,6891,0,2023-03-01T18:52:10.231555,1719755,1413,1818,-547,-1333,-580,-378,-46,132,-228
25998,6892,0,2023-03-01T18:52:10.238007,1719761,1413,1818,-547,-1333,-580,-378,-46,132,-228
25999,6893,0,2023-03-01T18:52:10.242975,1719767,1413,1818,-547,-1333,-580,-378,-46,132,-228
26000,6894,0,2023-03-01T18:52:10.248042,1719772,1413,1818,-547,-1333,-580,-378,-46,132,-228
26001,6895,0,2023-03-01T18:52:10.253048,1719777,1410,1811,-536,-1299,-649,-327,-46,132,-228
26002,6896,0,2023-03-01T18:52:10.259378,1719783,1410,1811,-536,-1299,-649,-327,-46,132,-228
26003,6897,0,2023-03-01T18:52:10.263990,1719788,1410,1811,-536,-1299,-649,-327,-46,132,-228
26004,6898,0,2023-03-01T18:52:10.268919,1719792,1410,1811,-536,-1299,-649,-327,-46,132,-228
26005,6899,0,2023-03-01T18:52:10.273970,1719797,1399,1794,-553,-1223,-711,-303,-46,132,-228
26006,6900,0,2023-03-01T18:52:10.279936,1719803,1399,1794,-553,-1223,-711,-303,-46,132,-228
26007,6901,0,2023-03-01T18:52:10.284626,1719809,1399,1794,-553,-1223,-711,-303,-46,132,-228
26008,6902,0,2023-03-01T18:52:10.290023,1719814,1429,1850,-536,-1375,-577,-402,-49,141,-237
26009,6903,0,2023-03-01T18:52:10.296858,1719820,1429,1850,-536,-1375,-577,-402,-49,141,-237
26010,6904,0,2023-03-01T18:52:10.302097,1719826,1429,1850,-536,-1375,-577,-402,-49,141,-237
26011,6905,0,2023-03-01T18:52:10.307013,1719830,1429,1850,-536,-1375,-577,-402,-49,141,-237
26012,6906,0,2023-03-01T18:52:10.312624,1719836,1404,1803,-548,-1238,-718,-282,-49,141,-237
26013,6907,0,2023-03-01T18:52:10.318657,1719842,1404,1803,-548,-1238,-718,-282,-49,141,-237
26014,6908,0,2023-03-01T18:52:10.323386,1719847,1404,1803,-548,-1238,-718,-282,-49,141,-237
26015,6909,0,2023-03-01T18:52:10.329178,1719853,1404,1803,-548,-1238,-718,-282,-49,141,-237
26016,6910,0,2023-03-01T18:52:10.334172,1719858,1399,1792,-535,-1288,-648,-339,-49,141,-237
26017,6911,0,2023-03-01T18:52:10.340111,1719864,1399,1792,-535,-1288,-648,-339,-49,141,-237
26018,6912,0,2023-03-01T18:52:10.345197,1719869,1399,1792,-535,-1288,-648,-339,-49,141,-237
26019,6913,0,2023-03-01T18:52:10.350232,1719874,1428,1837,-536,-1354,-613,-362,-49,141,-237
26020,6914,0,2023-03-01T18:52:10.355936,1719879,1428,1837,-536,-1354,-613,-362,-49,141,-237
26021,6915,0,2023-03-01T18:52:10.360869,1719884,1428,1837,-536,-1354,-613,-362,-49,141,-237
26022,6916,0,2023-03-01T18:52:10.365681,1719889,1428,1837,-536,-1354,-613,-362,-49,141,-237
26023,6917,0,2023-03-01T18:52:10.370233,1719895,1410,1812,-548,-1212,-736,-284,-49,141,-237
26024,6918,0,2023-03-01T18:52:10.375969,1719900,1410,1812,-548,-1212,-736,-284,-49,141,-237
26025,6919,0,2023-03-01T18:52:10.380554,1719905,1410,1812,-548,-1212,-736,-284,-49,141,-237
26026,6920,0,2023-03-01T18:52:10.385451,1719909,1410,1812,-548,-1212,-736,-284,-49,141,-237
26027,6921,0,2023-03-01T18:52:10.391047,1719915,1418,1821,-536,-1348,-602,-384,-49,141,-237
26028,6922,0,2023-03-01T18:52:10.397109,1719921,1418,1821,-536,-1348,-602,-384,-49,141,-237
26029,6923,0,2023-03-01T18:52:10.402350,1719925,1418,1821,-536,-1348,-602,-384,-49,141,-237
26030,6924,0,2023-03-01T18:52:10.407381,1719931,1418,1821,-536,-1348,-602,-384,-49,141,-237
26031,6925,0,2023-03-01T18:52:10.412960,1719937,1411,1812,-533,-1295,-668,-305,-51,133,-231
26032,6926,0,2023-03-01T18:52:10.418534,1719943,1411,1812,-533,-1295,-668,-305,-51,133,-231
26033,6927,0,2023-03-01T18:52:10.423464,1719947,1411,1812,-533,-1295,-668,-305,-51,133,-231
26034,6928,0,2023-03-01T18:52:10.429036,1719953,1411,1812,-533,-1295,-668,-305,-51,133,-231
26035,6929,0,2023-03-01T18:52:10.434079,1719958,1399,1795,-541,-1224,-705,-309,-51,133,-231
26036,6930,0,2023-03-01T18:52:10.440120,1719963,1399,1795,-541,-1224,-705,-309,-51,133,-231
26037,6931,0,2023-03-01T18:52:10.444819,1719968,1399,1795,-541,-1224,-705,-309,-51,133,-231
26038,6932,0,2023-03-01T18:52:10.450385,1719974,1431,1852,-542,-1400,-557,-406,-51,133,-231
26039,6933,0,2023-03-01T18:52:10.456315,1719980,1431,1852,-542,-1400,-557,-406,-51,133,-231
26040,6934,0,2023-03-01T18:52:10.461357,1719985,1431,1852,-542,-1400,-557,-406,-51,133,-231
26041,6935,0,2023-03-01T18:52:10.466263,1719990,1431,1852,-542,-1400,-557,-406,-51,133,-231
26042,6936,0,2023-03-01T18:52:10.472007,1719996,1399,1800,-534,-1265,-695,-295,-51,133,-231
26043,6937,0,2023-03-01T18:52:10.477939,1720002,1399,1800,-534,-1265,-695,-295,-51,133,-231
26044,6938,0,2023-03-01T18:52:10.482665,1720006,1399,1800,-534,-1265,-695,-295,-51,133,-231
26045,6939,0,2023-03-01T18:52:10.487273,1720011,1399,1800,-534,-1265,-695,-295,-51,133,-231
26046,6940,0,2023-03-01T18:52:10.491914,1720015,1397,1795,-534,-1221,-700,-322,-51,133,-231
26047,6941,0,2023-03-01T18:52:10.497845,1720022,1397,1795,-534,-1221,-700,-322,-51,133,-231
26048,6942,0,2023-03-01T18:52:10.502820,1720027,1397,1795,-534,-1221,-700,-322,-51,133,-231
26049,6943,0,2023-03-01T18:52:10.507941,1720032,1397,1795,-534,-1221,-700,-322,-51,133,-231
26050,6944,0,2023-03-01T18:52:10.513487,1720037,1433,1851,-552,-1358,-600,-374,-51,133,-231
26051,6945,0,2023-03-01T18:52:10.519639,1720043,1433,1851,-552,-1358,-600,-374,-51,133,-231
26052,6946,0,2023-03-01T18:52:10.524508,1720048,1433,1851,-552,-1358,-600,-374,-51,133,-231
26053,6947,0,2023-03-01T18:52:10.529377,1720053,1433,1851,-552,-1358,-600,-374,-51,133,-231
26054,6948,0,2023-03-01T18:52:10.534448,1720058,1402,1802,-538,-1230,-705,-289,-51,133,-231
26055,6949,0,2023-03-01T18:52:10.539321,1720064,1402,1802,-538,-1230,-705,-289,-51,133,-231
26056,6950,0,2023-03-01T18:52:10.544242,1720068,1402,1802,-538,-1230,-705,-289,-51,133,-231
26057,6951,0,2023-03-01T18:52:10.549353,1720073,1402,1802,-538,-1230,-705,-289,-51,133,-231
26058,6952,0,2023-03-01T18:52:10.554735,1720079,1404,1805,-539,-1332,-640,-357,-50,134,-240
26059,6953,0,2023-03-01T18:52:10.560895,1720084,1404,1805,-539,-1332,-640,-357,-50,134,-240
26060,6954,0,2023-03-01T18:52:10.565918,1720089,1404,1805,-539,-1332,-640,-357,-50,134,-240
26061,6955,0,2023-03-01T18:52:10.571380,1720095,1417,1826,-518,-1339,-618,-352,-50,134,-240
26062,6956,0,2023-03-01T18:52:10.577189,1720100,1417,1826,-518,-1339,-618,-352,-50,134,-240
26063,6957,0,2023-03-01T18:52:10.581963,1720105,1417,1826,-518,-1339,-618,-352,-50,134,-240
26064,6958,0,2023-03-01T18:52:10.586964,1720111,1417,1826,-518,-1339,-618,-352,-50,134,-240
26065,6959,0,2023-03-01T18:52:10.591402,1720116,1403,1801,-542,-1209,-737,-301,-50,134,-240
26066,6960,0,2023-03-01T18:52:10.597217,1720121,1403,1801,-542,-1209,-737,-301,-50,134,-240
26067,6961,0,2023-03-01T18:52:10.602127,1720126,1403,1801,-542,-1209,-737,-301,-50,134,-240
26068,6962,0,2023-03-01T18:52:10.607050,1720131,1403,1801,-542,-1209,-737,-301,-50,134,-240
26069,6963,0,2023-03-01T18:52:10.611833,1720135,1420,1841,-527,-1314,-622,-383,-50,134,-240
26070,6964,0,2023-03-01T18:52:10.618369,1720142,1420,1841,-527,-1314,-622,-383,-50,134,-240
26071,6965,0,2023-03-01T18:52:10.623527,1720146,1420,1841,-527,-1314,-622,-383,-50,134,-240
26072,6966,0,2023-03-01T18:52:10.628317,1720152,1420,1841,-527,-1314,-622,-383,-50,134,-240
26073,6967,0,2023-03-01T18:52:10.633184,1720157,1392,1785,-531,-1277,-689,-287,-50,134,-240
26074,6968,0,2023-03-01T18:52:10.639787,1720163,1392,1785,-531,-1277,-689,-287,-50,134,-240
26075,6969,0,2023-03-01T18:52:10.644484,1720168,1392,1785,-531,-1277,-689,-287,-50,134,-240
26076,6970,0,2023-03-01T18:52:10.649920,1720173,1392,1785,-531,-1277,-689,-287,-50,134,-240
26077,6971,0,2023-03-01T18:52:10.655212,1720178,1423,1845,-530,-1288,-655,-379,-50,134,-240
26078,6972,0,2023-03-01T18:52:10.661400,1720185,1423,1845,-530,-1288,-655,-379,-50,134,-240
26079,6973,0,2023-03-01T18:52:10.666261,1720189,1423,1845,-530,-1288,-655,-379,-50,134,-240
26080,6974,0,2023-03-01T18:52:10.671143,1720195,1398,1789,-525,-1298,-679,-304,-43,147,-229
26081,6975,0,2023-03-01T18:52:10.677110,1720201,1398,1789,-525,-1298,-679,-304,-43,147,-229
26082,6976,0,2023-03-01T18:52:10.681783,1720206,1398,1789,-525,-1298,-679,-304,-43,147,-229
26083,6977,0,2023-03-01T18:52:10.686511,1720210,1398,1789,-525,-1298,-679,-304,-43,147,-229
26084,6978,0,2023-03-01T18:52:10.692336,1720216,1419,1830,-516,-1328,-624,-364,-43,147,-229
26085,6979,0,2023-03-01T18:52:10.698857,1720222,1419,1830,-516,-1328,-624,-364,-43,147,-229
26086,6980,0,2023-03-01T18:52:10.703835,1720227,1419,1830,-516,-1328,-624,-364,-43,147,-229
26087,6981,0,2023-03-01T18:52:10.709607,1720233,1419,1830,-516,-1328,-624,-364,-43,147,-229
26088,6982,0,2023-03-01T18:52:10.714843,1720239,1419,1830,-516,-1328,-624,-364,-43,147,-229
26089,6983,0,2023-03-01T18:52:10.720629,1720244,1419,1830,-516,-1328,-624,-364,-43,147,-229
26090,6984,0,2023-03-01T18:52:10.725448,1720249,1419,1830,-516,-1328,-624,-364,-43,147,-229
26091,6985,0,2023-03-01T18:52:10.731433,1720255,1418,1826,-519,-1308,-626,-354,-43,147,-229
26092,6986,0,2023-03-01T18:52:10.739243,1720263,1418,1826,-519,-1308,-626,-354,-43,147,-229
26093,6987,0,2023-03-01T18:52:10.744173,1720267,1418,1826,-519,-1308,-626,-354,-43,147,-229
26094,6988,0,2023-03-01T18:52:10.750062,1720273,1418,1826,-519,-1308,-626,-354,-43,147,-229
26095,6989,0,2023-03-01T18:52:10.754935,1720279,1397,1797,-519,-1273,-699,-308,-43,147,-229
26096,6990,0,2023-03-01T18:52:10.760215,1720284,1397,1797,-519,-1273,-699,-308,-43,147,-229
26097,6991,0,2023-03-01T18:52:10.765349,1720289,1397,1797,-519,-1273,-699,-308,-43,147,-229
26098,6992,0,2023-03-01T18:52:10.771326,1720295,1426,1839,-535,-1357,-620,-369,-43,147,-229
26099,6993,0,2023-03-01T18:52:10.777436,1720301,1426,1839,-535,-1357,-620,-369,-43,147,-229
26100,6994,0,2023-03-01T18:52:10.782062,1720306,1426,1839,-535,-1357,-620,-369,-43,147,-229
26101,6995,0,2023-03-01T18:52:10.786925,1720310,1426,1839,-535,-1357,-620,-369,-43,147,-229
26102,6996,0,2023-03-01T18:52:10.791506,1720315,1404,1815,-503,-1265,-687,-318,-43,147,-229
26103,6997,0,2023-03-01T18:52:10.797666,1720321,1404,1815,-503,-1265,-687,-318,-43,147,-229
26104,6998,0,2023-03-01T18:52:10.802848,1720327,1404,1815,-503,-1265,-687,-318,-43,147,-229
26105,6999,0,2023-03-01T18:52:10.808025,1720332,1404,1815,-503,-1265,-687,-318,-43,147,-229
26106,7000,0,2023-03-01T18:52:10.813407,1720337,1391,1785,-529,-1271,-698,-315,-45,127,-237
26107,7001,0,2023-03-01T18:52:10.818948,1720343,1391,1785,-529,-1271,-698,-315,-45,127,-237
26108,7002,0,2023-03-01T18:52:10.823427,1720347,1391,1785,-529,-1271,-698,-315,-45,127,-237
26109,7003,0,2023-03-01T18:52:10.828300,1720352,1391,1785,-529,-1271,-698,-315,-45,127,-237
26110,7004,0,2023-03-01T18:52:10.833175,1720357,1428,1855,-507,-1359,-588,-393,-45,127,-237
26111,7005,0,2023-03-01T18:52:10.839172,1720363,1428,1855,-507,-1359,-588,-393,-45,127,-237
26112,7006,0,2023-03-01T18:52:10.844043,1720368,1428,1855,-507,-1359,-588,-393,-45,127,-237
26113,7007,0,2023-03-01T18:52:10.848523,1720373,1428,1855,-507,-1359,-588,-393,-45,127,-237
26114,7008,0,2023-03-01T18:52:10.853800,1720377,1408,1811,-538,-1199,-755,-266,-45,127,-237
26115,7009,0,2023-03-01T18:52:10.860170,1720384,1408,1811,-538,-1199,-755,-266,-45,127,-237
26116,7010,0,2023-03-01T18:52:10.864882,1720388,1408,1811,-538,-1199,-755,-266,-45,127,-237
26117,7011,0,2023-03-01T18:52:10.870225,1720394,1408,1811,-538,-1199,-755,-266,-45,127,-237
26118,7012,0,2023-03-01T18:52:10.876004,1720399,1408,1822,-510,-1352,-600,-370,-45,127,-237
26119,7013,0,2023-03-01T18:52:10.881876,1720406,1408,1822,-510,-1352,-600,-370,-45,127,-237
26120,7014,0,2023-03-01T18:52:10.887435,1720411,1408,1822,-510,-1352,-600,-370,-45,127,-237
26121,7015,0,2023-03-01T18:52:10.892886,1720417,1407,1817,-517,-1317,-672,-324,-45,127,-237
26122,7016,0,2023-03-01T18:52:10.898828,1720423,1407,1817,-517,-1317,-672,-324,-45,127,-237
26123,7017,0,2023-03-01T18:52:10.903972,1720428,1407,1817,-517,-1317,-672,-324,-45,127,-237
26124,7018,0,2023-03-01T18:52:10.909042,1720432,1407,1817,-517,-1317,-672,-324,-45,127,-237
26125,7019,0,2023-03-01T18:52:10.913943,1720437,1403,1807,-528,-1208,-726,-308,-45,127,-237
26126,7020,0,2023-03-01T18:52:10.920189,1720443,1403,1807,-528,-1208,-726,-308,-45,127,-237
26127,7021,0,2023-03-01T18:52:10.924751,1720449,1403,1807,-528,-1208,-726,-308,-45,127,-237
26128,7022,0,2023-03-01T18:52:10.931032,1720454,1403,1807,-528,-1208,-726,-308,-45,127,-237
26129,7023,0,2023-03-01T18:52:10.936376,1720460,1425,1851,-518,-1371,-605,-389,-45,137,-239
26130,7024,0,2023-03-01T18:52:10.941876,1720465,1425,1851,-518,-1371,-605,-389,-45,137,-239
26131,7025,0,2023-03-01T18:52:10.946679,1720470,1425,1851,-518,-1371,-605,-389,-45,137,-239
26132,7026,0,2023-03-01T18:52:10.952761,1720476,1401,1804,-514,-1254,-711,-291,-45,137,-239
26133,7027,0,2023-03-01T18:52:10.957881,1720481,1401,1804,-514,-1254,-711,-291,-45,137,-239
26134,7028,0,2023-03-01T18:52:10.962637,1720486,1401,1804,-514,-1254,-711,-291,-45,137,-239
26135,7029,0,2023-03-01T18:52:10.967284,1720492,1401,1804,-514,-1254,-711,-291,-45,137,-239
26136,7030,0,2023-03-01T18:52:10.972383,1720496,1395,1787,-502,-1261,-672,-337,-45,137,-239
26137,7031,0,2023-03-01T18:52:10.978144,1720502,1395,1787,-502,-1261,-672,-337,-45,137,-239
26138,7032,0,2023-03-01T18:52:10.983434,1720507,1395,1787,-502,-1261,-672,-337,-45,137,-239
26139,7033,0,2023-03-01T18:52:10.988424,1720512,1395,1787,-502,-1261,-672,-337,-45,137,-239
26140,7034,0,2023-03-01T18:52:10.994115,1720518,1435,1859,-521,-1408,-573,-408,-45,137,-239
26141,7035,0,2023-03-01T18:52:11.000195,1720524,1435,1859,-521,-1408,-573,-408,-45,137,-239
26142,7036,0,2023-03-01T18:52:11.004963,1720528,1435,1859,-521,-1408,-573,-408,-45,137,-239
26143,7037,0,2023-03-01T18:52:11.009734,1720534,1435,1859,-521,-1408,-573,-408,-45,137,-239
26144,7038,0,2023-03-01T18:52:11.014380,1720538,1400,1805,-525,-1225,-723,-295,-45,137,-239
26145,7039,0,2023-03-01T18:52:11.020220,1720544,1400,1805,-525,-1225,-723,-295,-45,137,-239
26146,7040,0,2023-03-01T18:52:11.025045,1720549,1400,1805,-525,-1225,-723,-295,-45,137,-239
26147,7041,0,2023-03-01T18:52:11.029939,1720554,1400,1805,-525,-1225,-723,-295,-45,137,-239
26148,7042,0,2023-03-01T18:52:11.034755,1720558,1387,1788,-497,-1212,-686,-328,-45,137,-239
26149,7043,0,2023-03-01T18:52:11.038966,1720563,1387,1788,-497,-1212,-686,-328,-45,137,-239
26150,7044,0,2023-03-01T18:52:11.043547,1720567,1387,1788,-497,-1212,-686,-328,-45,137,-239
26151,7045,0,2023-03-01T18:52:11.048364,1720572,1387,1788,-497,-1212,-686,-328,-45,137,-239
26152,7046,0,2023-03-01T18:52:11.052894,1720577,1438,1858,-529,-1362,-610,-385,-45,137,-239
26153,7047,0,2023-03-01T18:52:11.058697,1720583,1438,1858,-529,-1362,-610,-385,-45,137,-239
26154,7048,0,2023-03-01T18:52:11.064109,1720588,1438,1858,-529,-1362,-610,-385,-45,137,-239
26155,7049,0,2023-03-01T18:52:11.070427,1720594,1438,1858,-529,-1362,-610,-385,-45,137,-239
26156,7050,0,2023-03-01T18:52:11.075385,1720599,1399,1807,-505,-1242,-709,-294,-49,149,-239
26157,7051,0,2023-03-01T18:52:11.081592,1720605,1399,1807,-505,-1242,-709,-294,-49,149,-239
26158,7052,0,2023-03-01T18:52:11.086526,1720610,1399,1807,-505,-1242,-709,-294,-49,149,-239
26159,7053,0,2023-03-01T18:52:11.092114,1720615,1413,1819,-520,-1312,-633,-372,-49,149,-239
26160,7054,0,2023-03-01T18:52:11.098099,1720622,1413,1819,-520,-1312,-633,-372,-49,149,-239
26161,7055,0,2023-03-01T18:52:11.103034,1720627,1413,1819,-520,-1312,-633,-372,-49,149,-239
26162,7056,0,2023-03-01T18:52:11.108103,1720632,1413,1819,-520,-1312,-633,-372,-49,149,-239
26163,7057,0,2023-03-01T18:52:11.113478,1720637,1413,1831,-495,-1282,-654,-343,-49,149,-239
26164,7058,0,2023-03-01T18:52:11.119159,1720643,1413,1831,-495,-1282,-654,-343,-49,149,-239
26165,7059,0,2023-03-01T18:52:11.123928,1720647,1413,1831,-495,-1282,-654,-343,-49,149,-239
26166,7060,0,2023-03-01T18:52:11.128678,1720652,1413,1831,-495,-1282,-654,-343,-49,149,-239
26167,7061,0,2023-03-01T18:52:11.133517,1720657,1396,1792,-528,-1266,-692,-318,-49,149,-239
26168,7062,0,2023-03-01T18:52:11.139647,1720664,1396,1792,-528,-1266,-692,-318,-49,149,-239
26169,7063,0,2023-03-01T18:52:11.144619,1720669,1396,1792,-528,-1266,-692,-318,-49,149,-239
26170,7064,0,2023-03-01T18:52:11.149461,1720673,1396,1792,-528,-1266,-692,-318,-49,149,-239
26171,7065,0,2023-03-01T18:52:11.154301,1720678,1422,1845,-492,-1321,-601,-379,-49,149,-239
26172,7066,0,2023-03-01T18:52:11.160562,1720684,1422,1845,-492,-1321,-601,-379,-49,149,-239
26173,7067,0,2023-03-01T18:52:11.165339,1720689,1422,1845,-492,-1321,-601,-379,-49,149,-239
26174,7068,0,2023-03-01T18:52:11.170415,1720693,1422,1845,-492,-1321,-601,-379,-49,149,-239
26175,7069,0,2023-03-01T18:52:11.175302,1720699,1393,1791,-523,-1231,-743,-272,-49,149,-239
26176,7070,0,2023-03-01T18:52:11.181160,1720705,1393,1791,-523,-1231,-743,-272,-49,149,-239
26177,7071,0,2023-03-01T18:52:11.186054,1720710,1393,1791,-523,-1231,-743,-272,-49,149,-239
26178,7072,0,2023-03-01T18:52:11.191432,1720715,1425,1854,-494,-1348,-590,-401,-43,141,-239
26179,7073,0,2023-03-01T18:52:11.197703,1720722,1425,1854,-494,-1348,-590,-401,-43,141,-239
26180,7074,0,2023-03-01T18:52:11.202529,1720726,1425,1854,-494,-1348,-590,-401,-43,141,-239
26181,7075,0,2023-03-01T18:52:11.207267,1720731,1425,1854,-494,-1348,-590,-401,-43,141,-239
26182,7076,0,2023-03-01T18:52:11.212079,1720735,1398,1801,-505,-1237,-725,-287,-43,141,-239
26183,7077,0,2023-03-01T18:52:11.218451,1720741,1398,1801,-505,-1237,-725,-287,-43,141,-239
26184,7078,0,2023-03-01T18:52:11.223285,1720747,1398,1801,-505,-1237,-725,-287,-43,141,-239
26185,7079,0,2023-03-01T18:52:11.228691,1720752,1398,1801,-505,-1237,-725,-287,-43,141,-239
26186,7080,0,2023-03-01T18:52:11.234593,1720758,1422,1840,-509,-1341,-615,-383,-43,141,-239
26187,7081,0,2023-03-01T18:52:11.240691,1720764,1422,1840,-509,-1341,-615,-383,-43,141,-239
26188,7082,0,2023-03-01T18:52:11.245288,1720769,1422,1840,-509,-1341,-615,-383,-43,141,-239
26189,7083,0,2023-03-01T18:52:11.250818,1720774,1422,1840,-509,-1341,-615,-383,-43,141,-239
26190,7084,0,2023-03-01T18:52:11.257028,1720780,1400,1816,-497,-1283,-694,-324,-43,141,-239
26191,7085,0,2023-03-01T18:52:11.262351,1720786,1400,1816,-497,-1283,-694,-324,-43,141,-239
26192,7086,0,2023-03-01T18:52:11.267916,1720791,1400,1816,-497,-1283,-694,-324,-43,141,-239
26193,7087,0,2023-03-01T18:52:11.272529,1720797,1415,1818,-524,-1270,-694,-326,-43,141,-239
26194,7088,0,2023-03-01T18:52:11.278572,1720802,1415,1818,-524,-1270,-694,-326,-43,141,-239
26195,7089,0,2023-03-01T18:52:11.284005,1720807,1415,1818,-524,-1270,-694,-326,-43,141,-239
26196,7090,0,2023-03-01T18:52:11.289807,1720813,1415,1818,-524,-1270,-694,-326,-43,141,-239
26197,7091,0,2023-03-01T18:52:11.294783,1720818,1399,1816,-478,-1282,-646,-347,-43,141,-239
26198,7092,0,2023-03-01T18:52:11.300912,1720824,1399,1816,-478,-1282,-646,-347,-43,141,-239
26199,7093,0,2023-03-01T18:52:11.306068,1720829,1399,1816,-478,-1282,-646,-347,-43,141,-239
26200,7094,0,2023-03-01T18:52:11.311938,1720836,1424,1831,-535,-1299,-687,-326,-45,131,-229
26201,7095,0,2023-03-01T18:52:11.318073,1720842,1424,1831,-535,-1299,-687,-326,-45,131,-229
26202,7096,0,2023-03-01T18:52:11.323004,1720847,1424,1831,-535,-1299,-687,-326,-45,131,-229
26203,7097,0,2023-03-01T18:52:11.328061,1720851,1424,1831,-535,-1299,-687,-326,-45,131,-229
26204,7098,0,2023-03-01T18:52:11.333596,1720856,1389,1794,-467,-1254,-643,-333,-45,131,-229
26205,7099,0,2023-03-01T18:52:11.340116,1720863,1389,1794,-467,-1254,-643,-333,-45,131,-229
26206,7100,0,2023-03-01T18:52:11.345070,1720868,1389,1794,-467,-1254,-643,-333,-45,131,-229
26207,7101,0,2023-03-01T18:52:11.350376,1720875,1389,1794,-467,-1254,-643,-333,-45,131,-229
26208,7102,0,2023-03-01T18:52:11.356086,1720880,1428,1848,-526,-1340,-643,-380,-45,131,-229
26209,7103,0,2023-03-01T18:52:11.361835,1720886,1428,1848,-526,-1340,-643,-380,-45,131,-229
26210,7104,0,2023-03-01T18:52:11.366961,1720890,1428,1848,-526,-1340,-643,-380,-45,131,-229
26211,7105,0,2023-03-01T18:52:11.372381,1720896,1401,1817,-484,-1253,-664,-323,-45,131,-229
26212,7106,0,2023-03-01T18:52:11.378440,1720902,1401,1817,-484,-1253,-664,-323,-45,131,-229
26213,7107,0,2023-03-01T18:52:11.383663,1720907,1401,1817,-484,-1253,-664,-323,-45,131,-229
26214,7108,0,2023-03-01T18:52:11.388220,1720912,1401,1817,-484,-1253,-664,-323,-45,131,-229
26215,7109,0,2023-03-01T18:52:11.393942,1720918,1399,1795,-518,-1285,-680,-331,-45,131,-229
26216,7110,0,2023-03-01T18:52:11.399227,1720923,1399,1795,-518,-1285,-680,-331,-45,131,-229
26217,7111,0,2023-03-01T18:52:11.404266,1720928,1399,1795,-518,-1285,-680,-331,-45,131,-229
26218,7112,0,2023-03-01T18:52:11.409543,1720933,1399,1795,-518,-1285,-680,-331,-45,131,-229
26219,7113,0,2023-03-01T18:52:11.414789,1720938,1421,1842,-487,-1320,-619,-373,-45,131,-229
26220,7114,0,2023-03-01T18:52:11.420923,1720944,1421,1842,-487,-1320,-619,-373,-45,131,-229
26221,7115,0,2023-03-01T18:52:11.426111,1720949,1421,1842,-487,-1320,-619,-373,-45,131,-229
26222,7116,0,2023-03-01T18:52:11.430849,1720954,1421,1842,-487,-1320,-619,-373,-45,131,-229
26223,7117,0,2023-03-01T18:52:11.436418,1720961,1399,1810,-512,-1206,-749,-285,-45,131,-229
26224,7118,0,2023-03-01T18:52:11.441795,1720966,1399,1810,-512,-1206,-749,-285,-45,131,-229
26225,7119,0,2023-03-01T18:52:11.446743,1720970,1399,1810,-512,-1206,-749,-285,-45,131,-229
26226,7120,0,2023-03-01T18:52:11.451729,1720975,1423,1841,-495,-1367,-564,-394,-43,131,-229
26227,7121,0,2023-03-01T18:52:11.457963,1720982,1423,1841,-495,-1367,-564,-394,-43,141,-229
26228,7122,0,2023-03-01T18:52:11.462777,1720986,1423,1841,-495,-1367,-564,-394,-43,141,-229
26229,7123,0,2023-03-01T18:52:11.467516,1720991,1423,1841,-495,-1367,-564,-394,-43,141,-229
26230,7124,0,2023-03-01T18:52:11.473212,1720996,1403,1807,-488,-1276,-662,-303,-43,141,-229
26231,7125,0,2023-03-01T18:52:11.479615,1721004,1403,1807,-488,-1276,-662,-303,-43,141,-229
26232,7126,0,2023-03-01T18:52:11.484155,1721008,1403,1807,-488,-1276,-662,-303,-43,141,-229
26233,7127,0,2023-03-01T18:52:11.489192,1721013,1403,1807,-488,-1276,-662,-303,-43,141,-229
26234,7128,0,2023-03-01T18:52:11.493823,1721018,1403,1825,-504,-1174,-717,-309,-43,141,-229
26235,7129,0,2023-03-01T18:52:11.499479,1721023,1403,1825,-504,-1174,-717,-309,-43,141,-229
26236,7130,0,2023-03-01T18:52:11.504383,1721028,1403,1825,-504,-1174,-717,-309,-43,141,-229
26237,7131,0,2023-03-01T18:52:11.511714,1721035,1421,1844,-501,-1353,-592,-381,-43,141,-229
26238,7132,0,2023-03-01T18:52:11.517995,1721041,1421,1844,-501,-1353,-592,-381,-43,141,-229
26239,7133,0,2023-03-01T18:52:11.523227,1721047,1421,1844,-501,-1353,-592,-381,-43,141,-229
26240,7134,0,2023-03-01T18:52:11.528380,1721052,1421,1844,-501,-1353,-592,-381,-43,141,-229
26241,7135,0,2023-03-01T18:52:11.533828,1721058,1396,1800,-488,-1261,-662,-310,-43,141,-229
26242,7136,0,2023-03-01T18:52:11.539897,1721064,1396,1800,-488,-1261,-662,-310,-43,141,-229
26243,7137,0,2023-03-01T18:52:11.544832,1721068,1396,1800,-488,-1261,-662,-310,-43,141,-229
26244,7138,0,2023-03-01T18:52:11.550577,1721074,1396,1800,-488,-1261,-662,-310,-43,141,-229
26245,7139,0,2023-03-01T18:52:11.556094,1721079,1397,1810,-499,-1220,-685,-337,-43,141,-229
26246,7140,0,2023-03-01T18:52:11.561825,1721085,1397,1810,-499,-1220,-685,-337,-43,141,-229
26247,7141,0,2023-03-01T18:52:11.567003,1721091,1397,1810,-499,-1220,-685,-337,-43,141,-229
26248,7142,0,2023-03-01T18:52:11.571653,1721096,1423,1853,-490,-1343,-594,-380,-46,138,-238
26249,7143,0,2023-03-01T18:52:11.577535,1721102,1423,1853,-490,-1343,-594,-380,-46,138,-238
26250,7144,0,2023-03-01T18:52:11.582379,1721106,1423,1853,-490,-1343,-594,-380,-46,138,-238
26251,7145,0,2023-03-01T18:52:11.587244,1721111,1423,1853,-490,-1343,-594,-380,-46,138,-238
26252,7146,0,2023-03-01T18:52:11.592292,1721116,1402,1812,-489,-1230,-708,-294,-46,138,-238
26253,7147,0,2023-03-01T18:52:11.597998,1721121,1402,1812,-489,-1230,-708,-294,-46,138,-238
26254,7148,0,2023-03-01T18:52:11.602626,1721126,1402,1812,-489,-1230,-708,-294,-46,138,-238
26255,7149,0,2023-03-01T18:52:11.607675,1721132,1402,1812,-489,-1230,-708,-294,-46,138,-238
26256,7150,0,2023-03-01T18:52:11.612604,1721137,1414,1830,-497,-1294,-620,-365,-46,138,-238
26257,7151,0,2023-03-01T18:52:11.618675,1721142,1414,1830,-497,-1294,-620,-365,-46,138,-238
26258,7152,0,2023-03-01T18:52:11.623653,1721148,1414,1830,-497,-1294,-620,-365,-46,138,-238
26259,7153,0,2023-03-01T18:52:11.628247,1721152,1414,1830,-497,-1294,-620,-365,-46,138,-238
26260,7154,0,2023-03-01T18:52:11.635047,1721158,1405,1830,-482,-1261,-660,-328,-46,138,-238
26261,7155,0,2023-03-01T18:52:11.641093,1721165,1405,1830,-482,-1261,-660,-328,-46,138,-238
26262,7156,0,2023-03-01T18:52:11.645950,1721169,1405,1830,-482,-1261,-660,-328,-46,138,-238
26263,7157,0,2023-03-01T18:52:11.651046,1721175,1405,1830,-482,-1261,-660,-328,-46,138,-238
26264,7158,0,2023-03-01T18:52:11.656450,1721181,1395,1794,-505,-1262,-676,-321,-46,138,-238
26265,7159,0,2023-03-01T18:52:11.662142,1721186,1395,1794,-505,-1262,-676,-321,-46,138,-238
26266,7160,0,2023-03-01T18:52:11.667296,1721191,1395,1794,-505,-1262,-676,-321,-46,138,-238
26267,7161,0,2023-03-01T18:52:11.672571,1721196,1416,1849,-467,-1334,-590,-391,-46,138,-238
26268,7162,0,2023-03-01T18:52:11.679304,1721202,1416,1849,-467,-1334,-590,-391,-46,138,-238
26269,7163,0,2023-03-01T18:52:11.684249,1721208,1416,1849,-467,-1334,-590,-391,-46,138,-238
26270,7164,0,2023-03-01T18:52:11.689815,1721213,1416,1849,-467,-1334,-590,-391,-46,138,-238
26271,7165,0,2023-03-01T18:52:11.695124,1721219,1403,1808,-504,-1201,-744,-276,-46,138,-238
26272,7166,0,2023-03-01T18:52:11.701531,1721225,1403,1808,-504,-1201,-744,-276,-46,138,-238
26273,7167,0,2023-03-01T18:52:11.706315,1721230,1403,1808,-504,-1201,-744,-276,-46,138,-238
26274,7168,0,2023-03-01T18:52:11.711240,1721235,1403,1808,-504,-1201,-744,-276,-46,138,-238
26275,7169,0,2023-03-01T18:52:11.716760,1721240,1420,1847,-478,-1338,-570,-398,-45,133,-233
26276,7170,0,2023-03-01T18:52:11.722676,1721246,1420,1847,-478,-1338,-570,-398,-45,133,-233
26277,7171,0,2023-03-01T18:52:11.728122,1721251,1420,1847,-478,-1338,-570,-398,-45,133,-233
26278,7172,0,2023-03-01T18:52:11.733982,1721257,1400,1817,-488,-1258,-699,-308,-45,133,-233
26279,7173,0,2023-03-01T18:52:11.740070,1721264,1400,1817,-488,-1258,-699,-308,-45,133,-233
26280,7174,0,2023-03-01T18:52:11.744859,1721269,1400,1817,-488,-1258,-699,-308,-45,133,-233
26281,7175,0,2023-03-01T18:52:11.749609,1721273,1400,1817,-488,-1258,-699,-308,-45,133,-233
26282,7176,0,2023-03-01T18:52:11.755374,1721279,1396,1799,-492,-1264,-675,-335,-45,133,-233
26283,7177,0,2023-03-01T18:52:11.762160,1721286,1396,1799,-492,-1264,-675,-335,-45,133,-233
26284,7178,0,2023-03-01T18:52:11.767045,1721290,1396,1799,-492,-1264,-675,-335,-45,133,-233
26285,7179,0,2023-03-01T18:52:11.771646,1721295,1418,1844,-475,-1323,-624,-390,-45,133,-233
26286,7180,0,2023-03-01T18:52:11.778315,1721303,1418,1844,-475,-1323,-624,-390,-45,133,-233
26287,7181,0,2023-03-01T18:52:11.782971,1721307,1418,1844,-475,-1323,-624,-390,-45,133,-233
26288,7182,0,2023-03-01T18:52:11.787695,1721312,1418,1844,-475,-1323,-624,-390,-45,133,-233
26289,7183,0,2023-03-01T18:52:11.792324,1721316,1400,1809,-508,-1203,-741,-279,-45,133,-233
26290,7184,0,2023-03-01T18:52:11.798572,1721322,1400,1809,-508,-1203,-741,-279,-45,133,-233
26291,7185,0,2023-03-01T18:52:11.803282,1721327,1400,1809,-508,-1203,-741,-279,-45,133,-233
26292,7186,0,2023-03-01T18:52:11.808436,1721332,1400,1809,-508,-1203,-741,-279,-45,133,-233
26293,7187,0,2023-03-01T18:52:11.814223,1721338,1422,1844,-482,-1356,-578,-397,-45,133,-233
26294,7188,0,2023-03-01T18:52:11.819921,1721344,1422,1844,-482,-1356,-578,-397,-45,133,-233
26295,7189,0,2023-03-01T18:52:11.825026,1721349,1422,1844,-482,-1356,-578,-397,-45,133,-233
26296,7190,0,2023-03-01T18:52:11.829922,1721354,1422,1844,-482,-1356,-578,-397,-45,133,-233
26297,7191,0,2023-03-01T18:52:11.834917,1721359,1395,1806,-481,-1256,-690,-298,-41,133,-231
26298,7192,0,2023-03-01T18:52:11.840657,1721365,1395,1806,-481,-1256,-690,-298,-41,133,-231
26299,7193,0,2023-03-01T18:52:11.845488,1721369,1395,1806,-481,-1256,-690,-298,-41,133,-231
26300,7194,0,2023-03-01T18:52:11.851224,1721375,1395,1806,-481,-1256,-690,-298,-41,133,-231
26301,7195,0,2023-03-01T18:52:11.857307,1721381,1397,1802,-477,-1218,-693,-320,-41,133,-231
26302,7196,0,2023-03-01T18:52:11.862869,1721387,1397,1802,-477,-1218,-693,-320,-41,133,-231
26303,7197,0,2023-03-01T18:52:11.867594,1721392,1397,1802,-477,-1218,-693,-320,-41,133,-231
26304,7198,0,2023-03-01T18:52:11.872582,1721396,1427,1861,-490,-1373,-596,-396,-41,133,-231
26305,7199,0,2023-03-01T18:52:11.878548,1721402,1427,1861,-490,-1373,-596,-396,-41,133,-231
26306,7200,0,2023-03-01T18:52:11.883434,1721407,1427,1861,-490,-1373,-596,-396,-41,133,-231
26307,7201,0,2023-03-01T18:52:11.888562,1721412,1427,1861,-490,-1373,-596,-396,-41,133,-231
26308,7202,0,2023-03-01T18:52:11.894122,1721417,1395,1806,-482,-1229,-713,-279,-41,133,-231
26309,7203,0,2023-03-01T18:52:11.900196,1721424,1395,1806,-482,-1229,-713,-279,-41,133,-231
26310,7204,0,2023-03-01T18:52:11.905295,1721428,1395,1806,-482,-1229,-713,-279,-41,133,-231
26311,7205,0,2023-03-01T18:52:11.910868,1721435,1395,1806,-482,-1229,-713,-279,-41,133,-231
26312,7206,0,2023-03-01T18:52:11.916371,1721440,1389,1799,-478,-1279,-657,-350,-41,133,-231
26313,7207,0,2023-03-01T18:52:11.922004,1721446,1389,1799,-478,-1279,-657,-350,-41,133,-231
26314,7208,0,2023-03-01T18:52:11.926624,1721450,1389,1799,-478,-1279,-657,-350,-41,133,-231
26315,7209,0,2023-03-01T18:52:11.931566,1721455,1389,1799,-478,-1279,-657,-350,-41,133,-231
26316,7210,0,2023-03-01T18:52:11.937212,1721461,1422,1851,-483,-1348,-616,-376,-41,133,-231
26317,7211,0,2023-03-01T18:52:11.943123,1721466,1422,1851,-483,-1348,-616,-376,-41,133,-231
26318,7212,0,2023-03-01T18:52:11.948365,1721472,1422,1851,-483,-1348,-616,-376,-41,133,-231
26319,7213,0,2023-03-01T18:52:11.953920,1721478,1403,1828,-488,-1201,-737,-296,-54,130,-226
26320,7214,0,2023-03-01T18:52:11.959697,1721483,1403,1828,-488,-1201,-737,-296,-54,130,-226
26321,7215,0,2023-03-01T18:52:11.964840,1721488,1403,1828,-488,-1201,-737,-296,-54,130,-226
26322,7216,0,2023-03-01T18:52:11.969696,1721493,1403,1828,-488,-1201,-737,-296,-54,130,-226
26323,7217,0,2023-03-01T18:52:11.974508,1721498,1397,1816,-469,-1326,-618,-369,-54,130,-226
26324,7218,0,2023-03-01T18:52:11.980488,1721504,1397,1816,-469,-1326,-618,-369,-54,130,-226
26325,7219,0,2023-03-01T18:52:11.985540,1721509,1397,1816,-469,-1326,-618,-369,-54,130,-226
26326,7220,0,2023-03-01T18:52:11.991068,1721515,1397,1816,-469,-1326,-618,-369,-54,130,-226
26327,7221,0,2023-03-01T18:52:11.996396,1721521,1409,1829,-470,-1314,-652,-339,-54,130,-226
26328,7222,0,2023-03-01T18:52:12.003035,1721527,1409,1829,-470,-1314,-652,-339,-54,130,-226
26329,7223,0,2023-03-01T18:52:12.008008,1721532,1409,1829,-470,-1314,-652,-339,-54,130,-226
26330,7224,0,2023-03-01T18:52:12.012828,1721536,1400,1820,-483,-1198,-728,-297,-54,130,-226
26331,7225,0,2023-03-01T18:52:12.017518,1721541,1400,1820,-483,-1198,-728,-297,-54,130,-226
26332,7226,0,2023-03-01T18:52:12.022422,1721546,1400,1820,-483,-1198,-728,-297,-54,130,-226
26333,7227,0,2023-03-01T18:52:12.027210,1721551,1400,1820,-483,-1198,-728,-297,-54,130,-226
26334,7228,0,2023-03-01T18:52:12.032758,1721556,1420,1849,-470,-1367,-583,-398,-54,130,-226
26335,7229,0,2023-03-01T18:52:12.038532,1721563,1420,1849,-470,-1367,-583,-398,-54,130,-226
26336,7230,0,2023-03-01T18:52:12.043461,1721567,1420,1849,-470,-1367,-583,-398,-54,130,-226
26337,7231,0,2023-03-01T18:52:12.048269,1721572,1420,1849,-470,-1367,-583,-398,-54,130,-226
26338,7232,0,2023-03-01T18:52:12.054016,1721578,1392,1803,-472,-1259,-688,-305,-54,130,-226
26339,7233,0,2023-03-01T18:52:12.060191,1721584,1392,1803,-472,-1259,-688,-305,-54,130,-226
26340,7234,0,2023-03-01T18:52:12.064886,1721588,1392,1803,-472,-1259,-688,-305,-54,130,-226
26341,7235,0,2023-03-01T18:52:12.070153,1721593,1392,1803,-472,-1259,-688,-305,-54,130,-226
26342,7236,0,2023-03-01T18:52:12.075057,1721598,1391,1801,-473,-1226,-695,-330,-54,130,-226
26343,7237,0,2023-03-01T18:52:12.081395,1721605,1391,1801,-473,-1226,-695,-330,-54,130,-226
26344,7238,0,2023-03-01T18:52:12.086268,1721610,1391,1801,-473,-1226,-695,-330,-54,130,-226
26345,7239,0,2023-03-01T18:52:12.090948,1721615,1391,1801,-473,-1226,-695,-330,-54,130,-226
26346,7240,0,2023-03-01T18:52:12.096294,1721620,1424,1859,-471,-1361,-596,-390,-42,140,-230
26347,7241,0,2023-03-01T18:52:12.101827,1721625,1424,1859,-471,-1361,-596,-390,-42,140,-230
26348,7242,0,2023-03-01T18:52:12.106880,1721630,1424,1859,-471,-1361,-596,-390,-42,140,-230
26349,7243,0,2023-03-01T18:52:12.112307,1721636,1394,1815,-474,-1220,-723,-288,-42,140,-230
26350,7244,0,2023-03-01T18:52:12.118494,1721643,1394,1815,-474,-1220,-723,-288,-42,140,-230
26351,7245,0,2023-03-01T18:52:12.123277,1721647,1394,1815,-474,-1220,-723,-288,-42,140,-230
26352,7246,0,2023-03-01T18:52:12.128439,1721652,1394,1815,-474,-1220,-723,-288,-42,140,-230
26353,7247,0,2023-03-01T18:52:12.134363,1721658,1405,1826,-470,-1271,-632,-368,-42,140,-230
26354,7248,0,2023-03-01T18:52:12.140308,1721664,1405,1826,-470,-1271,-632,-368,-42,140,-230
26355,7249,0,2023-03-01T18:52:12.145411,1721669,1405,1826,-470,-1271,-632,-368,-42,140,-230
26356,7250,0,2023-03-01T18:52:12.151249,1721674,1405,1826,-470,-1271,-632,-368,-42,140,-230
26357,7251,0,2023-03-01T18:52:12.156730,1721680,1400,1832,-466,-1264,-662,-332,-42,140,-230
26358,7252,0,2023-03-01T18:52:12.161906,1721686,1400,1832,-466,-1264,-662,-332,-42,140,-230
26359,7253,0,2023-03-01T18:52:12.166386,1721691,1400,1832,-466,-1264,-662,-332,-42,140,-230
26360,7254,0,2023-03-01T18:52:12.171764,1721695,1400,1832,-466,-1264,-662,-332,-42,140,-230
26361,7255,0,2023-03-01T18:52:12.177645,1721701,1408,1826,-493,-1276,-662,-341,-42,140,-230
26362,7256,0,2023-03-01T18:52:12.183175,1721707,1408,1826,-493,-1276,-662,-341,-42,140,-230
26363,7257,0,2023-03-01T18:52:12.188074,1721711,1408,1826,-493,-1276,-662,-341,-42,140,-230
26364,7258,0,2023-03-01T18:52:12.194018,1721717,1402,1834,-453,-1259,-641,-339,-42,140,-230
26365,7259,0,2023-03-01T18:52:12.200363,1721723,1402,1834,-453,-1259,-641,-339,-42,140,-230
26366,7260,0,2023-03-01T18:52:12.204953,1721729,1402,1834,-453,-1259,-641,-339,-42,140,-230
26367,7261,0,2023-03-01T18:52:12.210520,1721734,1402,1834,-453,-1259,-641,-339,-42,140,-230
26368,7262,0,2023-03-01T18:52:12.216156,1721740,1403,1819,-491,-1295,-654,-323,-51,143,-225
26369,7263,0,2023-03-01T18:52:12.222897,1721746,1403,1819,-491,-1295,-654,-323,-51,143,-225
26370,7264,0,2023-03-01T18:52:12.228091,1721752,1403,1819,-491,-1295,-654,-323,-51,143,-225
26371,7265,0,2023-03-01T18:52:12.233546,1721757,1400,1832,-441,-1302,-607,-369,-51,143,-225
26372,7266,0,2023-03-01T18:52:12.239167,1721762,1400,1832,-441,-1302,-607,-369,-51,143,-225
26373,7267,0,2023-03-01T18:52:12.244144,1721767,1400,1832,-441,-1302,-607,-369,-51,143,-225
26374,7268,0,2023-03-01T18:52:12.249064,1721773,1400,1832,-441,-1302,-607,-369,-51,143,-225
26375,7269,0,2023-03-01T18:52:12.254128,1721778,1393,1809,-485,-1206,-733,-297,-51,143,-225
26376,7270,0,2023-03-01T18:52:12.260308,1721784,1393,1809,-485,-1206,-733,-297,-51,143,-225
26377,7271,0,2023-03-01T18:52:12.265230,1721789,1393,1809,-485,-1206,-733,-297,-51,143,-225
26378,7272,0,2023-03-01T18:52:12.270226,1721794,1393,1809,-485,-1206,-733,-297,-51,143,-225
26379,7273,0,2023-03-01T18:52:12.275604,1721799,1421,1860,-450,-1331,-578,-400,-51,143,-225
26380,7274,0,2023-03-01T18:52:12.281658,1721805,1421,1860,-450,-1331,-578,-400,-51,143,-225
26381,7275,0,2023-03-01T18:52:12.286474,1721810,1421,1860,-450,-1331,-578,-400,-51,143,-225
26382,7276,0,2023-03-01T18:52:12.291497,1721815,1421,1860,-450,-1331,-578,-400,-51,143,-225
26383,7277,0,2023-03-01T18:52:12.297128,1721821,1393,1813,-478,-1231,-731,-299,-51,143,-225
26384,7278,0,2023-03-01T18:52:12.302844,1721827,1393,1813,-478,-1231,-731,-299,-51,143,-225
26385,7279,0,2023-03-01T18:52:12.307982,1721832,1393,1813,-478,-1231,-731,-299,-51,143,-225
26386,7280,0,2023-03-01T18:52:12.312829,1721836,1402,1821,-458,-1318,-604,-356,-51,143,-225
26387,7281,0,2023-03-01T18:52:12.318949,1721842,1402,1821,-458,-1318,-604,-356,-51,143,-225
26388,7282,0,2023-03-01T18:52:12.323579,1721847,1402,1821,-458,-1318,-604,-356,-51,143,-225
26389,7283,0,2023-03-01T18:52:12.328489,1721852,1402,1821,-458,-1318,-604,-356,-51,143,-225
26390,7284,0,2023-03-01T18:52:12.333620,1721858,1404,1829,-451,-1308,-629,-367,-51,143,-225
26391,7285,0,2023-03-01T18:52:12.339686,1721864,1404,1829,-451,-1308,-629,-367,-51,143,-225
26392,7286,0,2023-03-01T18:52:12.344316,1721868,1404,1829,-451,-1308,-629,-367,-51,143,-225
26393,7287,0,2023-03-01T18:52:12.349150,1721873,1404,1829,-451,-1308,-629,-367,-51,143,-225
26394,7288,0,2023-03-01T18:52:12.355447,1721879,1407,1835,-473,-1182,-735,-301,-41,141,-231
26395,7289,0,2023-03-01T18:52:12.361547,1721885,1407,1835,-473,-1182,-735,-301,-41,141,-231
26396,7290,0,2023-03-01T18:52:12.366447,1721890,1407,1835,-473,-1182,-735,-301,-41,141,-231
26397,7291,0,2023-03-01T18:52:12.371979,1721895,1407,1835,-473,-1182,-735,-301,-41,141,-231
26398,7292,0,2023-03-01T18:52:12.377580,1721902,1404,1825,-461,-1374,-563,-386,-41,141,-231
26399,7293,0,2023-03-01T18:52:12.383149,1721907,1404,1825,-461,-1374,-563,-386,-41,141,-231
26400,7294,0,2023-03-01T18:52:12.387973,1721912,1404,1825,-461,-1374,-563,-386,-41,141,-231
26401,7295,0,2023-03-01T18:52:12.394527,1721918,1399,1822,-455,-1343,-624,-341,-41,141,-231
26402,7296,0,2023-03-01T18:52:12.400984,1721924,1399,1822,-455,-1343,-624,-341,-41,141,-231
26403,7297,0,2023-03-01T18:52:12.406203,1721929,1399,1822,-455,-1343,-624,-341,-41,141,-231
26404,7298,0,2023-03-01T18:52:12.411828,1721935,1399,1822,-455,-1343,-624,-341,-41,141,-231
26405,7299,0,2023-03-01T18:52:12.417455,1721942,1416,1843,-481,-1176,-719,-332,-41,141,-231
26406,7300,0,2023-03-01T18:52:12.422894,1721947,1416,1843,-481,-1176,-719,-332,-41,141,-231
26407,7301,0,2023-03-01T18:52:12.428155,1721952,1416,1843,-481,-1176,-719,-332,-41,141,-231
26408,7302,0,2023-03-01T18:52:12.433575,1721957,1377,1795,-441,-1195,-693,-316,-41,141,-231
26409,7303,0,2023-03-01T18:52:12.439656,1721963,1377,1795,-441,-1195,-693,-316,-41,141,-231
26410,7304,0,2023-03-01T18:52:12.444366,1721968,1377,1795,-441,-1195,-693,-316,-41,141,-231
26411,7305,0,2023-03-01T18:52:12.449442,1721973,1377,1795,-441,-1195,-693,-316,-41,141,-231
26412,7306,0,2023-03-01T18:52:12.454434,1721978,1421,1861,-468,-1339,-627,-379,-41,141,-231
26413,7307,0,2023-03-01T18:52:12.461028,1721985,1421,1861,-468,-1339,-627,-379,-41,141,-231
26414,7308,0,2023-03-01T18:52:12.465905,1721990,1421,1861,-468,-1339,-627,-379,-41,141,-231
26415,7309,0,2023-03-01T18:52:12.470735,1721995,1421,1861,-468,-1339,-627,-379,-41,141,-231
26416,7310,0,2023-03-01T18:52:12.476056,1722000,1390,1814,-453,-1215,-707,-306,-42,128,-224
26417,7311,0,2023-03-01T18:52:12.481621,1722005,1390,1814,-453,-1215,-707,-306,-42,128,-224
26418,7312,0,2023-03-01T18:52:12.486724,1722010,1390,1814,-453,-1215,-707,-306,-42,128,-224
26419,7313,0,2023-03-01T18:52:12.492262,1722016,1390,1814,-453,-1215,-707,-306,-42,128,-224
26420,7314,0,2023-03-01T18:52:12.497921,1722021,1408,1834,-464,-1277,-649,-362,-42,128,-224
26421,7315,0,2023-03-01T18:52:12.504389,1722028,1408,1834,-464,-1277,-649,-362,-42,128,-224
26422,7316,0,2023-03-01T18:52:12.509137,1722033,1408,1834,-464,-1277,-649,-362,-42,128,-224
26423,7317,0,2023-03-01T18:52:12.514116,1722038,1388,1800,-444,-1261,-676,-322,-42,128,-224
26424,7318,0,2023-03-01T18:52:12.520078,1722044,1388,1800,-444,-1261,-676,-322,-42,128,-224
26425,7319,0,2023-03-01T18:52:12.524778,1722049,1388,1800,-444,-1261,-676,-322,-42,128,-224
26426,7320,0,2023-03-01T18:52:12.530258,1722054,1388,1800,-444,-1261,-676,-322,-42,128,-224
26427,7321,0,2023-03-01T18:52:12.534986,1722058,1420,1853,-470,-1304,-643,-383,-42,128,-224
26428,7322,0,2023-03-01T18:52:12.540728,1722064,1420,1853,-470,-1304,-643,-383,-42,128,-224
26429,7323,0,2023-03-01T18:52:12.545079,1722068,1420,1853,-470,-1304,-643,-383,-42,128,-224
26430,7324,0,2023-03-01T18:52:12.550892,1722075,1420,1853,-470,-1304,-643,-383,-42,128,-224
26431,7325,0,2023-03-01T18:52:12.556396,1722080,1384,1804,-440,-1253,-681,-318,-42,128,-224
26432,7326,0,2023-03-01T18:52:12.561981,1722086,1384,1804,-440,-1253,-681,-318,-42,128,-224
26433,7327,0,2023-03-01T18:52:12.567094,1722091,1384,1804,-440,-1253,-681,-318,-42,128,-224
26434,7328,0,2023-03-01T18:52:12.573970,1722097,1414,1844,-465,-1287,-657,-350,-42,128,-224
26435,7329,0,2023-03-01T18:52:12.579861,1722103,1414,1844,-465,-1287,-657,-350,-42,128,-224
26436,7330,0,2023-03-01T18:52:12.584422,1722108,1414,1844,-465,-1287,-657,-350,-42,128,-224
26437,7331,0,2023-03-01T18:52:12.589176,1722113,1414,1844,-465,-1287,-657,-350,-42,128,-224
26438,7332,0,2023-03-01T18:52:12.593988,1722118,1396,1819,-459,-1277,-655,-336,-42,128,-224
26439,7333,0,2023-03-01T18:52:12.600165,1722124,1396,1819,-459,-1277,-655,-336,-42,128,-224
26440,7334,0,2023-03-01T18:52:12.605278,1722129,1396,1819,-459,-1277,-655,-336,-42,128,-224
26441,7335,0,2023-03-01T18:52:12.611824,1722135,1396,1819,-459,-1277,-655,-336,-42,128,-224
26442,7336,0,2023-03-01T18:52:12.618089,1722141,1395,1821,-443,-1262,-663,-335,-48,148,-222
26443,7337,0,2023-03-01T18:52:12.623867,1722147,1395,1821,-443,-1262,-663,-335,-48,148,-222
26444,7338,0,2023-03-01T18:52:12.629583,1722152,1395,1821,-443,-1262,-663,-335,-48,148,-222
26445,7339,0,2023-03-01T18:52:12.635538,1722159,1420,1849,-467,-1294,-649,-366,-48,148,-222
26446,7340,0,2023-03-01T18:52:12.641457,1722166,1420,1849,-467,-1294,-649,-366,-48,148,-222
26447,7341,0,2023-03-01T18:52:12.646005,1722170,1420,1849,-467,-1294,-649,-366,-48,148,-222
26448,7342,0,2023-03-01T18:52:12.651638,1722175,1420,1849,-467,-1294,-649,-366,-48,148,-222
26449,7343,0,2023-03-01T18:52:12.657087,1722181,1382,1803,-435,-1241,-659,-315,-48,148,-222
26450,7344,0,2023-03-01T18:52:12.662493,1722186,1382,1803,-435,-1241,-659,-315,-48,148,-222
26451,7345,0,2023-03-01T18:52:12.667115,1722191,1382,1803,-435,-1241,-659,-315,-48,148,-222
26452,7346,0,2023-03-01T18:52:12.671968,1722195,1382,1803,-435,-1241,-659,-315,-48,148,-222
26453,7347,0,2023-03-01T18:52:12.677458,1722201,1421,1858,-469,-1299,-651,-384,-48,148,-222
26454,7348,0,2023-03-01T18:52:12.682868,1722207,1421,1858,-469,-1299,-651,-384,-48,148,-222
26455,7349,0,2023-03-01T18:52:12.687524,1722212,1421,1858,-469,-1299,-651,-384,-48,148,-222
26456,7350,0,2023-03-01T18:52:12.692474,1722216,1421,1858,-469,-1299,-651,-384,-48,148,-222
26457,7351,0,2023-03-01T18:52:12.698470,1722222,1382,1802,-428,-1253,-677,-312,-48,148,-222
26458,7352,0,2023-03-01T18:52:12.704803,1722228,1382,1802,-428,-1253,-677,-312,-48,148,-222
26459,7353,0,2023-03-01T18:52:12.709978,1722233,1382,1802,-428,-1253,-677,-312,-48,148,-222
26460,7354,0,2023-03-01T18:52:12.715875,1722240,1419,1849,-473,-1301,-649,-373,-48,148,-222
26461,7355,0,2023-03-01T18:52:12.722875,1722247,1419,1849,-473,-1301,-649,-373,-48,148,-222
26462,7356,0,2023-03-01T18:52:12.727808,1722252,1419,1849,-473,-1301,-649,-373,-48,148,-222
26463,7357,0,2023-03-01T18:52:12.733525,1722257,1383,1801,-426,-1240,-666,-322,-44,130,-228
26464,7358,0,2023-03-01T18:52:12.739950,1722264,1383,1801,-426,-1240,-666,-322,-44,130,-228
26465,7359,0,2023-03-01T18:52:12.745022,1722268,1383,1801,-426,-1240,-666,-322,-44,130,-228
26466,7360,0,2023-03-01T18:52:12.749964,1722273,1383,1801,-426,-1240,-666,-322,-44,130,-228
26467,7361,0,2023-03-01T18:52:12.756778,1722280,1416,1846,-465,-1281,-670,-362,-44,130,-228
26468,7362,0,2023-03-01T18:52:12.762974,1722287,1416,1846,-465,-1281,-670,-362,-44,130,-228
26469,7363,0,2023-03-01T18:52:12.768231,1722292,1416,1846,-465,-1281,-670,-362,-44,130,-228
26470,7364,0,2023-03-01T18:52:12.773036,1722297,1390,1808,-434,-1262,-671,-335,-44,130,-228
26471,7365,0,2023-03-01T18:52:12.778934,1722303,1390,1808,-434,-1262,-671,-335,-44,130,-228
26472,7366,0,2023-03-01T18:52:12.784036,1722308,1390,1808,-434,-1262,-671,-335,-44,130,-228
26473,7367,0,2023-03-01T18:52:12.789026,1722312,1390,1808,-434,-1262,-671,-335,-44,130,-228
26474,7368,0,2023-03-01T18:52:12.795032,1722318,1402,1841,-449,-1263,-672,-350,-44,130,-228
26475,7369,0,2023-03-01T18:52:12.801554,1722326,1402,1841,-449,-1263,-672,-350,-44,130,-228
26476,7370,0,2023-03-01T18:52:12.806900,1722331,1402,1841,-449,-1263,-672,-350,-44,130,-228
26477,7371,0,2023-03-01T18:52:12.811669,1722336,1402,1841,-449,-1263,-672,-350,-44,130,-228
26478,7372,0,2023-03-01T18:52:12.816155,1722340,1402,1830,-442,-1276,-657,-347,-44,130,-228
26479,7373,0,2023-03-01T18:52:12.821448,1722345,1402,1830,-442,-1276,-657,-347,-44,130,-228
26480,7374,0,2023-03-01T18:52:12.826594,1722350,1402,1830,-442,-1276,-657,-347,-44,130,-228
26481,7375,0,2023-03-01T18:52:12.831340,1722355,1402,1830,-442,-1276,-657,-347,-44,130,-228
26482,7376,0,2023-03-01T18:52:12.837070,1722360,1393,1824,-442,-1256,-665,-330,-44,130,-228
26483,7377,0,2023-03-01T18:52:12.842306,1722366,1393,1824,-442,-1256,-665,-330,-44,130,-228
26484,7378,0,2023-03-01T18:52:12.847249,1722371,1393,1824,-442,-1256,-665,-330,-44,130,-228
26485,7379,0,2023-03-01T18:52:12.852975,1722377,1413,1834,-461,-1290,-661,-351,-44,130,-228
26486,7380,0,2023-03-01T18:52:12.858934,1722383,1413,1834,-461,-1290,-661,-351,-42,138,-220
26487,7381,0,2023-03-01T18:52:12.863993,1722388,1413,1834,-461,-1290,-661,-351,-42,138,-220
26488,7382,0,2023-03-01T18:52:12.868976,1722393,1413,1834,-461,-1290,-661,-351,-42,138,-220
26489,7383,0,2023-03-01T18:52:12.874733,1722398,1393,1819,-424,-1257,-660,-334,-42,138,-220
26490,7384,0,2023-03-01T18:52:12.880843,1722404,1393,1819,-424,-1257,-660,-334,-42,138,-220
26491,7385,0,2023-03-01T18:52:12.885428,1722409,1393,1819,-424,-1257,-660,-334,-42,138,-220
26492,7386,0,2023-03-01T18:52:12.890207,1722414,1393,1819,-424,-1257,-660,-334,-42,138,-220
26493,7387,0,2023-03-01T18:52:12.895046,1722419,1403,1826,-460,-1282,-684,-343,-42,138,-220
26494,7388,0,2023-03-01T18:52:12.900552,1722424,1403,1826,-460,-1282,-684,-343,-42,138,-220
26495,7389,0,2023-03-01T18:52:12.905697,1722430,1403,1826,-460,-1282,-684,-343,-42,138,-220
26496,7390,0,2023-03-01T18:52:12.910416,1722434,1403,1826,-460,-1282,-684,-343,-42,138,-220
26497,7391,0,2023-03-01T18:52:12.915264,1722439,1401,1842,-423,-1273,-639,-353,-42,138,-220
26498,7392,0,2023-03-01T18:52:12.920976,1722444,1401,1842,-423,-1273,-639,-353,-42,138,-220
26499,7393,0,2023-03-01T18:52:12.925796,1722449,1401,1842,-423,-1273,-639,-353,-42,138,-220
26500,7394,0,2023-03-01T18:52:12.931255,1722455,1401,1842,-423,-1273,-639,-353,-42,138,-220
26501,7395,0,2023-03-01T18:52:12.936499,1722461,1388,1802,-456,-1277,-696,-326,-42,138,-220
26502,7396,0,2023-03-01T18:52:12.941651,1722466,1388,1802,-456,-1277,-696,-326,-42,138,-220
26503,7397,0,2023-03-01T18:52:12.946532,1722471,1388,1802,-456,-1277,-696,-326,-42,138,-220
26504,7398,0,2023-03-01T18:52:12.951509,1722475,1388,1802,-456,-1277,-696,-326,-42,138,-220
26505,7399,0,2023-03-01T18:52:12.957059,1722481,1410,1844,-421,-1305,-612,-384,-42,138,-220
26506,7400,0,2023-03-01T18:52:12.962501,1722486,1410,1844,-421,-1305,-612,-384,-42,138,-220
26507,7401,0,2023-03-01T18:52:12.967396,1722491,1410,1844,-421,-1305,-612,-384,-42,138,-220
26508,7402,0,2023-03-01T18:52:12.972066,1722496,1410,1844,-421,-1305,-612,-384,-42,138,-220
26509,7403,0,2023-03-01T18:52:12.977697,1722502,1394,1814,-455,-1208,-746,-293,-42,138,-220
26510,7404,0,2023-03-01T18:52:12.983292,1722507,1394,1814,-455,-1208,-746,-293,-42,138,-220
26511,7405,0,2023-03-01T18:52:12.988236,1722512,1394,1814,-455,-1208,-746,-293,-42,138,-220
26512,7406,0,2023-03-01T18:52:12.992957,1722517,1394,1814,-455,-1208,-746,-293,-42,138,-220
26513,7407,0,2023-03-01T18:52:12.998272,1722522,1413,1850,-432,-1339,-598,-386,-49,143,-225
26514,7408,0,2023-03-01T18:52:13.004569,1722527,1413,1850,-432,-1339,-598,-386,-49,143,-225
26515,7409,0,2023-03-01T18:52:13.009941,1722533,1413,1850,-432,-1339,-598,-386,-49,143,-225
26516,7410,0,2023-03-01T18:52:13.014631,1722539,1390,1817,-434,-1267,-694,-320,-49,143,-225
26517,7411,0,2023-03-01T18:52:13.019964,1722544,1390,1817,-434,-1267,-694,-320,-49,143,-225
26518,7412,0,2023-03-01T18:52:13.024552,1722549,1390,1817,-434,-1267,-694,-320,-49,143,-225
26519,7413,0,2023-03-01T18:52:13.029481,1722554,1390,1817,-434,-1267,-694,-320,-49,143,-225
26520,7414,0,2023-03-01T18:52:13.034081,1722558,1389,1810,-437,-1231,-694,-327,-49,143,-225
26521,7415,0,2023-03-01T18:52:13.040172,1722564,1389,1810,-437,-1231,-694,-327,-49,143,-225
26522,7416,0,2023-03-01T18:52:13.044836,1722569,1389,1810,-437,-1231,-694,-327,-49,143,-225
26523,7417,0,2023-03-01T18:52:13.050137,1722573,1389,1810,-437,-1231,-694,-327,-49,143,-225
26524,7418,0,2023-03-01T18:52:13.057218,1722580,1415,1862,-432,-1332,-615,-389,-49,143,-225
26525,7419,0,2023-03-01T18:52:13.063016,1722587,1415,1862,-432,-1332,-615,-389,-49,143,-225
26526,7420,0,2023-03-01T18:52:13.068844,1722593,1415,1862,-432,-1332,-615,-389,-49,143,-225
26527,7421,0,2023-03-01T18:52:13.073954,1722597,1394,1821,-445,-1212,-735,-290,-49,143,-225
26528,7422,0,2023-03-01T18:52:13.079505,1722603,1394,1821,-445,-1212,-735,-290,-49,143,-225
26529,7423,0,2023-03-01T18:52:13.084018,1722608,1394,1821,-445,-1212,-735,-290,-49,143,-225
26530,7424,0,2023-03-01T18:52:13.089172,1722613,1394,1821,-445,-1212,-735,-290,-49,143,-225
26531,7425,0,2023-03-01T18:52:13.094070,1722617,1397,1828,-434,-1314,-625,-378,-49,143,-225
26532,7426,0,2023-03-01T18:52:13.100393,1722625,1397,1828,-434,-1314,-625,-378,-49,143,-225
26533,7427,0,2023-03-01T18:52:13.105385,1722629,1397,1828,-434,-1314,-625,-378,-49,143,-225
26534,7428,0,2023-03-01T18:52:13.110164,1722634,1397,1828,-434,-1314,-625,-378,-49,143,-225
26535,7429,0,2023-03-01T18:52:13.115816,1722640,1397,1832,-432,-1305,-671,-355,-46,134,-220
26536,7430,0,2023-03-01T18:52:13.122272,1722646,1397,1832,-432,-1305,-671,-355,-46,134,-220
26537,7431,0,2023-03-01T18:52:13.127291,1722651,1397,1832,-432,-1305,-671,-355,-46,134,-220
26538,7432,0,2023-03-01T18:52:13.132146,1722656,1397,1832,-432,-1305,-671,-355,-46,134,-220
26539,7433,0,2023-03-01T18:52:13.137640,1722661,1401,1821,-442,-1196,-740,-312,-46,134,-220
26540,7434,0,2023-03-01T18:52:13.142975,1722667,1401,1821,-442,-1196,-740,-312,-46,134,-220
26541,7435,0,2023-03-01T18:52:13.148011,1722672,1401,1821,-442,-1196,-740,-312,-46,134,-220
26542,7436,0,2023-03-01T18:52:13.153719,1722678,1408,1847,-430,-1320,-631,-385,-46,134,-220
26543,7437,0,2023-03-01T18:52:13.159446,1722684,1408,1847,-430,-1320,-631,-385,-46,134,-220
26544,7438,0,2023-03-01T18:52:13.164817,1722688,1408,1847,-430,-1320,-631,-385,-46,134,-220
26545,7439,0,2023-03-01T18:52:13.169634,1722693,1408,1847,-430,-1320,-631,-385,-46,134,-220
26546,7440,0,2023-03-01T18:52:13.174387,1722698,1389,1814,-430,-1256,-706,-300,-46,134,-220
26547,7441,0,2023-03-01T18:52:13.180376,1722704,1389,1814,-430,-1256,-706,-300,-46,134,-220
26548,7442,0,2023-03-01T18:52:13.185182,1722710,1389,1814,-430,-1256,-706,-300,-46,134,-220
26549,7443,0,2023-03-01T18:52:13.189938,1722714,1389,1814,-430,-1256,-706,-300,-46,134,-220
26550,7444,0,2023-03-01T18:52:13.194940,1722719,1408,1841,-436,-1259,-684,-359,-46,134,-220
26551,7445,0,2023-03-01T18:52:13.200824,1722725,1408,1841,-436,-1259,-684,-359,-46,134,-220
26552,7446,0,2023-03-01T18:52:13.206492,1722730,1408,1841,-436,-1259,-684,-359,-46,134,-220
26553,7447,0,2023-03-01T18:52:13.212257,1722736,1408,1841,-436,-1259,-684,-359,-46,134,-220
26554,7448,0,2023-03-01T18:52:13.217717,1722741,1385,1812,-420,-1262,-686,-334,-46,134,-220
26555,7449,0,2023-03-01T18:52:13.223418,1722747,1385,1812,-420,-1262,-686,-334,-46,134,-220
26556,7450,0,2023-03-01T18:52:13.228113,1722752,1385,1812,-420,-1262,-686,-334,-46,134,-220
26557,7451,0,2023-03-01T18:52:13.233299,1722757,1385,1812,-420,-1262,-686,-334,-46,134,-220
26558,7452,0,2023-03-01T18:52:13.239076,1722763,1420,1851,-454,-1299,-677,-354,-46,134,-220
26559,7453,0,2023-03-01T18:52:13.244700,1722769,1420,1851,-454,-1299,-677,-354,-46,134,-220
26560,7454,0,2023-03-01T18:52:13.249731,1722773,1420,1851,-454,-1299,-677,-354,-46,134,-220
26561,7455,0,2023-03-01T18:52:13.254656,1722778,1378,1805,-409,-1242,-684,-327,-35,137,-223
26562,7456,0,2023-03-01T18:52:13.261289,1722785,1378,1805,-409,-1242,-684,-327,-35,137,-223
26563,7457,0,2023-03-01T18:52:13.266507,1722790,1378,1805,-409,-1242,-684,-327,-35,137,-223
26564,7458,0,2023-03-01T18:52:13.272083,1722796,1378,1805,-409,-1242,-684,-327,-35,137,-223
26565,7459,0,2023-03-01T18:52:13.278304,1722802,1416,1851,-448,-1327,-637,-376,-35,137,-223
26566,7460,0,2023-03-01T18:52:13.284290,1722808,1416,1851,-448,-1327,-637,-376,-35,137,-223
26567,7461,0,2023-03-01T18:52:13.289508,1722813,1416,1851,-448,-1327,-637,-376,-35,137,-223
26568,7462,0,2023-03-01T18:52:13.295276,1722819,1393,1827,-416,-1241,-673,-330,-35,137,-223
26569,7463,0,2023-03-01T18:52:13.301513,1722825,1393,1827,-416,-1241,-673,-330,-35,137,-223
26570,7464,0,2023-03-01T18:52:13.306221,1722830,1393,1827,-416,-1241,-673,-330,-35,137,-223
26571,7465,0,2023-03-01T18:52:13.311266,1722834,1393,1827,-416,-1241,-673,-330,-35,137,-223
26572,7466,0,2023-03-01T18:52:13.316905,1722841,1384,1801,-440,-1237,-684,-322,-35,137,-223
26573,7467,0,2023-03-01T18:52:13.322597,1722847,1384,1801,-440,-1237,-684,-322,-35,137,-223
26574,7468,0,2023-03-01T18:52:13.327033,1722851,1384,1801,-440,-1237,-684,-322,-35,137,-223
26575,7469,0,2023-03-01T18:52:13.332037,1722856,1384,1801,-440,-1237,-684,-322,-35,137,-223
26576,7470,0,2023-03-01T18:52:13.337788,1722861,1415,1861,-414,-1317,-595,-382,-35,137,-223
26577,7471,0,2023-03-01T18:52:13.343611,1722867,1415,1861,-414,-1317,-595,-382,-35,137,-223
26578,7472,0,2023-03-01T18:52:13.348238,1722872,1415,1861,-414,-1317,-595,-382,-35,137,-223
26579,7473,0,2023-03-01T18:52:13.353028,1722876,1415,1861,-414,-1317,-595,-382,-35,137,-223
26580,7474,0,2023-03-01T18:52:13.358761,1722883,1386,1805,-439,-1200,-734,-289,-35,137,-223
26581,7475,0,2023-03-01T18:52:13.364977,1722889,1386,1805,-439,-1200,-734,-289,-35,137,-223
26582,7476,0,2023-03-01T18:52:13.369554,1722894,1386,1805,-439,-1200,-734,-289,-35,137,-223
26583,7477,0,2023-03-01T18:52:13.374414,1722898,1408,1851,-417,-1313,-579,-394,-49,141,-225
26584,7478,0,2023-03-01T18:52:13.380570,1722904,1408,1851,-417,-1313,-579,-394,-49,141,-225
26585,7479,0,2023-03-01T18:52:13.387214,1722911,1408,1851,-417,-1313,-579,-394,-49,141,-225
26586,7480,0,2023-03-01T18:52:13.392332,1722916,1408,1851,-417,-1313,-579,-394,-49,141,-225
26587,7481,0,2023-03-01T18:52:13.398029,1722921,1389,1822,-428,-1238,-700,-330,-49,141,-225
26588,7482,0,2023-03-01T18:52:13.403640,1722928,1389,1822,-428,-1238,-700,-330,-49,141,-225
26589,7483,0,2023-03-01T18:52:13.408570,1722933,1389,1822,-428,-1238,-700,-330,-49,141,-225
26590,7484,0,2023-03-01T18:52:13.413527,1722937,1389,1822,-428,-1238,-700,-330,-49,141,-225
26591,7485,0,2023-03-01T18:52:13.418021,1722942,1389,1808,-422,-1246,-664,-341,-49,141,-225
26592,7486,0,2023-03-01T18:52:13.423502,1722947,1389,1808,-422,-1246,-664,-341,-49,141,-225
26593,7487,0,2023-03-01T18:52:13.428723,1722952,1389,1808,-422,-1246,-664,-341,-49,141,-225
26594,7488,0,2023-03-01T18:52:13.433801,1722957,1408,1852,-413,-1318,-609,-394,-49,141,-225
26595,7489,0,2023-03-01T18:52:13.440733,1722964,1408,1852,-413,-1318,-609,-394,-49,141,-225
26596,7490,0,2023-03-01T18:52:13.445574,1722970,1408,1852,-413,-1318,-609,-394,-49,141,-225
26597,7491,0,2023-03-01T18:52:13.450522,1722975,1408,1852,-413,-1318,-609,-394,-49,141,-225
26598,7492,0,2023-03-01T18:52:13.455342,1722979,1389,1809,-427,-1206,-717,-294,-49,141,-225
26599,7493,0,2023-03-01T18:52:13.461545,1722985,1389,1809,-427,-1206,-717,-294,-49,141,-225
