,Unnamed: 0,imu,server_time,arduino_time,ax,ay,az,gx,gy,gz,mx,my,mz
26600,7494,0,2023-03-01T18:52:13.466099,1722990,1389,1809,-427,-1206,-717,-294,-49,141,-225
26601,7495,0,2023-03-01T18:52:13.470646,1722994,1389,1809,-427,-1206,-717,-294,-49,141,-225
26602,7496,0,2023-03-01T18:52:13.475836,1722999,1408,1854,-420,-1297,-609,-389,-49,141,-225
26603,7497,0,2023-03-01T18:52:13.481092,1723005,1408,1854,-420,-1297,-609,-389,-49,141,-225
26604,7498,0,2023-03-01T18:52:13.485906,1723010,1408,1854,-420,-1297,-609,-389,-49,141,-225
26605,7499,0,2023-03-01T18:52:13.490817,1723015,1408,1854,-420,-1297,-609,-389,-49,141,-225
26606,7500,0,2023-03-01T18:52:13.495695,1723020,1392,1825,-425,-1243,-691,-320,-49,141,-225
26607,7501,0,2023-03-01T18:52:13.501827,1723026,1392,1825,-425,-1243,-691,-320,-49,141,-225
26608,7502,0,2023-03-01T18:52:13.506632,1723030,1392,1825,-425,-1243,-691,-320,-49,141,-225
26609,7503,0,2023-03-01T18:52:13.512241,1723036,1392,1825,-425,-1243,-691,-320,-49,141,-225
26610,7504,0,2023-03-01T18:52:13.517659,1723041,1397,1827,-422,-1275,-635,-356,-40,136,-216
26611,7505,0,2023-03-01T18:52:13.523214,1723047,1397,1827,-422,-1275,-635,-356,-40,136,-216
26612,7506,0,2023-03-01T18:52:13.528050,1723052,1397,1827,-422,-1275,-635,-356,-40,136,-216
26613,7507,0,2023-03-01T18:52:13.532734,1723057,1397,1827,-422,-1275,-635,-356,-40,136,-216
26614,7508,0,2023-03-01T18:52:13.538365,1723062,1397,1838,-410,-1284,-629,-365,-40,136,-216
26615,7509,0,2023-03-01T18:52:13.543991,1723068,1397,1838,-410,-1284,-629,-365,-40,136,-216
26616,7510,0,2023-03-01T18:52:13.549138,1723073,1397,1838,-410,-1284,-629,-365,-40,136,-216
26617,7511,0,2023-03-01T18:52:13.554651,1723078,1388,1814,-426,-1201,-715,-305,-40,136,-216
26618,7512,0,2023-03-01T18:52:13.560730,1723084,1388,1814,-426,-1201,-715,-305,-40,136,-216
26619,7513,0,2023-03-01T18:52:13.565562,1723089,1388,1814,-426,-1201,-715,-305,-40,136,-216
26620,7514,0,2023-03-01T18:52:13.570032,1723094,1388,1814,-426,-1201,-715,-305,-40,136,-216
26621,7515,0,2023-03-01T18:52:13.575027,1723099,1413,1864,-414,-1330,-587,-408,-40,136,-216
26622,7516,0,2023-03-01T18:52:13.579634,1723104,1413,1864,-414,-1330,-587,-408,-40,136,-216
26623,7517,0,2023-03-01T18:52:13.584541,1723108,1413,1864,-414,-1330,-587,-408,-40,136,-216
26624,7518,0,2023-03-01T18:52:13.589526,1723113,1413,1864,-414,-1330,-587,-408,-40,136,-216
26625,7519,0,2023-03-01T18:52:13.595405,1723119,1387,1822,-429,-1231,-706,-308,-40,136,-216
26626,7520,0,2023-03-01T18:52:13.602111,1723125,1387,1822,-429,-1231,-706,-308,-40,136,-216
26627,7521,0,2023-03-01T18:52:13.606858,1723130,1387,1822,-429,-1231,-706,-308,-40,136,-216
26628,7522,0,2023-03-01T18:52:13.611939,1723136,1387,1822,-429,-1231,-706,-308,-40,136,-216
26629,7523,0,2023-03-01T18:52:13.617400,1723142,1394,1819,-418,-1272,-638,-352,-40,136,-216
26630,7524,0,2023-03-01T18:52:13.623084,1723147,1394,1819,-418,-1272,-638,-352,-40,136,-216
26631,7525,0,2023-03-01T18:52:13.628096,1723152,1394,1819,-418,-1272,-638,-352,-40,136,-216
26632,7526,0,2023-03-01T18:52:13.633737,1723158,1394,1819,-418,-1272,-638,-352,-40,136,-216
26633,7527,0,2023-03-01T18:52:13.639280,1723163,1400,1843,-405,-1300,-637,-372,-43,133,-213
26634,7528,0,2023-03-01T18:52:13.644955,1723168,1400,1843,-405,-1300,-637,-372,-43,133,-213
26635,7529,0,2023-03-01T18:52:13.650175,1723173,1400,1843,-405,-1300,-637,-372,-43,133,-213
26636,7530,0,2023-03-01T18:52:13.655661,1723180,1389,1813,-429,-1195,-721,-291,-43,133,-213
26637,7531,0,2023-03-01T18:52:13.661694,1723186,1389,1813,-429,-1195,-721,-291,-43,133,-213
26638,7532,0,2023-03-01T18:52:13.666417,1723191,1389,1813,-429,-1195,-721,-291,-43,133,-213
26639,7533,0,2023-03-01T18:52:13.671910,1723196,1389,1813,-429,-1195,-721,-291,-43,133,-213
26640,7534,0,2023-03-01T18:52:13.677187,1723201,1408,1856,-412,-1327,-576,-406,-43,133,-213
26641,7535,0,2023-03-01T18:52:13.682309,1723206,1408,1856,-412,-1327,-576,-406,-43,133,-213
26642,7536,0,2023-03-01T18:52:13.687211,1723211,1408,1856,-412,-1327,-576,-406,-43,133,-213
26643,7537,0,2023-03-01T18:52:13.692004,1723215,1408,1856,-412,-1327,-576,-406,-43,133,-213
26644,7538,0,2023-03-01T18:52:13.697379,1723222,1388,1816,-416,-1235,-686,-306,-43,133,-213
26645,7539,0,2023-03-01T18:52:13.702524,1723227,1388,1816,-416,-1235,-686,-306,-43,133,-213
26646,7540,0,2023-03-01T18:52:13.707614,1723231,1388,1816,-416,-1235,-686,-306,-43,133,-213
26647,7541,0,2023-03-01T18:52:13.712590,1723237,1388,1816,-416,-1235,-686,-306,-43,133,-213
26648,7542,0,2023-03-01T18:52:13.718497,1723242,1387,1809,-410,-1228,-661,-341,-43,133,-213
26649,7543,0,2023-03-01T18:52:13.724695,1723248,1387,1809,-410,-1228,-661,-341,-43,133,-213
26650,7544,0,2023-03-01T18:52:13.729355,1723253,1387,1809,-410,-1228,-661,-341,-43,133,-213
26651,7545,0,2023-03-01T18:52:13.735129,1723258,1409,1860,-410,-1333,-596,-401,-43,133,-213
26652,7546,0,2023-03-01T18:52:13.741388,1723266,1409,1860,-410,-1333,-596,-401,-43,133,-213
26653,7547,0,2023-03-01T18:52:13.746215,1723270,1409,1860,-410,-1333,-596,-401,-43,133,-213
26654,7548,0,2023-03-01T18:52:13.752136,1723276,1409,1860,-410,-1333,-596,-401,-43,133,-213
26655,7549,0,2023-03-01T18:52:13.758152,1723282,1394,1818,-417,-1206,-716,-286,-49,141,-227
26656,7550,0,2023-03-01T18:52:13.763832,1723287,1394,1818,-417,-1206,-716,-286,-49,141,-227
26657,7551,0,2023-03-01T18:52:13.768939,1723292,1394,1818,-417,-1206,-716,-286,-49,141,-227
26658,7552,0,2023-03-01T18:52:13.774507,1723298,1400,1842,-406,-1269,-646,-379,-49,141,-227
26659,7553,0,2023-03-01T18:52:13.780495,1723304,1400,1842,-406,-1269,-646,-379,-49,141,-227
26660,7554,0,2023-03-01T18:52:13.785753,1723310,1400,1842,-406,-1269,-646,-379,-49,141,-227
26661,7555,0,2023-03-01T18:52:13.790707,1723315,1400,1842,-406,-1269,-646,-379,-49,141,-227
26662,7556,0,2023-03-01T18:52:13.798060,1723320,1382,1809,-406,-1258,-680,-315,-49,141,-227
26663,7557,0,2023-03-01T18:52:13.803975,1723328,1382,1809,-406,-1258,-680,-315,-49,141,-227
26664,7558,0,2023-03-01T18:52:13.808908,1723333,1382,1809,-406,-1258,-680,-315,-49,141,-227
26665,7559,0,2023-03-01T18:52:13.814644,1723338,1413,1856,-416,-1296,-643,-381,-49,141,-227
26666,7560,0,2023-03-01T18:52:13.820737,1723344,1413,1856,-416,-1296,-643,-381,-49,141,-227
26667,7561,0,2023-03-01T18:52:13.825982,1723350,1413,1856,-416,-1296,-643,-381,-49,141,-227
26668,7562,0,2023-03-01T18:52:13.831351,1723355,1413,1856,-416,-1296,-643,-381,-49,141,-227
26669,7563,0,2023-03-01T18:52:13.837155,1723361,1375,1804,-394,-1240,-671,-325,-49,141,-227
26670,7564,0,2023-03-01T18:52:13.843371,1723367,1375,1804,-394,-1240,-671,-325,-49,141,-227
26671,7565,0,2023-03-01T18:52:13.848296,1723372,1375,1804,-394,-1240,-671,-325,-49,141,-227
26672,7566,0,2023-03-01T18:52:13.853812,1723377,1375,1804,-394,-1240,-671,-325,-49,141,-227
26673,7567,0,2023-03-01T18:52:13.859919,1723383,1411,1852,-421,-1276,-654,-357,-49,141,-227
26674,7568,0,2023-03-01T18:52:13.865680,1723389,1411,1852,-421,-1276,-654,-357,-49,141,-227
26675,7569,0,2023-03-01T18:52:13.870705,1723395,1411,1852,-421,-1276,-654,-357,-49,141,-227
26676,7570,0,2023-03-01T18:52:13.876324,1723401,1390,1815,-408,-1258,-674,-336,-49,141,-227
26677,7571,0,2023-03-01T18:52:13.882673,1723406,1390,1815,-408,-1258,-674,-336,-49,141,-227
26678,7572,0,2023-03-01T18:52:13.887556,1723411,1390,1815,-408,-1258,-674,-336,-49,141,-227
26679,7573,0,2023-03-01T18:52:13.892481,1723416,1390,1815,-408,-1258,-674,-336,-49,141,-227
26680,7574,0,2023-03-01T18:52:13.898099,1723422,1405,1843,-402,-1272,-657,-351,-41,139,-217
26681,7575,0,2023-03-01T18:52:13.903642,1723427,1405,1843,-402,-1272,-657,-351,-41,139,-217
26682,7576,0,2023-03-01T18:52:13.908512,1723432,1405,1843,-402,-1272,-657,-351,-41,139,-217
26683,7577,0,2023-03-01T18:52:13.913647,1723438,1405,1843,-402,-1272,-657,-351,-41,139,-217
26684,7578,0,2023-03-01T18:52:13.919205,1723443,1396,1816,-412,-1280,-658,-347,-41,139,-217
26685,7579,0,2023-03-01T18:52:13.924783,1723449,1396,1816,-412,-1280,-658,-347,-41,139,-217
26686,7580,0,2023-03-01T18:52:13.930062,1723454,1396,1816,-412,-1280,-658,-347,-41,139,-217
26687,7581,0,2023-03-01T18:52:13.935597,1723459,1398,1839,-395,-1297,-626,-374,-41,139,-217
26688,7582,0,2023-03-01T18:52:13.941434,1723465,1398,1839,-395,-1297,-626,-374,-41,139,-217
26689,7583,0,2023-03-01T18:52:13.946499,1723470,1398,1839,-395,-1297,-626,-374,-41,139,-217
26690,7584,0,2023-03-01T18:52:13.951354,1723475,1398,1839,-395,-1297,-626,-374,-41,139,-217
26691,7585,0,2023-03-01T18:52:13.956982,1723481,1394,1833,-420,-1198,-729,-312,-41,139,-217
26692,7586,0,2023-03-01T18:52:13.962428,1723487,1394,1833,-420,-1198,-729,-312,-41,139,-217
26693,7587,0,2023-03-01T18:52:13.967517,1723491,1394,1833,-420,-1198,-729,-312,-41,139,-217
26694,7588,0,2023-03-01T18:52:13.972998,1723497,1394,1833,-420,-1198,-729,-312,-41,139,-217
26695,7589,0,2023-03-01T18:52:13.978727,1723502,1400,1836,-401,-1311,-615,-382,-41,139,-217
26696,7590,0,2023-03-01T18:52:13.984712,1723508,1400,1836,-401,-1311,-615,-382,-41,139,-217
26697,7591,0,2023-03-01T18:52:13.989796,1723513,1400,1836,-401,-1311,-615,-382,-41,139,-217
26698,7592,0,2023-03-01T18:52:13.995473,1723520,1394,1835,-408,-1284,-688,-335,-41,139,-217
26699,7593,0,2023-03-01T18:52:14.001365,1723525,1394,1835,-408,-1284,-688,-335,-41,139,-217
26700,7594,0,2023-03-01T18:52:14.006202,1723530,1394,1835,-408,-1284,-688,-335,-41,139,-217
26701,7595,0,2023-03-01T18:52:14.011084,1723535,1394,1835,-408,-1284,-688,-335,-41,139,-217
26702,7596,0,2023-03-01T18:52:14.015951,1723540,1394,1835,-408,-1284,-688,-335,-46,134,-224
26703,7597,0,2023-03-01T18:52:14.021606,1723545,1394,1835,-408,-1284,-688,-335,-46,134,-224
26704,7598,0,2023-03-01T18:52:14.026452,1723550,1394,1835,-408,-1284,-688,-335,-46,134,-224
26705,7599,0,2023-03-01T18:52:14.031491,1723555,1394,1835,-408,-1284,-688,-335,-46,134,-224
26706,7600,0,2023-03-01T18:52:14.036329,1723560,1404,1856,-397,-1278,-652,-374,-46,134,-224
26707,7601,0,2023-03-01T18:52:14.041841,1723566,1404,1856,-397,-1278,-652,-374,-46,134,-224
26708,7602,0,2023-03-01T18:52:14.047164,1723571,1404,1856,-397,-1278,-652,-374,-46,134,-224
26709,7603,0,2023-03-01T18:52:14.052906,1723577,1404,1856,-397,-1278,-652,-374,-46,134,-224
26710,7604,0,2023-03-01T18:52:14.058277,1723582,1393,1825,-415,-1274,-688,-332,-46,134,-224
26711,7605,0,2023-03-01T18:52:14.064274,1723588,1393,1825,-415,-1274,-688,-332,-46,134,-224
26712,7606,0,2023-03-01T18:52:14.069036,1723593,1393,1825,-415,-1274,-688,-332,-46,134,-224
26713,7607,0,2023-03-01T18:52:14.073745,1723597,1393,1825,-415,-1274,-688,-332,-46,134,-224
26714,7608,0,2023-03-01T18:52:14.079625,1723603,1390,1829,-380,-1253,-641,-358,-46,134,-224
26715,7609,0,2023-03-01T18:52:14.085666,1723610,1390,1829,-380,-1253,-641,-358,-46,134,-224
26716,7610,0,2023-03-01T18:52:14.090462,1723615,1390,1829,-380,-1253,-641,-358,-46,134,-224
26717,7611,0,2023-03-01T18:52:14.095307,1723619,1406,1849,-428,-1281,-675,-356,-46,134,-224
26718,7612,0,2023-03-01T18:52:14.101429,1723625,1406,1849,-428,-1281,-675,-356,-46,134,-224
26719,7613,0,2023-03-01T18:52:14.106272,1723630,1406,1849,-428,-1281,-675,-356,-46,134,-224
26720,7614,0,2023-03-01T18:52:14.111160,1723635,1406,1849,-428,-1281,-675,-356,-46,134,-224
26721,7615,0,2023-03-01T18:52:14.116013,1723640,1377,1809,-381,-1246,-663,-326,-46,134,-224
26722,7616,0,2023-03-01T18:52:14.122447,1723646,1377,1809,-381,-1246,-663,-326,-46,134,-224
26723,7617,0,2023-03-01T18:52:14.127494,1723652,1377,1809,-381,-1246,-663,-326,-46,134,-224
26724,7618,0,2023-03-01T18:52:14.132628,1723657,1377,1809,-381,-1246,-663,-326,-46,134,-224
26725,7619,0,2023-03-01T18:52:14.137876,1723662,1404,1853,-431,-1336,-645,-385,-46,134,-224
26726,7620,0,2023-03-01T18:52:14.143194,1723667,1404,1853,-431,-1336,-645,-385,-46,134,-224
26727,7621,0,2023-03-01T18:52:14.148117,1723672,1404,1853,-431,-1336,-645,-385,-46,134,-224
26728,7622,0,2023-03-01T18:52:14.152931,1723677,1404,1853,-431,-1336,-645,-385,-46,134,-224
26729,7623,0,2023-03-01T18:52:14.159246,1723683,1386,1829,-371,-1250,-667,-334,-42,136,-222
26730,7624,0,2023-03-01T18:52:14.163759,1723687,1386,1829,-371,-1250,-667,-334,-42,136,-222
26731,7625,0,2023-03-01T18:52:14.168500,1723693,1386,1829,-371,-1250,-667,-334,-42,136,-222
26732,7626,0,2023-03-01T18:52:14.173888,1723698,1386,1829,-371,-1250,-667,-334,-42,136,-222
26733,7627,0,2023-03-01T18:52:14.179484,1723704,1377,1801,-412,-1244,-704,-335,-42,136,-222
26734,7628,0,2023-03-01T18:52:14.185139,1723709,1377,1801,-412,-1244,-704,-335,-42,136,-222
26735,7629,0,2023-03-01T18:52:14.190044,1723714,1377,1801,-412,-1244,-704,-335,-42,136,-222
26736,7630,0,2023-03-01T18:52:14.195160,1723719,1410,1863,-395,-1332,-592,-402,-42,136,-222
26737,7631,0,2023-03-01T18:52:14.201237,1723725,1410,1863,-395,-1332,-592,-402,-42,136,-222
26738,7632,0,2023-03-01T18:52:14.206156,1723730,1410,1863,-395,-1332,-592,-402,-42,136,-222
26739,7633,0,2023-03-01T18:52:14.211107,1723735,1410,1863,-395,-1332,-592,-402,-42,136,-222
26740,7634,0,2023-03-01T18:52:14.216969,1723741,1392,1823,-416,-1209,-753,-298,-42,136,-222
26741,7635,0,2023-03-01T18:52:14.221487,1723746,1392,1823,-416,-1209,-753,-298,-42,136,-222
26742,7636,0,2023-03-01T18:52:14.226925,1723750,1392,1823,-416,-1209,-753,-298,-42,136,-222
26743,7637,0,2023-03-01T18:52:14.232517,1723756,1392,1823,-416,-1209,-753,-298,-42,136,-222
26744,7638,0,2023-03-01T18:52:14.237475,1723761,1385,1814,-381,-1293,-633,-364,-42,136,-222
26745,7639,0,2023-03-01T18:52:14.243136,1723767,1385,1814,-381,-1293,-633,-364,-42,136,-222
26746,7640,0,2023-03-01T18:52:14.248344,1723772,1385,1814,-381,-1293,-633,-364,-42,136,-222
26747,7641,0,2023-03-01T18:52:14.253112,1723777,1385,1814,-381,-1293,-633,-364,-42,136,-222
26748,7642,0,2023-03-01T18:52:14.258306,1723783,1401,1843,-395,-1326,-646,-374,-42,136,-222
26749,7643,0,2023-03-01T18:52:14.263740,1723788,1401,1843,-395,-1326,-646,-374,-42,136,-222
26750,7644,0,2023-03-01T18:52:14.268840,1723792,1401,1843,-395,-1326,-646,-374,-42,136,-222
26751,7645,0,2023-03-01T18:52:14.274449,1723798,1401,1843,-395,-1326,-646,-374,-42,136,-222
26752,7646,0,2023-03-01T18:52:14.280146,1723804,1397,1836,-398,-1195,-731,-322,-40,132,-220
26753,7647,0,2023-03-01T18:52:14.285321,1723809,1397,1836,-398,-1195,-731,-322,-40,132,-220
26754,7648,0,2023-03-01T18:52:14.290287,1723814,1397,1836,-398,-1195,-731,-322,-40,132,-220
26755,7649,0,2023-03-01T18:52:14.294966,1723819,1397,1844,-384,-1315,-626,-394,-40,132,-220
26756,7650,0,2023-03-01T18:52:14.301356,1723825,1397,1844,-384,-1315,-626,-394,-40,132,-220
26757,7651,0,2023-03-01T18:52:14.306614,1723830,1397,1844,-384,-1315,-626,-394,-40,132,-220
26758,7652,0,2023-03-01T18:52:14.311786,1723836,1397,1844,-384,-1315,-626,-394,-40,132,-220
26759,7653,0,2023-03-01T18:52:14.317222,1723841,1391,1833,-382,-1265,-677,-338,-40,132,-220
26760,7654,0,2023-03-01T18:52:14.322904,1723847,1391,1833,-382,-1265,-677,-338,-40,132,-220
26761,7655,0,2023-03-01T18:52:14.327431,1723851,1391,1833,-382,-1265,-677,-338,-40,132,-220
26762,7656,0,2023-03-01T18:52:14.332907,1723856,1391,1833,-382,-1265,-677,-338,-40,132,-220
26763,7657,0,2023-03-01T18:52:14.338586,1723863,1382,1816,-398,-1246,-681,-334,-40,132,-220
26764,7658,0,2023-03-01T18:52:14.344851,1723869,1382,1816,-398,-1246,-681,-334,-40,132,-220
26765,7659,0,2023-03-01T18:52:14.349701,1723874,1382,1816,-398,-1246,-681,-334,-40,132,-220
26766,7660,0,2023-03-01T18:52:14.354416,1723878,1382,1816,-398,-1246,-681,-334,-40,132,-220
26767,7661,0,2023-03-01T18:52:14.359898,1723884,1406,1859,-386,-1336,-608,-392,-40,132,-220
26768,7662,0,2023-03-01T18:52:14.365488,1723889,1406,1859,-386,-1336,-608,-392,-40,132,-220
26769,7663,0,2023-03-01T18:52:14.370242,1723894,1406,1859,-386,-1336,-608,-392,-40,132,-220
26770,7664,0,2023-03-01T18:52:14.377095,1723900,1394,1835,-402,-1201,-735,-304,-40,132,-220
26771,7665,0,2023-03-01T18:52:14.382466,1723907,1394,1835,-402,-1201,-735,-304,-40,132,-220
26772,7666,0,2023-03-01T18:52:14.388066,1723912,1394,1835,-402,-1201,-735,-304,-40,132,-220
26773,7667,0,2023-03-01T18:52:14.393864,1723918,1394,1835,-402,-1201,-735,-304,-40,132,-220
26774,7668,0,2023-03-01T18:52:14.399573,1723923,1385,1822,-385,-1305,-611,-382,-40,132,-220
26775,7669,0,2023-03-01T18:52:14.405487,1723929,1385,1822,-385,-1305,-611,-382,-40,132,-220
26776,7670,0,2023-03-01T18:52:14.410215,1723934,1385,1822,-385,-1305,-611,-382,-40,132,-220
26777,7671,0,2023-03-01T18:52:14.415466,1723939,1398,1842,-380,-1306,-635,-357,-48,132,-220
26778,7672,0,2023-03-01T18:52:14.421174,1723945,1398,1842,-380,-1306,-635,-357,-48,138,-218
26779,7673,0,2023-03-01T18:52:14.425970,1723950,1398,1842,-380,-1306,-635,-357,-48,138,-218
26780,7674,0,2023-03-01T18:52:14.430464,1723955,1398,1842,-380,-1306,-635,-357,-48,138,-218
26781,7675,0,2023-03-01T18:52:14.435890,1723960,1383,1823,-386,-1189,-705,-321,-48,138,-218
26782,7676,0,2023-03-01T18:52:14.441914,1723966,1383,1823,-386,-1189,-705,-321,-48,138,-218
26783,7677,0,2023-03-01T18:52:14.447033,1723971,1383,1823,-386,-1189,-705,-321,-48,138,-218
26784,7678,0,2023-03-01T18:52:14.452522,1723976,1383,1823,-386,-1189,-705,-321,-48,138,-218
26785,7679,0,2023-03-01T18:52:14.458021,1723982,1406,1859,-385,-1310,-599,-399,-48,138,-218
26786,7680,0,2023-03-01T18:52:14.463719,1723987,1406,1859,-385,-1310,-599,-399,-48,138,-218
26787,7681,0,2023-03-01T18:52:14.468272,1723993,1406,1859,-385,-1310,-599,-399,-48,138,-218
26788,7682,0,2023-03-01T18:52:14.473097,1723997,1406,1859,-385,-1310,-599,-399,-48,138,-218
26789,7683,0,2023-03-01T18:52:14.478616,1724003,1386,1821,-387,-1216,-697,-303,-48,138,-218
26790,7684,0,2023-03-01T18:52:14.484437,1724008,1386,1821,-387,-1216,-697,-303,-48,138,-218
26791,7685,0,2023-03-01T18:52:14.489326,1724013,1386,1821,-387,-1216,-697,-303,-48,138,-218
26792,7686,0,2023-03-01T18:52:14.495404,1724019,1400,1842,-394,-1312,-613,-390,-48,138,-218
26793,7687,0,2023-03-01T18:52:14.501324,1724025,1400,1842,-394,-1312,-613,-390,-48,138,-218
26794,7688,0,2023-03-01T18:52:14.506106,1724029,1400,1842,-394,-1312,-613,-390,-48,138,-218
26795,7689,0,2023-03-01T18:52:14.510987,1724035,1400,1842,-394,-1312,-613,-390,-48,138,-218
26796,7690,0,2023-03-01T18:52:14.516501,1724041,1388,1830,-377,-1261,-653,-347,-48,138,-218
26797,7691,0,2023-03-01T18:52:14.522584,1724047,1388,1830,-377,-1261,-653,-347,-48,138,-218
26798,7692,0,2023-03-01T18:52:14.527473,1724051,1388,1830,-377,-1261,-653,-347,-48,138,-218
26799,7693,0,2023-03-01T18:52:14.532968,1724057,1388,1830,-377,-1261,-653,-347,-48,138,-218
26800,7694,0,2023-03-01T18:52:14.538460,1724062,1383,1806,-387,-1214,-698,-327,-55,127,-223
26801,7695,0,2023-03-01T18:52:14.544307,1724068,1383,1806,-387,-1214,-698,-327,-55,127,-223
26802,7696,0,2023-03-01T18:52:14.549055,1724072,1383,1806,-387,-1214,-698,-327,-55,127,-223
26803,7697,0,2023-03-01T18:52:14.554434,1724078,1383,1806,-387,-1214,-698,-327,-55,127,-223
26804,7698,0,2023-03-01T18:52:14.560000,1724084,1412,1873,-375,-1352,-584,-422,-55,127,-223
26805,7699,0,2023-03-01T18:52:14.565341,1724089,1412,1873,-375,-1352,-584,-422,-55,127,-223
26806,7700,0,2023-03-01T18:52:14.570092,1724094,1412,1873,-375,-1352,-584,-422,-55,127,-223
26807,7701,0,2023-03-01T18:52:14.575260,1724099,1387,1826,-393,-1213,-731,-289,-55,127,-223
26808,7702,0,2023-03-01T18:52:14.581227,1724105,1387,1826,-393,-1213,-731,-289,-55,127,-223
26809,7703,0,2023-03-01T18:52:14.586402,1724110,1387,1826,-393,-1213,-731,-289,-55,127,-223
26810,7704,0,2023-03-01T18:52:14.591296,1724115,1387,1826,-393,-1213,-731,-289,-55,127,-223
26811,7705,0,2023-03-01T18:52:14.597339,1724122,1378,1810,-368,-1266,-635,-368,-55,127,-223
26812,7706,0,2023-03-01T18:52:14.603106,1724127,1378,1810,-368,-1266,-635,-368,-55,127,-223
26813,7707,0,2023-03-01T18:52:14.608246,1724132,1378,1810,-368,-1266,-635,-368,-55,127,-223
26814,7708,0,2023-03-01T18:52:14.613557,1724137,1378,1810,-368,-1266,-635,-368,-55,127,-223
26815,7709,0,2023-03-01T18:52:14.619173,1724143,1406,1864,-384,-1359,-640,-385,-55,127,-223
26816,7710,0,2023-03-01T18:52:14.624707,1724148,1406,1864,-384,-1359,-640,-385,-55,127,-223
26817,7711,0,2023-03-01T18:52:14.629337,1724153,1406,1864,-384,-1359,-640,-385,-55,127,-223
26818,7712,0,2023-03-01T18:52:14.634934,1724158,1406,1864,-384,-1359,-640,-385,-55,127,-223
26819,7713,0,2023-03-01T18:52:14.640315,1724165,1390,1840,-391,-1209,-746,-301,-55,127,-223
26820,7714,0,2023-03-01T18:52:14.645891,1724170,1390,1840,-391,-1209,-746,-301,-55,127,-223
26821,7715,0,2023-03-01T18:52:14.650871,1724175,1390,1840,-391,-1209,-746,-301,-55,127,-223
26822,7716,0,2023-03-01T18:52:14.655672,1724180,1393,1838,-377,-1320,-639,-385,-34,140,-220
26823,7717,0,2023-03-01T18:52:14.661538,1724185,1393,1838,-377,-1320,-639,-385,-34,140,-220
26824,7718,0,2023-03-01T18:52:14.666800,1724190,1393,1838,-377,-1320,-639,-385,-34,140,-220
26825,7719,0,2023-03-01T18:52:14.671580,1724195,1393,1838,-377,-1320,-639,-385,-34,140,-220
26826,7720,0,2023-03-01T18:52:14.677908,1724201,1393,1841,-369,-1277,-697,-335,-34,140,-220
26827,7721,0,2023-03-01T18:52:14.683537,1724208,1393,1841,-369,-1277,-697,-335,-34,140,-220
26828,7722,0,2023-03-01T18:52:14.688397,1724213,1393,1841,-369,-1277,-697,-335,-34,140,-220
26829,7723,0,2023-03-01T18:52:14.693173,1724217,1393,1841,-369,-1277,-697,-335,-34,140,-220
26830,7724,0,2023-03-01T18:52:14.698693,1724222,1387,1817,-388,-1277,-687,-348,-34,140,-220
26831,7725,0,2023-03-01T18:52:14.704442,1724228,1387,1817,-388,-1277,-687,-348,-34,140,-220
26832,7726,0,2023-03-01T18:52:14.709635,1724233,1387,1817,-388,-1277,-687,-348,-34,140,-220
26833,7727,0,2023-03-01T18:52:14.716236,1724240,1396,1852,-366,-1316,-631,-381,-34,140,-220
26834,7728,0,2023-03-01T18:52:14.721879,1724246,1396,1852,-366,-1316,-631,-381,-34,140,-220
26835,7729,0,2023-03-01T18:52:14.726420,1724251,1396,1852,-366,-1316,-631,-381,-34,140,-220
26836,7730,0,2023-03-01T18:52:14.731154,1724255,1396,1852,-366,-1316,-631,-381,-34,140,-220
26837,7731,0,2023-03-01T18:52:14.736678,1724261,1384,1813,-382,-1227,-735,-298,-34,140,-220
26838,7732,0,2023-03-01T18:52:14.742989,1724267,1384,1813,-382,-1227,-735,-298,-34,140,-220
26839,7733,0,2023-03-01T18:52:14.747694,1724271,1384,1813,-382,-1227,-735,-298,-34,140,-220
26840,7734,0,2023-03-01T18:52:14.753021,1724277,1384,1813,-382,-1227,-735,-298,-34,140,-220
26841,7735,0,2023-03-01T18:52:14.758545,1724282,1400,1863,-364,-1283,-633,-395,-34,140,-220
26842,7736,0,2023-03-01T18:52:14.764217,1724288,1400,1863,-364,-1283,-633,-395,-34,140,-220
26843,7737,0,2023-03-01T18:52:14.769114,1724293,1400,1863,-364,-1283,-633,-395,-34,140,-220
26844,7738,0,2023-03-01T18:52:14.773969,1724298,1400,1863,-364,-1283,-633,-395,-34,140,-220
26845,7739,0,2023-03-01T18:52:14.779124,1724303,1374,1804,-388,-1288,-701,-305,-34,140,-220
26846,7740,0,2023-03-01T18:52:14.784920,1724309,1374,1804,-388,-1288,-701,-305,-34,140,-220
26847,7741,0,2023-03-01T18:52:14.789704,1724313,1374,1804,-388,-1288,-701,-305,-34,140,-220
26848,7742,0,2023-03-01T18:52:14.795535,1724319,1403,1857,-361,-1335,-610,-403,-34,140,-220
26849,7743,0,2023-03-01T18:52:14.801830,1724325,1403,1857,-361,-1335,-610,-403,-43,139,-219
26850,7744,0,2023-03-01T18:52:14.806755,1724331,1403,1857,-361,-1335,-610,-403,-43,139,-219
26851,7745,0,2023-03-01T18:52:14.811488,1724336,1403,1857,-361,-1335,-610,-403,-43,139,-219
26852,7746,0,2023-03-01T18:52:14.817786,1724342,1384,1816,-385,-1218,-749,-304,-43,139,-219
26853,7747,0,2023-03-01T18:52:14.822360,1724346,1384,1816,-385,-1218,-749,-304,-43,139,-219
26854,7748,0,2023-03-01T18:52:14.827253,1724351,1384,1816,-385,-1218,-749,-304,-43,139,-219
26855,7749,0,2023-03-01T18:52:14.832181,1724356,1384,1816,-385,-1218,-749,-304,-43,139,-219
26856,7750,0,2023-03-01T18:52:14.837827,1724361,1401,1854,-366,-1311,-623,-377,-43,139,-219
26857,7751,0,2023-03-01T18:52:14.843466,1724367,1401,1854,-366,-1311,-623,-377,-43,139,-219
26858,7752,0,2023-03-01T18:52:14.848459,1724372,1401,1854,-366,-1311,-623,-377,-43,139,-219
26859,7753,0,2023-03-01T18:52:14.853363,1724378,1401,1854,-366,-1311,-623,-377,-43,139,-219
26860,7754,0,2023-03-01T18:52:14.858867,1724383,1375,1819,-371,-1270,-718,-326,-43,139,-219
26861,7755,0,2023-03-01T18:52:14.864327,1724388,1375,1819,-371,-1270,-718,-326,-43,139,-219
26862,7756,0,2023-03-01T18:52:14.869064,1724393,1375,1819,-371,-1270,-718,-326,-43,139,-219
26863,7757,0,2023-03-01T18:52:14.874804,1724398,1375,1819,-371,-1270,-718,-326,-43,139,-219
26864,7758,0,2023-03-01T18:52:14.880545,1724404,1410,1857,-375,-1313,-641,-375,-43,139,-219
26865,7759,0,2023-03-01T18:52:14.886083,1724410,1410,1857,-375,-1313,-641,-375,-43,139,-219
26866,7760,0,2023-03-01T18:52:14.890729,1724414,1410,1857,-375,-1313,-641,-375,-43,139,-219
26867,7761,0,2023-03-01T18:52:14.896171,1724420,1373,1814,-359,-1264,-692,-333,-43,139,-219
26868,7762,0,2023-03-01T18:52:14.902446,1724426,1373,1814,-359,-1264,-692,-333,-43,139,-219
26869,7763,0,2023-03-01T18:52:14.907087,1724431,1373,1814,-359,-1264,-692,-333,-43,139,-219
26870,7764,0,2023-03-01T18:52:14.913007,1724437,1373,1814,-359,-1264,-692,-333,-43,139,-219
26871,7765,0,2023-03-01T18:52:14.918392,1724442,1408,1858,-381,-1304,-656,-378,-49,137,-225
26872,7766,0,2023-03-01T18:52:14.924074,1724448,1408,1858,-381,-1304,-656,-378,-49,137,-225
26873,7767,0,2023-03-01T18:52:14.930030,1724452,1408,1858,-381,-1304,-656,-378,-49,137,-225
26874,7768,0,2023-03-01T18:52:14.934860,1724459,1408,1858,-381,-1304,-656,-378,-49,137,-225
26875,7769,0,2023-03-01T18:52:14.940293,1724465,1376,1811,-351,-1256,-694,-323,-49,137,-225
26876,7770,0,2023-03-01T18:52:14.945610,1724470,1376,1811,-351,-1256,-694,-323,-49,137,-225
26877,7771,0,2023-03-01T18:52:14.950359,1724475,1376,1811,-351,-1256,-694,-323,-49,137,-225
26878,7772,0,2023-03-01T18:52:14.955180,1724479,1376,1811,-351,-1256,-694,-323,-49,137,-225
26879,7773,0,2023-03-01T18:52:14.960666,1724484,1408,1854,-378,-1289,-675,-378,-49,137,-225
26880,7774,0,2023-03-01T18:52:14.966158,1724490,1408,1854,-378,-1289,-675,-378,-49,137,-225
26881,7775,0,2023-03-01T18:52:14.970769,1724494,1408,1854,-378,-1289,-675,-378,-49,137,-225
26882,7776,0,2023-03-01T18:52:14.976327,1724500,1378,1814,-363,-1272,-676,-331,-49,137,-225
26883,7777,0,2023-03-01T18:52:14.982414,1724507,1378,1814,-363,-1272,-676,-331,-49,137,-225
26884,7778,0,2023-03-01T18:52:14.987352,1724512,1378,1814,-363,-1272,-676,-331,-49,137,-225
26885,7779,0,2023-03-01T18:52:14.992998,1724517,1378,1814,-363,-1272,-676,-331,-49,137,-225
26886,7780,0,2023-03-01T18:52:14.997866,1724522,1401,1851,-371,-1290,-662,-373,-49,137,-225
26887,7781,0,2023-03-01T18:52:15.002930,1724527,1401,1851,-371,-1290,-662,-373,-49,137,-225
26888,7782,0,2023-03-01T18:52:15.008055,1724532,1401,1851,-371,-1290,-662,-373,-49,137,-225
26889,7783,0,2023-03-01T18:52:15.013479,1724537,1401,1851,-371,-1290,-662,-373,-49,137,-225
26890,7784,0,2023-03-01T18:52:15.018886,1724542,1380,1817,-370,-1286,-661,-335,-49,137,-225
26891,7785,0,2023-03-01T18:52:15.024377,1724549,1380,1817,-370,-1286,-661,-335,-49,137,-225
26892,7786,0,2023-03-01T18:52:15.029322,1724553,1380,1817,-370,-1286,-661,-335,-49,137,-225
26893,7787,0,2023-03-01T18:52:15.034791,1724559,1380,1817,-370,-1286,-661,-335,-49,137,-225
26894,7788,0,2023-03-01T18:52:15.042765,1724567,1397,1850,-361,-1321,-630,-380,-49,137,-225
26895,7789,0,2023-03-01T18:52:15.047292,1724571,1397,1850,-361,-1321,-630,-380,-49,137,-225
26896,7790,0,2023-03-01T18:52:15.052193,1724576,1397,1850,-361,-1321,-630,-380,-49,137,-225
26897,7791,0,2023-03-01T18:52:15.057008,1724580,1388,1832,-366,-1214,-738,-315,-47,133,-217
26898,7792,0,2023-03-01T18:52:15.062319,1724587,1388,1832,-366,-1214,-738,-315,-47,133,-217
26899,7793,0,2023-03-01T18:52:15.066870,1724591,1388,1832,-366,-1214,-738,-315,-47,133,-217
26900,7794,0,2023-03-01T18:52:15.071955,1724596,1388,1832,-366,-1214,-738,-315,-47,133,-217
26901,7795,0,2023-03-01T18:52:15.077803,1724602,1396,1847,-358,-1325,-618,-378,-47,133,-217
26902,7796,0,2023-03-01T18:52:15.083870,1724608,1396,1847,-358,-1325,-618,-378,-47,133,-217
26903,7797,0,2023-03-01T18:52:15.088999,1724613,1396,1847,-358,-1325,-618,-378,-47,133,-217
26904,7798,0,2023-03-01T18:52:15.094710,1724618,1396,1847,-358,-1325,-618,-378,-47,133,-217
26905,7799,0,2023-03-01T18:52:15.100361,1724624,1384,1833,-363,-1265,-703,-345,-47,133,-217
26906,7800,0,2023-03-01T18:52:15.106037,1724630,1384,1833,-363,-1265,-703,-345,-47,133,-217
26907,7801,0,2023-03-01T18:52:15.111042,1724635,1384,1833,-363,-1265,-703,-345,-47,133,-217
26908,7802,0,2023-03-01T18:52:15.116133,1724640,1373,1804,-365,-1253,-680,-336,-47,133,-217
26909,7803,0,2023-03-01T18:52:15.122883,1724647,1373,1804,-365,-1253,-680,-336,-47,133,-217
26910,7804,0,2023-03-01T18:52:15.127473,1724651,1373,1804,-365,-1253,-680,-336,-47,133,-217
26911,7805,0,2023-03-01T18:52:15.132244,1724656,1373,1804,-365,-1253,-680,-336,-47,133,-217
26912,7806,0,2023-03-01T18:52:15.137741,1724661,1408,1867,-346,-1362,-606,-411,-47,133,-217
26913,7807,0,2023-03-01T18:52:15.143273,1724667,1408,1867,-346,-1362,-606,-411,-47,133,-217
26914,7808,0,2023-03-01T18:52:15.148365,1724673,1408,1867,-346,-1362,-606,-411,-47,133,-217
26915,7809,0,2023-03-01T18:52:15.154456,1724679,1408,1867,-346,-1362,-606,-411,-47,133,-217
26916,7810,0,2023-03-01T18:52:15.159492,1724684,1390,1832,-380,-1201,-763,-302,-47,133,-217
26917,7811,0,2023-03-01T18:52:15.164836,1724689,1390,1832,-380,-1201,-763,-302,-47,133,-217
26918,7812,0,2023-03-01T18:52:15.169660,1724694,1390,1832,-380,-1201,-763,-302,-47,133,-217
26919,7813,0,2023-03-01T18:52:15.175594,1724699,1390,1832,-380,-1201,-763,-302,-47,133,-217
26920,7814,0,2023-03-01T18:52:15.180378,1724704,1379,1819,-344,-1310,-608,-374,-40,142,-224
26921,7815,0,2023-03-01T18:52:15.185600,1724709,1379,1819,-344,-1310,-608,-374,-40,142,-224
26922,7816,0,2023-03-01T18:52:15.190450,1724715,1379,1819,-344,-1310,-608,-374,-40,142,-224
26923,7817,0,2023-03-01T18:52:15.195325,1724720,1379,1819,-344,-1310,-608,-374,-40,142,-224
26924,7818,0,2023-03-01T18:52:15.200901,1724725,1391,1846,-357,-1318,-663,-365,-40,142,-224
26925,7819,0,2023-03-01T18:52:15.207194,1724731,1391,1846,-357,-1318,-663,-365,-40,142,-224
26926,7820,0,2023-03-01T18:52:15.211925,1724736,1391,1846,-357,-1318,-663,-365,-40,142,-224
26927,7821,0,2023-03-01T18:52:15.217341,1724741,1397,1853,-369,-1192,-745,-318,-40,142,-224
26928,7822,0,2023-03-01T18:52:15.223480,1724747,1397,1853,-369,-1192,-745,-318,-40,142,-224
26929,7823,0,2023-03-01T18:52:15.228630,1724752,1397,1853,-369,-1192,-745,-318,-40,142,-224
26930,7824,0,2023-03-01T18:52:15.233639,1724758,1397,1853,-369,-1192,-745,-318,-40,142,-224
26931,7825,0,2023-03-01T18:52:15.239860,1724764,1384,1828,-362,-1374,-582,-391,-40,142,-224
26932,7826,0,2023-03-01T18:52:15.245671,1724769,1384,1828,-362,-1374,-582,-391,-40,142,-224
26933,7827,0,2023-03-01T18:52:15.250723,1724775,1384,1828,-362,-1374,-582,-391,-40,142,-224
26934,7828,0,2023-03-01T18:52:15.256357,1724780,1388,1837,-346,-1359,-628,-360,-40,142,-224
26935,7829,0,2023-03-01T18:52:15.263065,1724787,1388,1837,-346,-1359,-628,-360,-40,142,-224
26936,7830,0,2023-03-01T18:52:15.268210,1724792,1388,1837,-346,-1359,-628,-360,-40,142,-224
26937,7831,0,2023-03-01T18:52:15.273206,1724797,1388,1837,-346,-1359,-628,-360,-40,142,-224
26938,7832,0,2023-03-01T18:52:15.278555,1724803,1401,1853,-376,-1187,-748,-341,-40,142,-224
26939,7833,0,2023-03-01T18:52:15.285004,1724809,1401,1853,-376,-1187,-748,-341,-40,142,-224
26940,7834,0,2023-03-01T18:52:15.290613,1724814,1401,1853,-376,-1187,-748,-341,-40,142,-224
26941,7835,0,2023-03-01T18:52:15.296590,1724820,1365,1810,-335,-1201,-696,-321,-40,142,-224
26942,7836,0,2023-03-01T18:52:15.302667,1724826,1365,1810,-335,-1201,-696,-321,-40,142,-224
26943,7837,0,2023-03-01T18:52:15.307809,1724831,1365,1810,-335,-1201,-696,-321,-40,142,-224
26944,7838,0,2023-03-01T18:52:15.312699,1724836,1365,1810,-335,-1201,-696,-321,-40,142,-224
26945,7839,0,2023-03-01T18:52:15.318698,1724843,1422,1882,-368,-1440,-581,-422,-40,142,-224
26946,7840,0,2023-03-01T18:52:15.324370,1724848,1422,1882,-368,-1440,-581,-422,-40,142,-224
26947,7841,0,2023-03-01T18:52:15.329265,1724853,1422,1882,-368,-1440,-581,-422,-40,142,-224
26948,7842,0,2023-03-01T18:52:15.334266,1724858,1422,1882,-368,-1440,-581,-422,-40,142,-224
26949,7843,0,2023-03-01T18:52:15.339856,1724864,1375,1818,-333,-1275,-690,-327,-40,142,-224
26950,7844,0,2023-03-01T18:52:15.346106,1724870,1375,1818,-333,-1275,-690,-327,-40,142,-224
26951,7845,0,2023-03-01T18:52:15.350980,1724874,1375,1818,-333,-1275,-690,-327,-40,142,-224
26952,7846,0,2023-03-01T18:52:15.355856,1724879,1375,1818,-333,-1275,-690,-327,-40,142,-224
26953,7847,0,2023-03-01T18:52:15.361171,1724886,1393,1842,-358,-1166,-733,-337,-40,142,-224
26954,7848,0,2023-03-01T18:52:15.366960,1724891,1393,1842,-358,-1166,-733,-337,-40,142,-224
26955,7849,0,2023-03-01T18:52:15.372999,1724897,1393,1842,-358,-1166,-733,-337,-40,142,-224
26956,7850,0,2023-03-01T18:52:15.379251,1724903,1376,1812,-341,-1273,-659,-354,-40,142,-224
26957,7851,0,2023-03-01T18:52:15.385200,1724909,1376,1812,-341,-1273,-659,-354,-40,142,-224
26958,7852,0,2023-03-01T18:52:15.390355,1724914,1376,1812,-341,-1273,-659,-354,-40,142,-224
26959,7853,0,2023-03-01T18:52:15.396016,1724920,1376,1812,-341,-1273,-659,-354,-40,142,-224
26960,7854,0,2023-03-01T18:52:15.401762,1724925,1398,1852,-351,-1354,-631,-394,-40,142,-224
26961,7855,0,2023-03-01T18:52:15.406307,1724931,1398,1852,-351,-1354,-631,-394,-40,142,-224
26962,7856,0,2023-03-01T18:52:15.411105,1724935,1398,1852,-351,-1354,-631,-394,-40,142,-224
26963,7857,0,2023-03-01T18:52:15.416028,1724940,1392,1852,-361,-1201,-738,-323,-40,142,-224
26964,7858,0,2023-03-01T18:52:15.422178,1724946,1392,1852,-361,-1201,-738,-323,-40,142,-224
26965,7859,0,2023-03-01T18:52:15.427310,1724951,1392,1852,-361,-1201,-738,-323,-40,142,-224
26966,7860,0,2023-03-01T18:52:15.432319,1724956,1392,1852,-361,-1201,-738,-323,-40,142,-224
26967,7861,0,2023-03-01T18:52:15.438591,1724962,1379,1828,-334,-1273,-651,-356,-45,139,-221
26968,7862,0,2023-03-01T18:52:15.444346,1724968,1379,1828,-334,-1273,-651,-356,-45,139,-221
26969,7863,0,2023-03-01T18:52:15.449659,1724974,1379,1828,-334,-1273,-651,-356,-45,139,-221
26970,7864,0,2023-03-01T18:52:15.454281,1724979,1379,1828,-334,-1273,-651,-356,-45,139,-221
26971,7865,0,2023-03-01T18:52:15.459504,1724983,1384,1838,-346,-1288,-691,-357,-45,139,-221
26972,7866,0,2023-03-01T18:52:15.465256,1724989,1384,1838,-346,-1288,-691,-357,-45,139,-221
26973,7867,0,2023-03-01T18:52:15.470170,1724994,1384,1838,-346,-1288,-691,-357,-45,139,-221
26974,7868,0,2023-03-01T18:52:15.474731,1724999,1384,1838,-346,-1288,-691,-357,-45,139,-221
26975,7869,0,2023-03-01T18:52:15.480490,1725004,1400,1852,-361,-1288,-676,-369,-45,139,-221
26976,7870,0,2023-03-01T18:52:15.486540,1725010,1400,1852,-361,-1288,-676,-369,-45,139,-221
26977,7871,0,2023-03-01T18:52:15.491346,1725016,1400,1852,-361,-1288,-676,-369,-45,139,-221
26978,7872,0,2023-03-01T18:52:15.496328,1725021,1371,1817,-332,-1265,-671,-340,-45,139,-221
26979,7873,0,2023-03-01T18:52:15.502539,1725026,1371,1817,-332,-1265,-671,-340,-45,139,-221
26980,7874,0,2023-03-01T18:52:15.507943,1725032,1371,1817,-332,-1265,-671,-340,-45,139,-221
26981,7875,0,2023-03-01T18:52:15.513157,1725037,1371,1817,-332,-1265,-671,-340,-45,139,-221
26982,7876,0,2023-03-01T18:52:15.519021,1725043,1407,1862,-367,-1301,-669,-377,-45,139,-221
26983,7877,0,2023-03-01T18:52:15.524465,1725048,1407,1862,-367,-1301,-669,-377,-45,139,-221
26984,7878,0,2023-03-01T18:52:15.529612,1725053,1407,1862,-367,-1301,-669,-377,-45,139,-221
26985,7879,0,2023-03-01T18:52:15.534560,1725059,1407,1862,-367,-1301,-669,-377,-45,139,-221
26986,7880,0,2023-03-01T18:52:15.540353,1725064,1367,1811,-325,-1254,-679,-336,-45,139,-221
26987,7881,0,2023-03-01T18:52:15.546319,1725070,1367,1811,-325,-1254,-679,-336,-45,139,-221
26988,7882,0,2023-03-01T18:52:15.551311,1725075,1367,1811,-325,-1254,-679,-336,-45,139,-221
26989,7883,0,2023-03-01T18:52:15.556123,1725080,1367,1811,-325,-1254,-679,-336,-45,139,-221
26990,7884,0,2023-03-01T18:52:15.561888,1725085,1407,1866,-371,-1356,-626,-389,-43,133,-215
26991,7885,0,2023-03-01T18:52:15.566349,1725090,1407,1866,-371,-1356,-626,-389,-43,133,-215
26992,7886,0,2023-03-01T18:52:15.571527,1725095,1407,1866,-371,-1356,-626,-389,-43,133,-215
26993,7887,0,2023-03-01T18:52:15.576477,1725101,1373,1824,-326,-1254,-682,-336,-43,133,-215
26994,7888,0,2023-03-01T18:52:15.583057,1725107,1373,1824,-326,-1254,-682,-336,-43,133,-215
26995,7889,0,2023-03-01T18:52:15.587983,1725112,1373,1824,-326,-1254,-682,-336,-43,133,-215
26996,7890,0,2023-03-01T18:52:15.593514,1725117,1373,1824,-326,-1254,-682,-336,-43,133,-215
26997,7891,0,2023-03-01T18:52:15.598986,1725123,1392,1840,-355,-1176,-767,-331,-43,133,-215
26998,7892,0,2023-03-01T18:52:15.604451,1725128,1392,1840,-355,-1176,-767,-331,-43,133,-215
26999,7893,0,2023-03-01T18:52:15.609031,1725133,1392,1840,-355,-1176,-767,-331,-43,133,-215
27000,7894,0,2023-03-01T18:52:15.613597,1725137,1392,1840,-355,-1176,-767,-331,-43,133,-215
27001,7895,0,2023-03-01T18:52:15.619036,1725143,1395,1858,-338,-1167,-723,-348,-43,133,-215
27002,7896,0,2023-03-01T18:52:15.624591,1725149,1395,1858,-338,-1167,-723,-348,-43,133,-215
27003,7897,0,2023-03-01T18:52:15.629804,1725154,1395,1858,-338,-1167,-723,-348,-43,133,-215
27004,7898,0,2023-03-01T18:52:15.634466,1725159,1395,1858,-338,-1167,-723,-348,-43,133,-215
27005,7899,0,2023-03-01T18:52:15.639827,1725164,1374,1820,-351,-1156,-761,-320,-43,133,-215
27006,7900,0,2023-03-01T18:52:15.645240,1725169,1374,1820,-351,-1156,-761,-320,-43,133,-215
27007,7901,0,2023-03-01T18:52:15.650824,1725174,1374,1820,-351,-1156,-761,-320,-43,133,-215
27008,7902,0,2023-03-01T18:52:15.655610,1725179,1374,1820,-351,-1156,-761,-320,-43,133,-215
27009,7903,0,2023-03-01T18:52:15.660932,1725185,1393,1851,-335,-1170,-738,-350,-43,133,-215
27010,7904,0,2023-03-01T18:52:15.666214,1725191,1393,1851,-335,-1170,-738,-350,-43,133,-215
27011,7905,0,2023-03-01T18:52:15.671013,1725195,1393,1851,-335,-1170,-738,-350,-43,133,-215
27012,7906,0,2023-03-01T18:52:15.676574,1725201,1384,1834,-352,-1151,-758,-331,-43,133,-215
27013,7907,0,2023-03-01T18:52:15.682444,1725206,1384,1834,-352,-1151,-758,-331,-43,133,-215
27014,7908,0,2023-03-01T18:52:15.687542,1725211,1384,1834,-352,-1151,-758,-331,-43,133,-215
27015,7909,0,2023-03-01T18:52:15.692507,1725216,1384,1834,-352,-1151,-758,-331,-43,133,-215
27016,7910,0,2023-03-01T18:52:15.699070,1725222,1381,1837,-337,-1143,-690,-340,-36,130,-212
27017,7911,0,2023-03-01T18:52:15.705227,1725229,1381,1837,-337,-1143,-690,-340,-36,130,-212
27018,7912,0,2023-03-01T18:52:15.710043,1725234,1381,1837,-337,-1143,-690,-340,-36,130,-212
27019,7913,0,2023-03-01T18:52:15.715574,1725240,1381,1837,-337,-1143,-690,-340,-36,130,-212
27020,7914,0,2023-03-01T18:52:15.721088,1725245,1384,1843,-338,-1076,-614,-338,-36,130,-212
27021,7915,0,2023-03-01T18:52:15.726871,1725251,1384,1843,-338,-1076,-614,-338,-36,130,-212
27022,7916,0,2023-03-01T18:52:15.731550,1725255,1384,1843,-338,-1076,-614,-338,-36,130,-212
27023,7917,0,2023-03-01T18:52:15.737028,1725260,1383,1841,-338,-1045,-571,-329,-36,130,-212
27024,7918,0,2023-03-01T18:52:15.743906,1725267,1383,1841,-338,-1045,-571,-329,-36,130,-212
27025,7919,0,2023-03-01T18:52:15.748568,1725273,1383,1841,-338,-1045,-571,-329,-36,130,-212
27026,7920,0,2023-03-01T18:52:15.754241,1725278,1383,1841,-338,-1045,-571,-329,-36,130,-212
27027,7921,0,2023-03-01T18:52:15.759548,1725284,1383,1835,-336,-1030,-579,-306,-36,130,-212
27028,7922,0,2023-03-01T18:52:15.765225,1725289,1383,1835,-336,-1030,-579,-306,-36,130,-212
27029,7923,0,2023-03-01T18:52:15.770172,1725294,1383,1835,-336,-1030,-579,-306,-36,130,-212
27030,7924,0,2023-03-01T18:52:15.776364,1725299,1383,1835,-336,-1030,-579,-306,-36,130,-212
27031,7925,0,2023-03-01T18:52:15.781756,1725305,1393,1841,-350,-1008,-587,-320,-36,130,-212
27032,7926,0,2023-03-01T18:52:15.787414,1725312,1393,1841,-350,-1008,-587,-320,-36,130,-212
27033,7927,0,2023-03-01T18:52:15.792568,1725317,1393,1841,-350,-1008,-587,-320,-36,130,-212
27034,7928,0,2023-03-01T18:52:15.798279,1725322,1388,1834,-348,-1023,-576,-321,-36,130,-212
27035,7929,0,2023-03-01T18:52:15.803450,1725328,1388,1834,-348,-1023,-576,-321,-36,130,-212
27036,7930,0,2023-03-01T18:52:15.808029,1725332,1388,1834,-348,-1023,-576,-321,-36,130,-212
27037,7931,0,2023-03-01T18:52:15.813079,1725337,1388,1834,-348,-1023,-576,-321,-36,130,-212
27038,7932,0,2023-03-01T18:52:15.818465,1725342,1388,1833,-341,-1033,-585,-330,-45,137,-213
27039,7933,0,2023-03-01T18:52:15.824287,1725348,1388,1833,-341,-1033,-585,-330,-45,137,-213
27040,7934,0,2023-03-01T18:52:15.829682,1725353,1388,1833,-341,-1033,-585,-330,-45,137,-213
27041,7935,0,2023-03-01T18:52:15.835385,1725360,1388,1833,-341,-1033,-585,-330,-45,137,-213
27042,7936,0,2023-03-01T18:52:15.840634,1725365,1386,1837,-334,-1089,-655,-334,-45,137,-213
27043,7937,0,2023-03-01T18:52:15.846043,1725370,1386,1837,-334,-1089,-655,-334,-45,137,-213
27044,7938,0,2023-03-01T18:52:15.850995,1725375,1386,1837,-334,-1089,-655,-334,-45,137,-213
27045,7939,0,2023-03-01T18:52:15.856031,1725380,1386,1837,-334,-1089,-655,-334,-45,137,-213
27046,7940,0,2023-03-01T18:52:15.861357,1725385,1387,1835,-348,-1159,-764,-333,-45,137,-213
27047,7941,0,2023-03-01T18:52:15.866889,1725390,1387,1835,-348,-1159,-764,-333,-45,137,-213
27048,7942,0,2023-03-01T18:52:15.872100,1725395,1387,1835,-348,-1159,-764,-333,-45,137,-213
27049,7943,0,2023-03-01T18:52:15.878540,1725403,1387,1835,-347,-1190,-795,-342,-45,137,-213
27050,7944,0,2023-03-01T18:52:15.884541,1725409,1387,1835,-347,-1190,-795,-342,-45,137,-213
27051,7945,0,2023-03-01T18:52:15.889198,1725413,1387,1835,-347,-1190,-795,-342,-45,137,-213
27052,7946,0,2023-03-01T18:52:15.894245,1725418,1387,1835,-347,-1190,-795,-342,-45,137,-213
27053,7947,0,2023-03-01T18:52:15.899703,1725423,1380,1846,-344,-1206,-800,-345,-45,137,-213
27054,7948,0,2023-03-01T18:52:15.905166,1725429,1380,1846,-344,-1206,-800,-345,-45,137,-213
27055,7949,0,2023-03-01T18:52:15.910182,1725433,1380,1846,-344,-1206,-800,-345,-45,137,-213
27056,7950,0,2023-03-01T18:52:15.915291,1725438,1380,1846,-344,-1206,-800,-345,-45,137,-213
27057,7951,0,2023-03-01T18:52:15.921072,1725445,1370,1805,-336,-1319,-721,-348,-45,137,-213
27058,7952,0,2023-03-01T18:52:15.926620,1725451,1370,1805,-336,-1319,-721,-348,-45,137,-213
27059,7953,0,2023-03-01T18:52:15.931595,1725456,1370,1805,-336,-1319,-721,-348,-45,137,-213
27060,7954,0,2023-03-01T18:52:15.936785,1725460,1370,1805,-336,-1319,-721,-348,-45,137,-213
27061,7955,0,2023-03-01T18:52:15.942309,1725466,1406,1869,-339,-1417,-630,-409,-45,137,-213
27062,7956,0,2023-03-01T18:52:15.947927,1725471,1406,1869,-339,-1417,-630,-409,-45,137,-213
27063,7957,0,2023-03-01T18:52:15.953075,1725477,1406,1869,-339,-1417,-630,-409,-45,137,-213
27064,7958,0,2023-03-01T18:52:15.959487,1725484,1388,1841,-346,-1212,-757,-313,-36,130,-220
27065,7959,0,2023-03-01T18:52:15.966037,1725490,1388,1841,-346,-1212,-757,-313,-36,130,-220
27066,7960,0,2023-03-01T18:52:15.971034,1725495,1388,1841,-346,-1212,-757,-313,-36,130,-220
27067,7961,0,2023-03-01T18:52:15.976684,1725500,1388,1841,-346,-1212,-757,-313,-36,130,-220
27068,7962,0,2023-03-01T18:52:15.982329,1725506,1357,1800,-326,-1220,-666,-336,-36,130,-220
27069,7963,0,2023-03-01T18:52:15.987860,1725512,1357,1800,-326,-1220,-666,-336,-36,130,-220
27070,7964,0,2023-03-01T18:52:15.992705,1725516,1357,1800,-326,-1220,-666,-336,-36,130,-220
27071,7965,0,2023-03-01T18:52:15.998413,1725522,1411,1877,-350,-1337,-615,-406,-36,130,-220
27072,7966,0,2023-03-01T18:52:16.003707,1725528,1411,1877,-350,-1337,-615,-406,-36,130,-220
27073,7967,0,2023-03-01T18:52:16.008707,1725533,1411,1877,-350,-1337,-615,-406,-36,130,-220
27074,7968,0,2023-03-01T18:52:16.014577,1725539,1411,1877,-350,-1337,-615,-406,-36,130,-220
27075,7969,0,2023-03-01T18:52:16.019225,1725543,1384,1834,-349,-1191,-717,-307,-36,130,-220
27076,7970,0,2023-03-01T18:52:16.024538,1725548,1384,1834,-349,-1191,-717,-307,-36,130,-220
27077,7971,0,2023-03-01T18:52:16.029223,1725553,1384,1834,-349,-1191,-717,-307,-36,130,-220
27078,7972,0,2023-03-01T18:52:16.033977,1725558,1384,1834,-349,-1191,-717,-307,-36,130,-220
27079,7973,0,2023-03-01T18:52:16.039303,1725563,1374,1819,-340,-1303,-631,-367,-36,130,-220
27080,7974,0,2023-03-01T18:52:16.045228,1725570,1374,1819,-340,-1303,-631,-367,-36,130,-220
27081,7975,0,2023-03-01T18:52:16.049897,1725574,1374,1819,-340,-1303,-631,-367,-36,130,-220
27082,7976,0,2023-03-01T18:52:16.054540,1725579,1374,1819,-340,-1303,-631,-367,-36,130,-220
27083,7977,0,2023-03-01T18:52:16.059509,1725583,1399,1855,-335,-1350,-642,-376,-36,130,-220
27084,7978,0,2023-03-01T18:52:16.065328,1725589,1399,1855,-335,-1350,-642,-376,-36,130,-220
27085,7979,0,2023-03-01T18:52:16.069902,1725594,1399,1855,-335,-1350,-642,-376,-36,130,-220
27086,7980,0,2023-03-01T18:52:16.074765,1725598,1399,1855,-335,-1350,-642,-376,-36,130,-220
27087,7981,0,2023-03-01T18:52:16.080108,1725604,1381,1828,-347,-1227,-754,-321,-44,134,-218
27088,7982,0,2023-03-01T18:52:16.085250,1725609,1381,1828,-347,-1227,-754,-321,-44,134,-218
27089,7983,0,2023-03-01T18:52:16.090071,1725614,1381,1828,-347,-1227,-754,-321,-44,134,-218
27090,7984,0,2023-03-01T18:52:16.095880,1725620,1381,1828,-347,-1227,-754,-321,-44,134,-218
27091,7985,0,2023-03-01T18:52:16.101718,1725626,1394,1858,-317,-1347,-609,-402,-44,134,-218
27092,7986,0,2023-03-01T18:52:16.107171,1725631,1394,1858,-317,-1347,-609,-402,-44,134,-218
27093,7987,0,2023-03-01T18:52:16.112003,1725636,1394,1858,-317,-1347,-609,-402,-44,134,-218
27094,7988,0,2023-03-01T18:52:16.116919,1725640,1394,1858,-317,-1347,-609,-402,-44,134,-218
27095,7989,0,2023-03-01T18:52:16.121633,1725645,1379,1834,-328,-1271,-709,-330,-44,134,-218
27096,7990,0,2023-03-01T18:52:16.127030,1725651,1379,1834,-328,-1271,-709,-330,-44,134,-218
27097,7991,0,2023-03-01T18:52:16.132362,1725656,1379,1834,-328,-1271,-709,-330,-44,134,-218
27098,7992,0,2023-03-01T18:52:16.138812,1725663,1376,1822,-337,-1252,-678,-357,-44,134,-218
27099,7993,0,2023-03-01T18:52:16.144267,1725668,1376,1822,-337,-1252,-678,-357,-44,134,-218
27100,7994,0,2023-03-01T18:52:16.148930,1725673,1376,1822,-337,-1252,-678,-357,-44,134,-218
27101,7995,0,2023-03-01T18:52:16.154380,1725678,1376,1822,-337,-1252,-678,-357,-44,134,-218
27102,7996,0,2023-03-01T18:52:16.159704,1725684,1396,1858,-329,-1305,-624,-380,-44,134,-218
27103,7997,0,2023-03-01T18:52:16.165142,1725689,1396,1858,-329,-1305,-624,-380,-44,134,-218
27104,7998,0,2023-03-01T18:52:16.170259,1725694,1396,1858,-329,-1305,-624,-380,-44,134,-218
27105,7999,0,2023-03-01T18:52:16.175884,1725700,1396,1858,-329,-1305,-624,-380,-44,134,-218
27106,8000,0,2023-03-01T18:52:16.181557,1725706,1373,1809,-346,-1205,-725,-300,-44,134,-218
27107,8001,0,2023-03-01T18:52:16.186881,1725711,1373,1809,-346,-1205,-725,-300,-44,134,-218
27108,8002,0,2023-03-01T18:52:16.191799,1725716,1373,1809,-346,-1205,-725,-300,-44,134,-218
27109,8003,0,2023-03-01T18:52:16.196376,1725720,1373,1809,-346,-1205,-725,-300,-44,134,-218
27110,8004,0,2023-03-01T18:52:16.201182,1725725,1405,1870,-327,-1356,-583,-422,-41,141,-215
27111,8005,0,2023-03-01T18:52:16.206399,1725730,1405,1870,-327,-1356,-583,-422,-41,141,-215
27112,8006,0,2023-03-01T18:52:16.211222,1725735,1405,1870,-327,-1356,-583,-422,-41,141,-215
27113,8007,0,2023-03-01T18:52:16.215726,1725740,1405,1870,-327,-1356,-583,-422,-41,141,-215
27114,8008,0,2023-03-01T18:52:16.221449,1725746,1376,1830,-331,-1254,-725,-318,-41,141,-215
27115,8009,0,2023-03-01T18:52:16.227103,1725751,1376,1830,-331,-1254,-725,-318,-41,141,-215
27116,8010,0,2023-03-01T18:52:16.232399,1725756,1376,1830,-331,-1254,-725,-318,-41,141,-215
27117,8011,0,2023-03-01T18:52:16.238682,1725763,1377,1819,-327,-1307,-654,-376,-41,141,-215
27118,8012,0,2023-03-01T18:52:16.244462,1725768,1377,1819,-327,-1307,-654,-376,-41,141,-215
27119,8013,0,2023-03-01T18:52:16.249249,1725773,1377,1819,-327,-1307,-654,-376,-41,141,-215
27120,8014,0,2023-03-01T18:52:16.254110,1725778,1377,1819,-327,-1307,-654,-376,-41,141,-215
27121,8015,0,2023-03-01T18:52:16.259478,1725784,1391,1856,-321,-1352,-622,-393,-41,141,-215
27122,8016,0,2023-03-01T18:52:16.265090,1725789,1391,1856,-321,-1352,-622,-393,-41,141,-215
27123,8017,0,2023-03-01T18:52:16.269835,1725794,1391,1856,-321,-1352,-622,-393,-41,141,-215
27124,8018,0,2023-03-01T18:52:16.275328,1725799,1391,1856,-321,-1352,-622,-393,-41,141,-215
27125,8019,0,2023-03-01T18:52:16.280570,1725805,1387,1843,-342,-1197,-740,-308,-41,141,-215
27126,8020,0,2023-03-01T18:52:16.286143,1725810,1387,1843,-342,-1197,-740,-308,-41,141,-215
27127,8021,0,2023-03-01T18:52:16.290885,1725815,1387,1843,-342,-1197,-740,-308,-41,141,-215
27128,8022,0,2023-03-01T18:52:16.295593,1725819,1387,1843,-342,-1197,-740,-308,-41,141,-215
27129,8023,0,2023-03-01T18:52:16.301489,1725826,1382,1831,-321,-1356,-580,-398,-41,141,-215
27130,8024,0,2023-03-01T18:52:16.306662,1725831,1382,1831,-321,-1356,-580,-398,-41,141,-215
27131,8025,0,2023-03-01T18:52:16.311264,1725836,1382,1831,-321,-1356,-580,-398,-41,141,-215
27132,8026,0,2023-03-01T18:52:16.318026,1725842,1382,1831,-321,-1356,-580,-398,-41,141,-215
27133,8027,0,2023-03-01T18:52:16.323547,1725847,1382,1831,-321,-1356,-580,-398,-41,141,-215
27134,8028,0,2023-03-01T18:52:16.328843,1725853,1382,1831,-321,-1356,-580,-398,-41,141,-215
27135,8029,0,2023-03-01T18:52:16.333514,1725857,1382,1831,-321,-1356,-580,-398,-41,141,-215
27136,8030,0,2023-03-01T18:52:16.338928,1725862,1397,1856,-337,-1186,-739,-344,-36,136,-210
27137,8031,0,2023-03-01T18:52:16.344578,1725869,1397,1856,-337,-1186,-739,-344,-36,136,-210
27138,8032,0,2023-03-01T18:52:16.350134,1725874,1397,1856,-337,-1186,-739,-344,-36,136,-210
27139,8033,0,2023-03-01T18:52:16.355903,1725880,1397,1856,-337,-1186,-739,-344,-36,136,-210
27140,8034,0,2023-03-01T18:52:16.361629,1725886,1356,1799,-313,-1224,-684,-339,-36,136,-210
27141,8035,0,2023-03-01T18:52:16.367002,1725891,1356,1799,-313,-1224,-684,-339,-36,136,-210
27142,8036,0,2023-03-01T18:52:16.372727,1725896,1356,1799,-313,-1224,-684,-339,-36,136,-210
27143,8037,0,2023-03-01T18:52:16.379462,1725903,1407,1874,-334,-1402,-598,-412,-36,136,-210
27144,8038,0,2023-03-01T18:52:16.385309,1725910,1407,1874,-334,-1402,-598,-412,-36,136,-210
27145,8039,0,2023-03-01T18:52:16.390766,1725915,1407,1874,-334,-1402,-598,-412,-36,136,-210
27146,8040,0,2023-03-01T18:52:16.397417,1725921,1375,1834,-324,-1245,-718,-336,-36,136,-210
27147,8041,0,2023-03-01T18:52:16.404223,1725928,1375,1834,-324,-1245,-718,-336,-36,136,-210
27148,8042,0,2023-03-01T18:52:16.409494,1725933,1375,1834,-324,-1245,-718,-336,-36,136,-210
27149,8043,0,2023-03-01T18:52:16.414654,1725938,1375,1834,-324,-1245,-718,-336,-36,136,-210
27150,8044,0,2023-03-01T18:52:16.420388,1725944,1358,1796,-313,-1264,-663,-330,-36,136,-210
27151,8045,0,2023-03-01T18:52:16.426518,1725950,1358,1796,-313,-1264,-663,-330,-36,136,-210
27152,8046,0,2023-03-01T18:52:16.431815,1725956,1358,1796,-313,-1264,-663,-330,-36,136,-210
27153,8047,0,2023-03-01T18:52:16.438142,1725962,1415,1888,-330,-1453,-551,-443,-36,136,-210
27154,8048,0,2023-03-01T18:52:16.443780,1725968,1415,1888,-330,-1453,-551,-443,-36,136,-210
27155,8049,0,2023-03-01T18:52:16.448764,1725973,1415,1888,-330,-1453,-551,-443,-36,136,-210
27156,8050,0,2023-03-01T18:52:16.454440,1725978,1415,1888,-330,-1453,-551,-443,-36,136,-210
27157,8051,0,2023-03-01T18:52:16.460599,1725984,1369,1814,-331,-1243,-723,-319,-35,141,-217
27158,8052,0,2023-03-01T18:52:16.466626,1725990,1369,1814,-331,-1243,-723,-319,-35,141,-217
27159,8053,0,2023-03-01T18:52:16.471823,1725996,1369,1814,-331,-1243,-723,-319,-35,141,-217
27160,8054,0,2023-03-01T18:52:16.477025,1726001,1369,1814,-331,-1243,-723,-319,-35,141,-217
27161,8055,0,2023-03-01T18:52:16.482369,1726007,1380,1843,-312,-1159,-699,-345,-35,141,-217
27162,8056,0,2023-03-01T18:52:16.487937,1726012,1380,1843,-312,-1159,-699,-345,-35,141,-217
27163,8057,0,2023-03-01T18:52:16.492894,1726017,1380,1843,-312,-1159,-699,-345,-35,141,-217
27164,8058,0,2023-03-01T18:52:16.498811,1726023,1386,1840,-332,-1323,-617,-386,-35,141,-217
27165,8059,0,2023-03-01T18:52:16.504398,1726028,1386,1840,-332,-1323,-617,-386,-35,141,-217
27166,8060,0,2023-03-01T18:52:16.509404,1726033,1386,1840,-332,-1323,-617,-386,-35,141,-217
27167,8061,0,2023-03-01T18:52:16.515836,1726040,1386,1840,-332,-1323,-617,-386,-35,141,-217
27168,8062,0,2023-03-01T18:52:16.521831,1726046,1381,1837,-310,-1328,-632,-365,-35,141,-217
27169,8063,0,2023-03-01T18:52:16.527384,1726051,1381,1837,-310,-1328,-632,-365,-35,141,-217
27170,8064,0,2023-03-01T18:52:16.532241,1726056,1381,1837,-310,-1328,-632,-365,-35,141,-217
27171,8065,0,2023-03-01T18:52:16.538860,1726063,1385,1845,-334,-1206,-743,-340,-35,141,-217
27172,8066,0,2023-03-01T18:52:16.545207,1726069,1385,1845,-334,-1206,-743,-340,-35,141,-217
27173,8067,0,2023-03-01T18:52:16.549950,1726074,1385,1845,-334,-1206,-743,-340,-35,141,-217
27174,8068,0,2023-03-01T18:52:16.554809,1726078,1385,1845,-334,-1206,-743,-340,-35,141,-217
27175,8069,0,2023-03-01T18:52:16.560336,1726084,1388,1856,-305,-1361,-596,-399,-35,141,-217
27176,8070,0,2023-03-01T18:52:16.565893,1726090,1388,1856,-305,-1361,-596,-399,-35,141,-217
27177,8071,0,2023-03-01T18:52:16.571080,1726095,1388,1856,-305,-1361,-596,-399,-35,141,-217
27178,8072,0,2023-03-01T18:52:16.576153,1726100,1388,1856,-305,-1361,-596,-399,-35,141,-217
27179,8073,0,2023-03-01T18:52:16.581850,1726105,1378,1837,-315,-1308,-679,-344,-35,141,-217
27180,8074,0,2023-03-01T18:52:16.587354,1726111,1378,1837,-315,-1308,-679,-344,-35,141,-217
27181,8075,0,2023-03-01T18:52:16.592472,1726116,1378,1837,-315,-1308,-679,-344,-35,141,-217
27182,8076,0,2023-03-01T18:52:16.600231,1726124,1377,1830,-320,-1216,-714,-339,-33,141,-209
27183,8077,0,2023-03-01T18:52:16.606319,1726131,1377,1830,-320,-1216,-714,-339,-33,141,-209
27184,8078,0,2023-03-01T18:52:16.611053,1726135,1377,1830,-320,-1216,-714,-339,-33,141,-209
27185,8079,0,2023-03-01T18:52:16.616447,1726140,1377,1830,-320,-1216,-714,-339,-33,141,-209
27186,8080,0,2023-03-01T18:52:16.622918,1726146,1398,1868,-311,-1349,-600,-408,-33,141,-209
27187,8081,0,2023-03-01T18:52:16.628506,1726152,1398,1868,-311,-1349,-600,-408,-33,141,-209
27188,8082,0,2023-03-01T18:52:16.633645,1726157,1398,1868,-311,-1349,-600,-408,-33,141,-209
27189,8083,0,2023-03-01T18:52:16.640267,1726164,1375,1832,-316,-1234,-717,-312,-33,141,-209
27190,8084,0,2023-03-01T18:52:16.645895,1726170,1375,1832,-316,-1234,-717,-312,-33,141,-209
27191,8085,0,2023-03-01T18:52:16.651032,1726175,1375,1832,-316,-1234,-717,-312,-33,141,-209
27192,8086,0,2023-03-01T18:52:16.656510,1726180,1375,1832,-316,-1234,-717,-312,-33,141,-209
27193,8087,0,2023-03-01T18:52:16.662219,1726186,1385,1840,-317,-1302,-623,-387,-33,141,-209
27194,8088,0,2023-03-01T18:52:16.666683,1726191,1385,1840,-317,-1302,-623,-387,-33,141,-209
27195,8089,0,2023-03-01T18:52:16.672028,1726196,1385,1840,-317,-1302,-623,-387,-33,141,-209
27196,8090,0,2023-03-01T18:52:16.678496,1726202,1384,1839,-309,-1290,-653,-351,-33,141,-209
27197,8091,0,2023-03-01T18:52:16.685295,1726209,1384,1839,-309,-1290,-653,-351,-33,141,-209
27198,8092,0,2023-03-01T18:52:16.690246,1726215,1384,1839,-309,-1290,-653,-351,-33,141,-209
27199,8093,0,2023-03-01T18:52:16.695583,1726220,1384,1839,-309,-1290,-653,-351,-33,141,-209
27200,8094,0,2023-03-01T18:52:16.701104,1726225,1367,1816,-315,-1240,-689,-322,-33,141,-209
27201,8095,0,2023-03-01T18:52:16.706915,1726230,1367,1816,-315,-1240,-689,-322,-33,141,-209
27202,8096,0,2023-03-01T18:52:16.711854,1726236,1367,1816,-315,-1240,-689,-322,-33,141,-209
27203,8097,0,2023-03-01T18:52:16.717309,1726241,1367,1816,-315,-1240,-689,-322,-33,141,-209
27204,8098,0,2023-03-01T18:52:16.721842,1726245,1403,1877,-300,-1383,-573,-424,-43,143,-217
27205,8099,0,2023-03-01T18:52:16.727224,1726252,1403,1877,-300,-1383,-573,-424,-43,143,-217
27206,8100,0,2023-03-01T18:52:16.732095,1726256,1403,1877,-300,-1383,-573,-424,-43,143,-217
27207,8101,0,2023-03-01T18:52:16.738707,1726263,1376,1828,-311,-1236,-718,-308,-43,143,-217
27208,8102,0,2023-03-01T18:52:16.744411,1726268,1376,1828,-311,-1236,-718,-308,-43,143,-217
27209,8103,0,2023-03-01T18:52:16.749233,1726273,1376,1828,-311,-1236,-718,-308,-43,143,-217
27210,8104,0,2023-03-01T18:52:16.754643,1726279,1376,1828,-311,-1236,-718,-308,-43,143,-217
27211,8105,0,2023-03-01T18:52:16.759949,1726284,1362,1815,-297,-1278,-658,-360,-43,143,-217
27212,8106,0,2023-03-01T18:52:16.765398,1726289,1362,1815,-297,-1278,-658,-360,-43,143,-217
27213,8107,0,2023-03-01T18:52:16.771236,1726296,1362,1815,-297,-1278,-658,-360,-43,143,-217
27214,8108,0,2023-03-01T18:52:16.775879,1726300,1362,1815,-297,-1278,-658,-360,-43,143,-217
27215,8109,0,2023-03-01T18:52:16.781635,1726306,1395,1870,-307,-1361,-604,-406,-43,143,-217
27216,8110,0,2023-03-01T18:52:16.786874,1726311,1395,1870,-307,-1361,-604,-406,-43,143,-217
27217,8111,0,2023-03-01T18:52:16.791584,1726316,1395,1870,-307,-1361,-604,-406,-43,143,-217
27218,8112,0,2023-03-01T18:52:16.797879,1726322,1384,1839,-318,-1207,-724,-317,-43,143,-217
27219,8113,0,2023-03-01T18:52:16.802525,1726326,1384,1839,-318,-1207,-724,-317,-43,143,-217
27220,8114,0,2023-03-01T18:52:16.807753,1726331,1384,1839,-318,-1207,-724,-317,-43,143,-217
27221,8115,0,2023-03-01T18:52:16.812508,1726337,1384,1839,-318,-1207,-724,-317,-43,143,-217
27222,8116,0,2023-03-01T18:52:16.818482,1726343,1377,1833,-306,-1321,-617,-386,-43,143,-217
27223,8117,0,2023-03-01T18:52:16.824383,1726348,1377,1833,-306,-1321,-617,-386,-43,143,-217
27224,8118,0,2023-03-01T18:52:16.829364,1726354,1377,1833,-306,-1321,-617,-386,-43,143,-217
27225,8119,0,2023-03-01T18:52:16.834253,1726358,1377,1833,-306,-1321,-617,-386,-43,143,-217
27226,8120,0,2023-03-01T18:52:16.839756,1726364,1385,1842,-306,-1315,-646,-360,-43,143,-217
27227,8121,0,2023-03-01T18:52:16.845178,1726369,1385,1842,-306,-1315,-646,-360,-43,143,-217
27228,8122,0,2023-03-01T18:52:16.850066,1726374,1385,1842,-306,-1315,-646,-360,-43,143,-217
27229,8123,0,2023-03-01T18:52:16.855794,1726380,1385,1842,-306,-1315,-646,-360,-43,143,-217
27230,8124,0,2023-03-01T18:52:16.860819,1726385,1376,1839,-307,-1197,-715,-326,-35,139,-211
27231,8125,0,2023-03-01T18:52:16.866574,1726391,1376,1839,-307,-1197,-715,-326,-35,139,-211
27232,8126,0,2023-03-01T18:52:16.871843,1726396,1376,1839,-307,-1197,-715,-326,-35,139,-211
27233,8127,0,2023-03-01T18:52:16.877655,1726401,1376,1839,-307,-1197,-715,-326,-35,139,-211
27234,8128,0,2023-03-01T18:52:16.883263,1726407,1392,1864,-301,-1421,-543,-416,-35,139,-211
27235,8129,0,2023-03-01T18:52:16.889061,1726413,1392,1864,-301,-1421,-543,-416,-35,139,-211
27236,8130,0,2023-03-01T18:52:16.894066,1726417,1392,1864,-301,-1421,-543,-416,-35,139,-211
27237,8131,0,2023-03-01T18:52:16.899734,1726424,1374,1826,-290,-1322,-653,-333,-35,139,-211
27238,8132,0,2023-03-01T18:52:16.906238,1726430,1374,1826,-290,-1322,-653,-333,-35,139,-211
27239,8133,0,2023-03-01T18:52:16.911485,1726435,1374,1826,-290,-1322,-653,-333,-35,139,-211
27240,8134,0,2023-03-01T18:52:16.916351,1726440,1374,1826,-290,-1322,-653,-333,-35,139,-211
27241,8135,0,2023-03-01T18:52:16.921933,1726446,1393,1860,-317,-1164,-729,-351,-35,139,-211
27242,8136,0,2023-03-01T18:52:16.927090,1726451,1393,1860,-317,-1164,-729,-351,-35,139,-211
27243,8137,0,2023-03-01T18:52:16.932274,1726456,1393,1860,-317,-1164,-729,-351,-35,139,-211
27244,8138,0,2023-03-01T18:52:16.938488,1726462,1368,1822,-298,-1261,-635,-351,-35,139,-211
27245,8139,0,2023-03-01T18:52:16.944993,1726469,1368,1822,-298,-1261,-635,-351,-35,139,-211
27246,8140,0,2023-03-01T18:52:16.950082,1726474,1368,1822,-298,-1261,-635,-351,-35,139,-211
27247,8141,0,2023-03-01T18:52:16.955493,1726479,1368,1822,-298,-1261,-635,-351,-35,139,-211
27248,8142,0,2023-03-01T18:52:16.960484,1726485,1391,1855,-300,-1323,-626,-377,-35,139,-211
27249,8143,0,2023-03-01T18:52:16.965775,1726489,1391,1855,-300,-1323,-626,-377,-35,139,-211
27250,8144,0,2023-03-01T18:52:16.970864,1726494,1391,1855,-300,-1323,-626,-377,-35,139,-211
27251,8145,0,2023-03-01T18:52:16.975546,1726499,1391,1855,-300,-1323,-626,-377,-35,139,-211
27252,8146,0,2023-03-01T18:52:16.981196,1726504,1371,1834,-302,-1209,-701,-332,-42,132,-208
27253,8147,0,2023-03-01T18:52:16.986703,1726511,1371,1834,-302,-1209,-701,-332,-42,132,-208
27254,8148,0,2023-03-01T18:52:16.991727,1726516,1371,1834,-302,-1209,-701,-332,-42,132,-208
27255,8149,0,2023-03-01T18:52:16.997377,1726521,1371,1834,-302,-1209,-701,-332,-42,132,-208
27256,8150,0,2023-03-01T18:52:17.002369,1726526,1397,1869,-297,-1367,-576,-414,-42,132,-208
27257,8151,0,2023-03-01T18:52:17.007565,1726531,1397,1869,-297,-1367,-576,-414,-42,132,-208
27258,8152,0,2023-03-01T18:52:17.012563,1726536,1397,1869,-297,-1367,-576,-414,-42,132,-208
27259,8153,0,2023-03-01T18:52:17.019291,1726543,1372,1834,-303,-1245,-694,-332,-42,132,-208
27260,8154,0,2023-03-01T18:52:17.024461,1726548,1372,1834,-303,-1245,-694,-332,-42,132,-208
27261,8155,0,2023-03-01T18:52:17.029763,1726554,1372,1834,-303,-1245,-694,-332,-42,132,-208
27262,8156,0,2023-03-01T18:52:17.035023,1726559,1372,1834,-303,-1245,-694,-332,-42,132,-208
27263,8157,0,2023-03-01T18:52:17.040533,1726564,1357,1803,-289,-1249,-664,-335,-42,132,-208
27264,8158,0,2023-03-01T18:52:17.046788,1726570,1357,1803,-289,-1249,-664,-335,-42,132,-208
27265,8159,0,2023-03-01T18:52:17.052020,1726576,1357,1803,-289,-1249,-664,-335,-42,132,-208
27266,8160,0,2023-03-01T18:52:17.057514,1726581,1357,1803,-289,-1249,-664,-335,-42,132,-208
27267,8161,0,2023-03-01T18:52:17.063004,1726586,1408,1894,-298,-1449,-532,-448,-42,132,-208
27268,8162,0,2023-03-01T18:52:17.068762,1726593,1408,1894,-298,-1449,-532,-448,-42,132,-208
27269,8163,0,2023-03-01T18:52:17.073789,1726598,1408,1894,-298,-1449,-532,-448,-42,132,-208
27270,8164,0,2023-03-01T18:52:17.079881,1726604,1365,1822,-297,-1234,-704,-310,-42,132,-208
27271,8165,0,2023-03-01T18:52:17.085250,1726609,1365,1822,-297,-1234,-704,-310,-42,132,-208
27272,8166,0,2023-03-01T18:52:17.090021,1726614,1365,1822,-297,-1234,-704,-310,-42,132,-208
27273,8167,0,2023-03-01T18:52:17.095511,1726619,1365,1822,-297,-1234,-704,-310,-42,132,-208
27274,8168,0,2023-03-01T18:52:17.101191,1726625,1377,1846,-284,-1163,-698,-354,-41,137,-219
27275,8169,0,2023-03-01T18:52:17.107053,1726630,1377,1846,-284,-1163,-698,-354,-41,137,-219
27276,8170,0,2023-03-01T18:52:17.111830,1726636,1377,1846,-284,-1163,-698,-354,-41,137,-219
27277,8171,0,2023-03-01T18:52:17.116569,1726641,1377,1846,-284,-1163,-698,-354,-41,137,-219
27278,8172,0,2023-03-01T18:52:17.121942,1726646,1365,1819,-295,-1333,-628,-363,-41,137,-219
27279,8173,0,2023-03-01T18:52:17.128378,1726652,1365,1819,-295,-1333,-628,-363,-41,137,-219
27280,8174,0,2023-03-01T18:52:17.133190,1726657,1365,1819,-295,-1333,-628,-363,-41,137,-219
27281,8175,0,2023-03-01T18:52:17.138728,1726663,1389,1856,-277,-1405,-567,-404,-41,137,-219
27282,8176,0,2023-03-01T18:52:17.144173,1726668,1389,1856,-277,-1405,-567,-404,-41,137,-219
27283,8177,0,2023-03-01T18:52:17.148688,1726672,1389,1856,-277,-1405,-567,-404,-41,137,-219
27284,8178,0,2023-03-01T18:52:17.153516,1726678,1389,1856,-277,-1405,-567,-404,-41,137,-219
27285,8179,0,2023-03-01T18:52:17.159459,1726684,1390,1853,-316,-1203,-761,-340,-41,137,-219
27286,8180,0,2023-03-01T18:52:17.165217,1726689,1390,1853,-316,-1203,-761,-340,-41,137,-219
27287,8181,0,2023-03-01T18:52:17.169854,1726694,1390,1853,-316,-1203,-761,-340,-41,137,-219
27288,8182,0,2023-03-01T18:52:17.175461,1726699,1390,1853,-316,-1203,-761,-340,-41,137,-219
27289,8183,0,2023-03-01T18:52:17.180740,1726704,1351,1811,-266,-1189,-679,-330,-41,137,-219
27290,8184,0,2023-03-01T18:52:17.186631,1726710,1351,1811,-266,-1189,-679,-330,-41,137,-219
27291,8185,0,2023-03-01T18:52:17.191376,1726715,1351,1811,-266,-1189,-679,-330,-41,137,-219
27292,8186,0,2023-03-01T18:52:17.195922,1726720,1351,1811,-266,-1189,-679,-330,-41,137,-219
27293,8187,0,2023-03-01T18:52:17.201231,1726725,1402,1878,-312,-1356,-640,-412,-41,137,-219
27294,8188,0,2023-03-01T18:52:17.206669,1726731,1402,1878,-312,-1356,-640,-412,-41,137,-219
27295,8189,0,2023-03-01T18:52:17.211264,1726735,1402,1878,-312,-1356,-640,-412,-41,137,-219
27296,8190,0,2023-03-01T18:52:17.216839,1726741,1402,1878,-312,-1356,-640,-412,-41,137,-219
27297,8191,0,2023-03-01T18:52:17.222199,1726746,1361,1822,-278,-1234,-686,-314,-41,137,-219
27298,8192,0,2023-03-01T18:52:17.227883,1726751,1361,1822,-278,-1234,-686,-314,-41,137,-219
27299,8193,0,2023-03-01T18:52:17.233256,1726757,1361,1822,-278,-1234,-686,-314,-41,137,-219
