,Unnamed: 0,imu,server_time,arduino_time,ax,ay,az,gx,gy,gz,mx,my,mz
27300,8194,0,2023-03-01T18:52:17.239546,1726764,1392,1854,-296,-1287,-650,-384,-39,141,-219
27301,8195,0,2023-03-01T18:52:17.245164,1726769,1392,1854,-296,-1287,-650,-384,-39,141,-219
27302,8196,0,2023-03-01T18:52:17.249938,1726774,1392,1854,-296,-1287,-650,-384,-39,141,-219
27303,8197,0,2023-03-01T18:52:17.255687,1726780,1392,1854,-296,-1287,-650,-384,-39,141,-219
27304,8198,0,2023-03-01T18:52:17.261332,1726785,1361,1812,-266,-1254,-672,-342,-39,141,-219
27305,8199,0,2023-03-01T18:52:17.267022,1726791,1361,1812,-266,-1254,-672,-342,-39,141,-219
27306,8200,0,2023-03-01T18:52:17.271997,1726796,1361,1812,-266,-1254,-672,-342,-39,141,-219
27307,8201,0,2023-03-01T18:52:17.277342,1726801,1361,1812,-266,-1254,-672,-342,-39,141,-219
27308,8202,0,2023-03-01T18:52:17.282977,1726807,1395,1867,-301,-1292,-661,-390,-39,141,-219
27309,8203,0,2023-03-01T18:52:17.288543,1726813,1395,1867,-301,-1292,-661,-390,-39,141,-219
27310,8204,0,2023-03-01T18:52:17.293530,1726818,1395,1867,-301,-1292,-661,-390,-39,141,-219
27311,8205,0,2023-03-01T18:52:17.299460,1726823,1362,1817,-273,-1254,-661,-352,-39,141,-219
27312,8206,0,2023-03-01T18:52:17.304850,1726829,1362,1817,-273,-1254,-661,-352,-39,141,-219
27313,8207,0,2023-03-01T18:52:17.309557,1726834,1362,1817,-273,-1254,-661,-352,-39,141,-219
27314,8208,0,2023-03-01T18:52:17.314983,1726839,1362,1817,-273,-1254,-661,-352,-39,141,-219
27315,8209,0,2023-03-01T18:52:17.320206,1726844,1392,1865,-297,-1306,-645,-391,-39,141,-219
27316,8210,0,2023-03-01T18:52:17.325481,1726850,1392,1865,-297,-1306,-645,-391,-39,141,-219
27317,8211,0,2023-03-01T18:52:17.330272,1726855,1392,1865,-297,-1306,-645,-391,-39,141,-219
27318,8212,0,2023-03-01T18:52:17.335622,1726860,1392,1865,-297,-1306,-645,-391,-39,141,-219
27319,8213,0,2023-03-01T18:52:17.341124,1726865,1362,1817,-285,-1280,-662,-354,-39,141,-219
27320,8214,0,2023-03-01T18:52:17.348030,1726872,1362,1817,-285,-1280,-662,-354,-39,141,-219
27321,8215,0,2023-03-01T18:52:17.352809,1726877,1362,1817,-285,-1280,-662,-354,-39,141,-219
27322,8216,0,2023-03-01T18:52:17.358371,1726882,1362,1817,-285,-1280,-662,-354,-39,141,-219
27323,8217,0,2023-03-01T18:52:17.363458,1726887,1389,1858,-281,-1337,-613,-400,-39,139,-213
27324,8218,0,2023-03-01T18:52:17.369278,1726894,1389,1858,-281,-1337,-613,-400,-39,139,-213
27325,8219,0,2023-03-01T18:52:17.374170,1726898,1389,1858,-281,-1337,-613,-400,-39,139,-213
27326,8220,0,2023-03-01T18:52:17.379724,1726904,1376,1845,-292,-1214,-724,-324,-39,139,-213
27327,8221,0,2023-03-01T18:52:17.385046,1726909,1376,1845,-292,-1214,-724,-324,-39,139,-213
27328,8222,0,2023-03-01T18:52:17.389986,1726914,1376,1845,-292,-1214,-724,-324,-39,139,-213
27329,8223,0,2023-03-01T18:52:17.394782,1726919,1376,1845,-292,-1214,-724,-324,-39,139,-213
27330,8224,0,2023-03-01T18:52:17.400537,1726924,1384,1850,-285,-1346,-599,-392,-39,139,-213
27331,8225,0,2023-03-01T18:52:17.407825,1726931,1384,1850,-285,-1346,-599,-392,-39,139,-213
27332,8226,0,2023-03-01T18:52:17.413153,1726937,1384,1850,-285,-1346,-599,-392,-39,139,-213
27333,8227,0,2023-03-01T18:52:17.419390,1726944,1375,1847,-278,-1272,-658,-360,-39,139,-213
27334,8228,0,2023-03-01T18:52:17.424920,1726949,1375,1847,-278,-1272,-658,-360,-39,139,-213
27335,8229,0,2023-03-01T18:52:17.429964,1726954,1375,1847,-278,-1272,-658,-360,-39,139,-213
27336,8230,0,2023-03-01T18:52:17.435326,1726959,1375,1847,-278,-1272,-658,-360,-39,139,-213
27337,8231,0,2023-03-01T18:52:17.441091,1726965,1370,1830,-292,-1225,-684,-341,-39,139,-213
27338,8232,0,2023-03-01T18:52:17.446771,1726970,1370,1830,-292,-1225,-684,-341,-39,139,-213
27339,8233,0,2023-03-01T18:52:17.451880,1726976,1370,1830,-292,-1225,-684,-341,-39,139,-213
27340,8234,0,2023-03-01T18:52:17.458031,1726982,1370,1830,-292,-1225,-684,-341,-39,139,-213
27341,8235,0,2023-03-01T18:52:17.464284,1726988,1382,1867,-269,-1289,-616,-387,-39,139,-213
27342,8236,0,2023-03-01T18:52:17.468965,1726993,1382,1867,-269,-1289,-616,-387,-39,139,-213
27343,8237,0,2023-03-01T18:52:17.473587,1726998,1382,1867,-269,-1289,-616,-387,-39,139,-213
27344,8238,0,2023-03-01T18:52:17.479070,1727003,1376,1832,-300,-1278,-678,-331,-39,139,-213
27345,8239,0,2023-03-01T18:52:17.485241,1727009,1376,1832,-300,-1278,-678,-331,-39,139,-213
27346,8240,0,2023-03-01T18:52:17.489981,1727014,1376,1832,-300,-1278,-678,-331,-39,139,-213
27347,8241,0,2023-03-01T18:52:17.495416,1727020,1376,1832,-300,-1278,-678,-331,-39,139,-213
27348,8242,0,2023-03-01T18:52:17.500850,1727025,1373,1845,-259,-1275,-620,-377,-33,141,-213
27349,8243,0,2023-03-01T18:52:17.506793,1727031,1373,1845,-259,-1275,-620,-377,-33,141,-213
27350,8244,0,2023-03-01T18:52:17.512024,1727036,1373,1845,-259,-1275,-620,-377,-33,141,-213
27351,8245,0,2023-03-01T18:52:17.518231,1727042,1373,1845,-259,-1275,-620,-377,-33,141,-213
27352,8246,0,2023-03-01T18:52:17.523812,1727048,1393,1857,-310,-1278,-672,-367,-33,141,-213
27353,8247,0,2023-03-01T18:52:17.528157,1727052,1393,1857,-310,-1278,-672,-367,-33,141,-213
27354,8248,0,2023-03-01T18:52:17.533162,1727057,1393,1857,-310,-1278,-672,-367,-33,141,-213
27355,8249,0,2023-03-01T18:52:17.539221,1727064,1360,1809,-250,-1262,-639,-346,-33,141,-213
27356,8250,0,2023-03-01T18:52:17.544843,1727069,1360,1809,-250,-1262,-639,-346,-33,141,-213
27357,8251,0,2023-03-01T18:52:17.549306,1727074,1360,1809,-250,-1262,-639,-346,-33,141,-213
27358,8252,0,2023-03-01T18:52:17.553900,1727078,1360,1809,-250,-1262,-639,-346,-33,141,-213
27359,8253,0,2023-03-01T18:52:17.559453,1727083,1392,1873,-309,-1359,-623,-410,-33,141,-213
27360,8254,0,2023-03-01T18:52:17.565975,1727089,1392,1873,-309,-1359,-623,-410,-33,141,-213
27361,8255,0,2023-03-01T18:52:17.571391,1727095,1392,1873,-309,-1359,-623,-410,-33,141,-213
27362,8256,0,2023-03-01T18:52:17.577013,1727101,1392,1873,-309,-1359,-623,-410,-33,141,-213
27363,8257,0,2023-03-01T18:52:17.582687,1727107,1361,1831,-252,-1239,-650,-338,-33,141,-213
27364,8258,0,2023-03-01T18:52:17.588159,1727112,1361,1831,-252,-1239,-650,-338,-33,141,-213
27365,8259,0,2023-03-01T18:52:17.593197,1727117,1361,1831,-252,-1239,-650,-338,-33,141,-213
27366,8260,0,2023-03-01T18:52:17.599407,1727123,1359,1809,-289,-1258,-679,-355,-33,141,-213
27367,8261,0,2023-03-01T18:52:17.605023,1727129,1359,1809,-289,-1258,-679,-355,-33,141,-213
27368,8262,0,2023-03-01T18:52:17.609702,1727134,1359,1809,-289,-1258,-679,-355,-33,141,-213
27369,8263,0,2023-03-01T18:52:17.615506,1727139,1359,1809,-289,-1258,-679,-355,-33,141,-213
27370,8264,0,2023-03-01T18:52:17.621073,1727145,1392,1880,-260,-1356,-563,-414,-42,144,-212
27371,8265,0,2023-03-01T18:52:17.626747,1727151,1392,1880,-260,-1356,-563,-414,-42,144,-212
27372,8266,0,2023-03-01T18:52:17.631506,1727156,1392,1880,-260,-1356,-563,-414,-42,144,-212
27373,8267,0,2023-03-01T18:52:17.636495,1727161,1392,1880,-260,-1356,-563,-414,-42,144,-212
27374,8268,0,2023-03-01T18:52:17.641757,1727166,1372,1836,-292,-1191,-734,-308,-42,144,-212
27375,8269,0,2023-03-01T18:52:17.646505,1727170,1372,1836,-292,-1191,-734,-308,-42,144,-212
27376,8270,0,2023-03-01T18:52:17.651508,1727175,1372,1836,-292,-1191,-734,-308,-42,144,-212
27377,8271,0,2023-03-01T18:52:17.656894,1727181,1372,1836,-292,-1191,-734,-308,-42,144,-212
27378,8272,0,2023-03-01T18:52:17.662762,1727186,1370,1830,-257,-1307,-578,-393,-42,144,-212
27379,8273,0,2023-03-01T18:52:17.668028,1727192,1370,1830,-257,-1307,-578,-393,-42,144,-212
27380,8274,0,2023-03-01T18:52:17.672978,1727197,1370,1830,-257,-1307,-578,-393,-42,144,-212
27381,8275,0,2023-03-01T18:52:17.679396,1727203,1375,1848,-277,-1312,-643,-373,-42,144,-212
27382,8276,0,2023-03-01T18:52:17.684819,1727209,1375,1848,-277,-1312,-643,-373,-42,144,-212
27383,8277,0,2023-03-01T18:52:17.689658,1727214,1375,1848,-277,-1312,-643,-373,-42,144,-212
27384,8278,0,2023-03-01T18:52:17.694258,1727218,1375,1848,-277,-1312,-643,-373,-42,144,-212
27385,8279,0,2023-03-01T18:52:17.700485,1727223,1369,1845,-276,-1188,-707,-335,-42,144,-212
27386,8280,0,2023-03-01T18:52:17.706408,1727230,1369,1845,-276,-1188,-707,-335,-42,144,-212
27387,8281,0,2023-03-01T18:52:17.711372,1727236,1369,1845,-276,-1188,-707,-335,-42,144,-212
27388,8282,0,2023-03-01T18:52:17.716358,1727241,1369,1845,-276,-1188,-707,-335,-42,144,-212
27389,8283,0,2023-03-01T18:52:17.722351,1727246,1384,1863,-265,-1353,-578,-411,-42,144,-212
27390,8284,0,2023-03-01T18:52:17.728010,1727252,1384,1863,-265,-1353,-578,-411,-42,144,-212
27391,8285,0,2023-03-01T18:52:17.732724,1727257,1384,1863,-265,-1353,-578,-411,-42,144,-212
27392,8286,0,2023-03-01T18:52:17.738752,1727263,1384,1863,-265,-1353,-578,-411,-42,144,-212
27393,8287,0,2023-03-01T18:52:17.743507,1727267,1363,1831,-266,-1274,-680,-333,-42,144,-212
27394,8288,0,2023-03-01T18:52:17.748763,1727272,1363,1831,-266,-1274,-680,-333,-42,144,-212
27395,8289,0,2023-03-01T18:52:17.753953,1727278,1363,1831,-266,-1274,-680,-333,-42,144,-212
27396,8290,0,2023-03-01T18:52:17.759764,1727284,1365,1823,-266,-1224,-675,-350,-37,137,-205
27397,8291,0,2023-03-01T18:52:17.765270,1727290,1365,1823,-266,-1224,-675,-350,-37,137,-205
27398,8292,0,2023-03-01T18:52:17.769966,1727294,1365,1823,-266,-1224,-675,-350,-37,137,-205
27399,8293,0,2023-03-01T18:52:17.774579,1727299,1365,1823,-266,-1224,-675,-350,-37,137,-205
27400,8294,0,2023-03-01T18:52:17.780167,1727304,1394,1878,-262,-1353,-579,-407,-37,137,-205
27401,8295,0,2023-03-01T18:52:17.785879,1727310,1394,1878,-262,-1353,-579,-407,-37,137,-205
27402,8296,0,2023-03-01T18:52:17.790889,1727314,1394,1878,-262,-1353,-579,-407,-37,137,-205
27403,8297,0,2023-03-01T18:52:17.795557,1727320,1394,1878,-262,-1353,-579,-407,-37,137,-205
27404,8298,0,2023-03-01T18:52:17.801333,1727326,1369,1829,-276,-1218,-721,-319,-37,137,-205
27405,8299,0,2023-03-01T18:52:17.807147,1727331,1369,1829,-276,-1218,-721,-319,-37,137,-205
27406,8300,0,2023-03-01T18:52:17.812209,1727336,1369,1829,-276,-1218,-721,-319,-37,137,-205
27407,8301,0,2023-03-01T18:52:17.817128,1727341,1369,1829,-276,-1218,-721,-319,-37,137,-205
27408,8302,0,2023-03-01T18:52:17.822734,1727347,1363,1824,-258,-1282,-606,-380,-37,137,-205
27409,8303,0,2023-03-01T18:52:17.828670,1727352,1363,1824,-258,-1282,-606,-380,-37,137,-205
27410,8304,0,2023-03-01T18:52:17.833239,1727357,1363,1824,-258,-1282,-606,-380,-37,137,-205
27411,8305,0,2023-03-01T18:52:17.839237,1727364,1384,1862,-266,-1324,-618,-387,-37,137,-205
27412,8306,0,2023-03-01T18:52:17.844472,1727369,1384,1862,-266,-1324,-618,-387,-37,137,-205
27413,8307,0,2023-03-01T18:52:17.849364,1727374,1384,1862,-266,-1324,-618,-387,-37,137,-205
27414,8308,0,2023-03-01T18:52:17.854394,1727378,1384,1862,-266,-1324,-618,-387,-37,137,-205
27415,8309,0,2023-03-01T18:52:17.860705,1727385,1367,1833,-280,-1197,-726,-324,-37,137,-205
27416,8310,0,2023-03-01T18:52:17.866748,1727391,1367,1833,-280,-1197,-726,-324,-37,137,-205
27417,8311,0,2023-03-01T18:52:17.871690,1727395,1367,1833,-280,-1197,-726,-324,-37,137,-205
27418,8312,0,2023-03-01T18:52:17.877280,1727401,1367,1833,-280,-1197,-726,-324,-37,137,-205
27419,8313,0,2023-03-01T18:52:17.882478,1727407,1380,1861,-254,-1336,-591,-402,-34,146,-212
27420,8314,0,2023-03-01T18:52:17.888514,1727412,1380,1861,-254,-1336,-591,-402,-34,146,-212
27421,8315,0,2023-03-01T18:52:17.893958,1727418,1380,1861,-254,-1336,-591,-402,-34,146,-212
27422,8316,0,2023-03-01T18:52:17.900613,1727424,1369,1831,-257,-1252,-693,-329,-34,146,-212
27423,8317,0,2023-03-01T18:52:17.906593,1727431,1369,1831,-257,-1252,-693,-329,-34,146,-212
27424,8318,0,2023-03-01T18:52:17.911600,1727435,1369,1831,-257,-1252,-693,-329,-34,146,-212
27425,8319,0,2023-03-01T18:52:17.917139,1727441,1369,1831,-257,-1252,-693,-329,-34,146,-212
27426,8320,0,2023-03-01T18:52:17.922953,1727447,1356,1812,-260,-1247,-671,-355,-34,146,-212
27427,8321,0,2023-03-01T18:52:17.928755,1727453,1356,1812,-260,-1247,-671,-355,-34,146,-212
27428,8322,0,2023-03-01T18:52:17.933491,1727458,1356,1812,-260,-1247,-671,-355,-34,146,-212
27429,8323,0,2023-03-01T18:52:17.939744,1727464,1394,1883,-260,-1377,-570,-428,-34,146,-212
27430,8324,0,2023-03-01T18:52:17.945445,1727469,1394,1883,-260,-1377,-570,-428,-34,146,-212
27431,8325,0,2023-03-01T18:52:17.950408,1727474,1394,1883,-260,-1377,-570,-428,-34,146,-212
27432,8326,0,2023-03-01T18:52:17.956553,1727480,1394,1883,-260,-1377,-570,-428,-34,146,-212
27433,8327,0,2023-03-01T18:52:17.962386,1727486,1370,1833,-274,-1206,-732,-319,-34,146,-212
27434,8328,0,2023-03-01T18:52:17.967747,1727492,1370,1833,-274,-1206,-732,-319,-34,146,-212
27435,8329,0,2023-03-01T18:52:17.972504,1727497,1370,1833,-274,-1206,-732,-319,-34,146,-212
27436,8330,0,2023-03-01T18:52:17.978362,1727503,1370,1833,-274,-1206,-732,-319,-34,146,-212
27437,8331,0,2023-03-01T18:52:17.983165,1727507,1349,1806,-249,-1244,-646,-360,-34,146,-212
27438,8332,0,2023-03-01T18:52:17.989213,1727513,1349,1806,-249,-1244,-646,-360,-34,146,-212
27439,8333,0,2023-03-01T18:52:17.994006,1727518,1349,1806,-249,-1244,-646,-360,-34,146,-212
27440,8334,0,2023-03-01T18:52:18.000653,1727524,1397,1880,-267,-1376,-594,-411,-37,137,-203
27441,8335,0,2023-03-01T18:52:18.006467,1727531,1397,1880,-267,-1376,-594,-411,-37,137,-203
27442,8336,0,2023-03-01T18:52:18.012073,1727536,1397,1880,-267,-1376,-594,-411,-37,137,-203
27443,8337,0,2023-03-01T18:52:18.017240,1727541,1397,1880,-267,-1376,-594,-411,-37,137,-203
27444,8338,0,2023-03-01T18:52:18.022614,1727547,1365,1838,-258,-1206,-731,-321,-37,137,-203
27445,8339,0,2023-03-01T18:52:18.028071,1727552,1365,1838,-258,-1206,-731,-321,-37,137,-203
27446,8340,0,2023-03-01T18:52:18.033072,1727557,1365,1838,-258,-1206,-731,-321,-37,137,-203
27447,8341,0,2023-03-01T18:52:18.038872,1727563,1365,1838,-258,-1206,-731,-321,-37,137,-203
27448,8342,0,2023-03-01T18:52:18.043923,1727567,1366,1831,-256,-1304,-615,-381,-37,137,-203
27449,8343,0,2023-03-01T18:52:18.050376,1727575,1366,1831,-256,-1304,-615,-381,-37,137,-203
27450,8344,0,2023-03-01T18:52:18.055393,1727580,1366,1831,-256,-1304,-615,-381,-37,137,-203
27451,8345,0,2023-03-01T18:52:18.061382,1727585,1377,1850,-254,-1292,-648,-365,-37,137,-203
27452,8346,0,2023-03-01T18:52:18.066963,1727591,1377,1850,-254,-1292,-648,-365,-37,137,-203
27453,8347,0,2023-03-01T18:52:18.071753,1727596,1377,1850,-254,-1292,-648,-365,-37,137,-203
27454,8348,0,2023-03-01T18:52:18.077288,1727601,1377,1850,-254,-1292,-648,-365,-37,137,-203
27455,8349,0,2023-03-01T18:52:18.082887,1727606,1359,1818,-263,-1229,-702,-335,-37,137,-203
27456,8350,0,2023-03-01T18:52:18.088829,1727612,1359,1818,-263,-1229,-702,-335,-37,137,-203
27457,8351,0,2023-03-01T18:52:18.093488,1727618,1359,1818,-263,-1229,-702,-335,-37,137,-203
27458,8352,0,2023-03-01T18:52:18.100084,1727624,1390,1879,-251,-1356,-572,-416,-37,137,-203
27459,8353,0,2023-03-01T18:52:18.105519,1727630,1390,1879,-251,-1356,-572,-416,-37,137,-203
27460,8354,0,2023-03-01T18:52:18.111695,1727636,1390,1879,-251,-1356,-572,-416,-37,137,-203
27461,8355,0,2023-03-01T18:52:18.116278,1727640,1390,1879,-251,-1356,-572,-416,-37,137,-203
27462,8356,0,2023-03-01T18:52:18.121696,1727646,1363,1835,-260,-1222,-730,-314,-37,137,-203
27463,8357,0,2023-03-01T18:52:18.127028,1727651,1363,1835,-260,-1222,-730,-314,-37,137,-203
27464,8358,0,2023-03-01T18:52:18.132003,1727656,1363,1835,-260,-1222,-730,-314,-37,137,-203
27465,8359,0,2023-03-01T18:52:18.137671,1727662,1363,1835,-260,-1222,-730,-314,-37,137,-203
27466,8360,0,2023-03-01T18:52:18.143157,1727668,1364,1829,-243,-1299,-619,-382,-47,135,-211
27467,8361,0,2023-03-01T18:52:18.148496,1727673,1364,1829,-243,-1299,-619,-382,-47,135,-211
27468,8362,0,2023-03-01T18:52:18.153337,1727677,1364,1829,-243,-1299,-619,-382,-47,135,-211
27469,8363,0,2023-03-01T18:52:18.159459,1727683,1377,1856,-249,-1320,-632,-381,-47,135,-211
27470,8364,0,2023-03-01T18:52:18.164792,1727689,1377,1856,-249,-1320,-632,-381,-47,135,-211
27471,8365,0,2023-03-01T18:52:18.169979,1727694,1377,1856,-249,-1320,-632,-381,-47,135,-211
27472,8366,0,2023-03-01T18:52:18.174841,1727698,1377,1856,-249,-1320,-632,-381,-47,135,-211
27473,8367,0,2023-03-01T18:52:18.180451,1727705,1368,1847,-257,-1192,-731,-325,-47,135,-211
27474,8368,0,2023-03-01T18:52:18.186170,1727710,1368,1847,-257,-1192,-731,-325,-47,135,-211
27475,8369,0,2023-03-01T18:52:18.190957,1727715,1368,1847,-257,-1192,-731,-325,-47,135,-211
27476,8370,0,2023-03-01T18:52:18.196353,1727720,1368,1847,-257,-1192,-731,-325,-47,135,-211
27477,8371,0,2023-03-01T18:52:18.202087,1727726,1377,1856,-247,-1350,-596,-408,-47,135,-211
27478,8372,0,2023-03-01T18:52:18.207505,1727731,1377,1856,-247,-1350,-596,-408,-47,135,-211
27479,8373,0,2023-03-01T18:52:18.212224,1727736,1377,1856,-247,-1350,-596,-408,-47,135,-211
27480,8374,0,2023-03-01T18:52:18.218415,1727742,1377,1856,-247,-1350,-596,-408,-47,135,-211
27481,8375,0,2023-03-01T18:52:18.223294,1727748,1361,1831,-247,-1273,-670,-338,-47,135,-211
27482,8376,0,2023-03-01T18:52:18.228548,1727753,1361,1831,-247,-1273,-670,-338,-47,135,-211
27483,8377,0,2023-03-01T18:52:18.233330,1727758,1361,1831,-247,-1273,-670,-338,-47,135,-211
27484,8378,0,2023-03-01T18:52:18.239320,1727763,1361,1831,-247,-1273,-670,-338,-47,135,-211
27485,8379,0,2023-03-01T18:52:18.244220,1727768,1360,1831,-247,-1204,-704,-352,-47,135,-211
27486,8380,0,2023-03-01T18:52:18.249475,1727773,1360,1831,-247,-1204,-704,-352,-47,135,-211
27487,8381,0,2023-03-01T18:52:18.254250,1727778,1360,1831,-247,-1204,-704,-352,-47,135,-211
27488,8382,0,2023-03-01T18:52:18.260516,1727784,1386,1874,-245,-1384,-582,-423,-36,136,-200
27489,8383,0,2023-03-01T18:52:18.266115,1727791,1386,1874,-245,-1384,-582,-423,-36,136,-200
27490,8384,0,2023-03-01T18:52:18.270831,1727795,1386,1874,-245,-1384,-582,-423,-36,136,-200
27491,8385,0,2023-03-01T18:52:18.275933,1727800,1386,1874,-245,-1384,-582,-423,-36,136,-200
27492,8386,0,2023-03-01T18:52:18.281172,1727805,1356,1826,-241,-1265,-708,-331,-36,136,-200
27493,8387,0,2023-03-01T18:52:18.287219,1727811,1356,1826,-241,-1265,-708,-331,-36,136,-200
27494,8388,0,2023-03-01T18:52:18.292065,1727816,1356,1826,-241,-1265,-708,-331,-36,136,-200
27495,8389,0,2023-03-01T18:52:18.297328,1727821,1356,1826,-241,-1265,-708,-331,-36,136,-200
27496,8390,0,2023-03-01T18:52:18.302771,1727826,1365,1829,-252,-1229,-701,-369,-36,136,-200
27497,8391,0,2023-03-01T18:52:18.307471,1727832,1365,1829,-252,-1229,-701,-369,-36,136,-200
27498,8392,0,2023-03-01T18:52:18.312185,1727837,1365,1829,-252,-1229,-701,-369,-36,136,-200
27499,8393,0,2023-03-01T18:52:18.318259,1727842,1365,1829,-252,-1229,-701,-369,-36,136,-200
27500,8394,0,2023-03-01T18:52:18.323155,1727847,1381,1863,-240,-1302,-661,-379,-36,136,-200
27501,8395,0,2023-03-01T18:52:18.331232,1727855,1381,1863,-240,-1302,-661,-379,-36,136,-200
27502,8396,0,2023-03-01T18:52:18.336828,1727860,1381,1863,-240,-1302,-661,-379,-36,136,-200
27503,8397,0,2023-03-01T18:52:18.342378,1727866,1369,1835,-249,-1296,-675,-355,-36,136,-200
27504,8398,0,2023-03-01T18:52:18.347784,1727872,1369,1835,-249,-1296,-675,-355,-36,136,-200
27505,8399,0,2023-03-01T18:52:18.352548,1727877,1369,1835,-249,-1296,-675,-355,-36,136,-200
27506,8400,0,2023-03-01T18:52:18.358068,1727883,1369,1835,-249,-1296,-675,-355,-36,136,-200
27507,8401,0,2023-03-01T18:52:18.363269,1727887,1365,1840,-230,-1286,-658,-374,-36,136,-200
27508,8402,0,2023-03-01T18:52:18.368644,1727893,1365,1840,-230,-1286,-658,-374,-36,136,-200
27509,8403,0,2023-03-01T18:52:18.373709,1727898,1365,1840,-230,-1286,-658,-374,-36,136,-200
27510,8404,0,2023-03-01T18:52:18.379747,1727903,1365,1840,-230,-1286,-658,-374,-36,136,-200
27511,8405,0,2023-03-01T18:52:18.384339,1727908,1387,1860,-259,-1311,-673,-378,-36,136,-200
27512,8406,0,2023-03-01T18:52:18.389440,1727913,1387,1860,-259,-1311,-673,-378,-36,136,-200
27513,8407,0,2023-03-01T18:52:18.394289,1727919,1387,1860,-259,-1311,-673,-378,-36,136,-200
27514,8408,0,2023-03-01T18:52:18.400540,1727925,1348,1813,-216,-1277,-665,-358,-34,134,-216
27515,8409,0,2023-03-01T18:52:18.405887,1727930,1348,1813,-216,-1277,-665,-358,-34,134,-216
27516,8410,0,2023-03-01T18:52:18.411060,1727935,1348,1813,-216,-1277,-665,-358,-34,134,-216
27517,8411,0,2023-03-01T18:52:18.415770,1727940,1348,1813,-216,-1277,-665,-358,-34,134,-216
27518,8412,0,2023-03-01T18:52:18.421310,1727945,1390,1873,-257,-1317,-665,-393,-34,134,-216
27519,8413,0,2023-03-01T18:52:18.426940,1727951,1390,1873,-257,-1317,-665,-393,-34,134,-216
27520,8414,0,2023-03-01T18:52:18.431688,1727955,1390,1873,-257,-1317,-665,-393,-34,134,-216
27521,8415,0,2023-03-01T18:52:18.436844,1727961,1390,1873,-257,-1317,-665,-393,-34,134,-216
27522,8416,0,2023-03-01T18:52:18.443151,1727967,1347,1806,-218,-1264,-657,-325,-34,134,-216
27523,8417,0,2023-03-01T18:52:18.448735,1727973,1347,1806,-218,-1264,-657,-325,-34,134,-216
27524,8418,0,2023-03-01T18:52:18.453662,1727978,1347,1806,-218,-1264,-657,-325,-34,134,-216
27525,8419,0,2023-03-01T18:52:18.459494,1727983,1347,1806,-218,-1264,-657,-325,-34,134,-216
27526,8420,0,2023-03-01T18:52:18.464396,1727988,1391,1873,-253,-1331,-638,-410,-34,134,-216
27527,8421,0,2023-03-01T18:52:18.469733,1727993,1391,1873,-253,-1331,-638,-410,-34,134,-216
27528,8422,0,2023-03-01T18:52:18.474646,1727998,1391,1873,-253,-1331,-638,-410,-34,134,-216
27529,8423,0,2023-03-01T18:52:18.480709,1728005,1358,1830,-229,-1216,-706,-330,-34,134,-216
27530,8424,0,2023-03-01T18:52:18.487419,1728011,1358,1830,-229,-1216,-706,-330,-34,134,-216
27531,8425,0,2023-03-01T18:52:18.492315,1728017,1358,1830,-229,-1216,-706,-330,-34,134,-216
27532,8426,0,2023-03-01T18:52:18.497706,1728022,1358,1830,-229,-1216,-706,-330,-34,134,-216
27533,8427,0,2023-03-01T18:52:18.502949,1728027,1376,1858,-244,-1346,-618,-406,-34,134,-216
27534,8428,0,2023-03-01T18:52:18.509735,1728033,1376,1858,-244,-1346,-618,-406,-34,134,-216
27535,8429,0,2023-03-01T18:52:18.514631,1728038,1376,1858,-244,-1346,-618,-406,-34,134,-216
27536,8430,0,2023-03-01T18:52:18.520588,1728045,1363,1839,-220,-1285,-670,-362,-35,143,-209
27537,8431,0,2023-03-01T18:52:18.526487,1728050,1363,1839,-220,-1285,-670,-362,-35,143,-209
27538,8432,0,2023-03-01T18:52:18.531712,1728056,1363,1839,-220,-1285,-670,-362,-35,143,-209
27539,8433,0,2023-03-01T18:52:18.536306,1728060,1363,1839,-220,-1285,-670,-362,-35,143,-209
27540,8434,0,2023-03-01T18:52:18.541800,1728066,1351,1820,-236,-1215,-713,-333,-35,143,-209
27541,8435,0,2023-03-01T18:52:18.547509,1728071,1351,1820,-236,-1215,-713,-333,-35,143,-209
27542,8436,0,2023-03-01T18:52:18.552312,1728076,1351,1820,-236,-1215,-713,-333,-35,143,-209
27543,8437,0,2023-03-01T18:52:18.557044,1728081,1351,1820,-236,-1215,-713,-333,-35,143,-209
27544,8438,0,2023-03-01T18:52:18.562430,1728087,1393,1889,-232,-1440,-549,-458,-35,143,-209
27545,8439,0,2023-03-01T18:52:18.568355,1728093,1393,1889,-232,-1440,-549,-458,-35,143,-209
27546,8440,0,2023-03-01T18:52:18.573509,1728098,1393,1889,-232,-1440,-549,-458,-35,143,-209
27547,8441,0,2023-03-01T18:52:18.579369,1728104,1393,1889,-232,-1440,-549,-458,-35,143,-209
27548,8442,0,2023-03-01T18:52:18.584279,1728108,1349,1815,-238,-1285,-706,-326,-35,143,-209
27549,8443,0,2023-03-01T18:52:18.590236,1728114,1349,1815,-238,-1285,-706,-326,-35,143,-209
27550,8444,0,2023-03-01T18:52:18.595214,1728119,1349,1815,-238,-1285,-706,-326,-35,143,-209
27551,8445,0,2023-03-01T18:52:18.601275,1728125,1374,1865,-234,-1170,-686,-369,-35,143,-209
27552,8446,0,2023-03-01T18:52:18.606827,1728131,1374,1865,-234,-1170,-686,-369,-35,143,-209
27553,8447,0,2023-03-01T18:52:18.611522,1728136,1374,1865,-234,-1170,-686,-369,-35,143,-209
27554,8448,0,2023-03-01T18:52:18.617749,1728142,1374,1865,-234,-1170,-686,-369,-35,143,-209
27555,8449,0,2023-03-01T18:52:18.623187,1728147,1344,1804,-229,-1273,-647,-344,-35,143,-209
27556,8450,0,2023-03-01T18:52:18.628651,1728153,1344,1804,-229,-1273,-647,-344,-35,143,-209
27557,8451,0,2023-03-01T18:52:18.633364,1728157,1344,1804,-229,-1273,-647,-344,-35,143,-209
27558,8452,0,2023-03-01T18:52:18.638923,1728163,1344,1804,-229,-1273,-647,-344,-35,143,-209
27559,8453,0,2023-03-01T18:52:18.643407,1728167,1391,1884,-221,-1426,-544,-427,-35,143,-209
27560,8454,0,2023-03-01T18:52:18.648771,1728173,1391,1884,-221,-1426,-544,-427,-35,143,-209
27561,8455,0,2023-03-01T18:52:18.653736,1728178,1391,1884,-221,-1426,-544,-427,-35,143,-209
27562,8456,0,2023-03-01T18:52:18.660337,1728184,1391,1884,-221,-1426,-544,-427,-35,143,-209
27563,8457,0,2023-03-01T18:52:18.665321,1728190,1369,1842,-246,-1200,-724,-332,-37,139,-209
27564,8458,0,2023-03-01T18:52:18.670610,1728195,1369,1842,-246,-1200,-724,-332,-37,139,-209
27565,8459,0,2023-03-01T18:52:18.677061,1728201,1369,1842,-246,-1200,-724,-332,-37,139,-209
27566,8460,0,2023-03-01T18:52:18.682456,1728206,1349,1816,-205,-1167,-676,-335,-37,139,-209
27567,8461,0,2023-03-01T18:52:18.688439,1728212,1349,1816,-205,-1167,-676,-335,-37,139,-209
27568,8462,0,2023-03-01T18:52:18.693505,1728218,1349,1816,-205,-1167,-676,-335,-37,139,-209
27569,8463,0,2023-03-01T18:52:18.699765,1728224,1349,1816,-205,-1167,-676,-335,-37,139,-209
27570,8464,0,2023-03-01T18:52:18.704762,1728229,1386,1875,-247,-1350,-629,-412,-37,139,-209
27571,8465,0,2023-03-01T18:52:18.710670,1728235,1386,1875,-247,-1350,-629,-412,-37,139,-209
27572,8466,0,2023-03-01T18:52:18.716218,1728240,1386,1875,-247,-1350,-629,-412,-37,139,-209
27573,8467,0,2023-03-01T18:52:18.721246,1728245,1351,1825,-220,-1241,-676,-341,-37,139,-209
27574,8468,0,2023-03-01T18:52:18.727052,1728251,1351,1825,-220,-1241,-676,-341,-37,139,-209
27575,8469,0,2023-03-01T18:52:18.731775,1728256,1351,1825,-220,-1241,-676,-341,-37,139,-209
27576,8470,0,2023-03-01T18:52:18.737249,1728262,1351,1825,-220,-1241,-676,-341,-37,139,-209
27577,8471,0,2023-03-01T18:52:18.743034,1728267,1359,1822,-238,-1246,-660,-362,-37,139,-209
27578,8472,0,2023-03-01T18:52:18.748484,1728273,1359,1822,-238,-1246,-660,-362,-37,139,-209
27579,8473,0,2023-03-01T18:52:18.753427,1728278,1359,1822,-238,-1246,-660,-362,-37,139,-209
27580,8474,0,2023-03-01T18:52:18.758863,1728283,1359,1822,-238,-1246,-660,-362,-37,139,-209
27581,8475,0,2023-03-01T18:52:18.763603,1728288,1379,1869,-217,-1333,-606,-414,-37,139,-209
27582,8476,0,2023-03-01T18:52:18.769272,1728293,1379,1869,-217,-1333,-606,-414,-37,139,-209
27583,8477,0,2023-03-01T18:52:18.774178,1728299,1379,1869,-217,-1333,-606,-414,-37,139,-209
27584,8478,0,2023-03-01T18:52:18.780002,1728304,1379,1869,-217,-1333,-606,-414,-37,139,-209
27585,8479,0,2023-03-01T18:52:18.784599,1728309,1361,1835,-236,-1203,-738,-324,-33,133,-209
27586,8480,0,2023-03-01T18:52:18.790620,1728315,1361,1835,-236,-1203,-738,-324,-33,133,-209
27587,8481,0,2023-03-01T18:52:18.796152,1728320,1361,1835,-236,-1203,-738,-324,-33,133,-209
27588,8482,0,2023-03-01T18:52:18.801609,1728326,1373,1855,-210,-1293,-568,-403,-33,133,-209
27589,8483,0,2023-03-01T18:52:18.806910,1728331,1373,1855,-210,-1293,-568,-403,-33,133,-209
27590,8484,0,2023-03-01T18:52:18.811514,1728335,1373,1855,-210,-1293,-568,-403,-33,133,-209
27591,8485,0,2023-03-01T18:52:18.816464,1728340,1373,1855,-210,-1293,-568,-403,-33,133,-209
27592,8486,0,2023-03-01T18:52:18.822215,1728347,1363,1834,-224,-1264,-684,-345,-33,133,-209
27593,8487,0,2023-03-01T18:52:18.827837,1728352,1363,1834,-224,-1264,-684,-345,-33,133,-209
27594,8488,0,2023-03-01T18:52:18.832498,1728357,1363,1834,-224,-1264,-684,-345,-33,133,-209
27595,8489,0,2023-03-01T18:52:18.837960,1728362,1363,1834,-224,-1264,-684,-345,-33,133,-209
27596,8490,0,2023-03-01T18:52:18.843408,1728367,1356,1819,-219,-1232,-659,-357,-33,133,-209
27597,8491,0,2023-03-01T18:52:18.849999,1728374,1356,1819,-219,-1232,-659,-357,-33,133,-209
27598,8492,0,2023-03-01T18:52:18.854984,1728378,1356,1819,-219,-1232,-659,-357,-33,133,-209
27599,8493,0,2023-03-01T18:52:18.860064,1728385,1356,1819,-219,-1232,-659,-357,-33,133,-209
27600,8494,0,2023-03-01T18:52:18.865098,1728390,1386,1880,-221,-1357,-573,-432,-33,133,-209
27601,8495,0,2023-03-01T18:52:18.870570,1728395,1386,1880,-221,-1357,-573,-432,-33,133,-209
27602,8496,0,2023-03-01T18:52:18.875482,1728400,1386,1880,-221,-1357,-573,-432,-33,133,-209
27603,8497,0,2023-03-01T18:52:18.881431,1728405,1355,1837,-233,-1201,-713,-320,-33,133,-209
27604,8498,0,2023-03-01T18:52:18.887233,1728411,1355,1837,-233,-1201,-713,-320,-33,133,-209
27605,8499,0,2023-03-01T18:52:18.892214,1728416,1355,1837,-233,-1201,-713,-320,-33,133,-209
27606,8500,0,2023-03-01T18:52:18.897636,1728421,1355,1837,-233,-1201,-713,-320,-33,133,-209
27607,8501,0,2023-03-01T18:52:18.903106,1728428,1353,1821,-209,-1263,-618,-387,-32,140,-206
27608,8502,0,2023-03-01T18:52:18.908562,1728433,1353,1821,-209,-1263,-618,-387,-32,140,-206
27609,8503,0,2023-03-01T18:52:18.913090,1728438,1353,1821,-209,-1263,-618,-387,-32,140,-206
27610,8504,0,2023-03-01T18:52:18.918972,1728443,1353,1821,-209,-1263,-618,-387,-32,140,-206
27611,8505,0,2023-03-01T18:52:18.924068,1728448,1375,1860,-213,-1311,-624,-400,-32,140,-206
27612,8506,0,2023-03-01T18:52:18.929745,1728454,1375,1860,-213,-1311,-624,-400,-32,140,-206
27613,8507,0,2023-03-01T18:52:18.934608,1728458,1375,1860,-213,-1311,-624,-400,-32,140,-206
27614,8508,0,2023-03-01T18:52:18.940655,1728464,1370,1850,-225,-1183,-718,-327,-32,140,-206
27615,8509,0,2023-03-01T18:52:18.945269,1728470,1370,1850,-225,-1183,-718,-327,-32,140,-206
27616,8510,0,2023-03-01T18:52:18.950249,1728475,1370,1850,-225,-1183,-718,-327,-32,140,-206
27617,8511,0,2023-03-01T18:52:18.954994,1728479,1370,1850,-225,-1183,-718,-327,-32,140,-206
27618,8512,0,2023-03-01T18:52:18.961102,1728485,1356,1827,-212,-1331,-577,-393,-32,140,-206
27619,8513,0,2023-03-01T18:52:18.966782,1728491,1356,1827,-212,-1331,-577,-393,-32,140,-206
27620,8514,0,2023-03-01T18:52:18.971425,1728495,1356,1827,-212,-1331,-577,-393,-32,140,-206
27621,8515,0,2023-03-01T18:52:18.976211,1728500,1356,1827,-212,-1331,-577,-393,-32,140,-206
27622,8516,0,2023-03-01T18:52:18.982130,1728506,1373,1853,-216,-1339,-611,-382,-32,140,-206
27623,8517,0,2023-03-01T18:52:18.988515,1728513,1373,1853,-216,-1339,-611,-382,-32,140,-206
27624,8518,0,2023-03-01T18:52:18.993612,1728518,1373,1853,-216,-1339,-611,-382,-32,140,-206
27625,8519,0,2023-03-01T18:52:18.999685,1728524,1373,1853,-216,-1339,-611,-382,-32,140,-206
27626,8520,0,2023-03-01T18:52:19.004889,1728529,1377,1858,-237,-1168,-719,-348,-32,140,-206
27627,8521,0,2023-03-01T18:52:19.010487,1728534,1377,1858,-237,-1168,-719,-348,-32,140,-206
27628,8522,0,2023-03-01T18:52:19.015686,1728540,1377,1858,-237,-1168,-719,-348,-32,140,-206
27629,8523,0,2023-03-01T18:52:19.021659,1728545,1351,1820,-201,-1238,-634,-358,-32,140,-206
27630,8524,0,2023-03-01T18:52:19.027170,1728551,1351,1820,-201,-1238,-634,-358,-32,140,-206
27631,8525,0,2023-03-01T18:52:19.032265,1728557,1351,1820,-201,-1238,-634,-358,-32,140,-206
27632,8526,0,2023-03-01T18:52:19.037375,1728562,1351,1820,-201,-1238,-634,-358,-32,140,-206
27633,8527,0,2023-03-01T18:52:19.043382,1728567,1371,1858,-213,-1283,-660,-372,-37,141,-207
27634,8528,0,2023-03-01T18:52:19.048731,1728573,1371,1858,-213,-1283,-660,-372,-37,141,-207
27635,8529,0,2023-03-01T18:52:19.053842,1728578,1371,1858,-213,-1283,-660,-372,-37,141,-207
27636,8530,0,2023-03-01T18:52:19.060296,1728584,1371,1858,-213,-1283,-660,-372,-37,141,-207
27637,8531,0,2023-03-01T18:52:19.065592,1728589,1365,1833,-218,-1256,-663,-359,-37,141,-207
27638,8532,0,2023-03-01T18:52:19.071952,1728596,1365,1833,-218,-1256,-663,-359,-37,141,-207
27639,8533,0,2023-03-01T18:52:19.076926,1728601,1365,1833,-218,-1256,-663,-359,-37,141,-207
27640,8534,0,2023-03-01T18:52:19.081561,1728606,1360,1851,-203,-1282,-636,-371,-37,141,-207
27641,8535,0,2023-03-01T18:52:19.087725,1728612,1360,1851,-203,-1282,-636,-371,-37,141,-207
27642,8536,0,2023-03-01T18:52:19.093121,1728617,1360,1851,-203,-1282,-636,-371,-37,141,-207
27643,8537,0,2023-03-01T18:52:19.099277,1728623,1360,1851,-203,-1282,-636,-371,-37,141,-207
27644,8538,0,2023-03-01T18:52:19.104199,1728628,1371,1848,-230,-1271,-677,-362,-37,141,-207
27645,8539,0,2023-03-01T18:52:19.109562,1728633,1371,1848,-230,-1271,-677,-362,-37,141,-207
27646,8540,0,2023-03-01T18:52:19.114480,1728638,1371,1848,-230,-1271,-677,-362,-37,141,-207
27647,8541,0,2023-03-01T18:52:19.120350,1728645,1371,1848,-230,-1271,-677,-362,-37,141,-207
27648,8542,0,2023-03-01T18:52:19.125305,1728650,1353,1841,-191,-1261,-634,-364,-37,141,-207
27649,8543,0,2023-03-01T18:52:19.130698,1728655,1353,1841,-191,-1261,-634,-364,-37,141,-207
27650,8544,0,2023-03-01T18:52:19.136225,1728660,1353,1841,-191,-1261,-634,-364,-37,141,-207
27651,8545,0,2023-03-01T18:52:19.141480,1728666,1383,1862,-235,-1327,-637,-380,-37,141,-207
27652,8546,0,2023-03-01T18:52:19.147166,1728671,1383,1862,-235,-1327,-637,-380,-37,141,-207
27653,8547,0,2023-03-01T18:52:19.152463,1728676,1383,1862,-235,-1327,-637,-380,-37,141,-207
27654,8548,0,2023-03-01T18:52:19.158040,1728683,1383,1862,-235,-1327,-637,-380,-37,141,-207
27655,8549,0,2023-03-01T18:52:19.163426,1728688,1351,1833,-187,-1248,-639,-360,-30,146,-204
27656,8550,0,2023-03-01T18:52:19.169002,1728693,1351,1833,-187,-1248,-639,-360,-30,146,-204
27657,8551,0,2023-03-01T18:52:19.174074,1728698,1351,1833,-187,-1248,-639,-360,-30,146,-204
27658,8552,0,2023-03-01T18:52:19.179755,1728704,1351,1833,-187,-1248,-639,-360,-30,146,-204
27659,8553,0,2023-03-01T18:52:19.184316,1728708,1367,1829,-231,-1252,-674,-347,-30,146,-204
27660,8554,0,2023-03-01T18:52:19.189856,1728714,1367,1829,-231,-1252,-674,-347,-30,146,-204
27661,8555,0,2023-03-01T18:52:19.194797,1728719,1367,1829,-231,-1252,-674,-347,-30,146,-204
27662,8556,0,2023-03-01T18:52:19.200859,1728724,1367,1829,-231,-1252,-674,-347,-30,146,-204
27663,8557,0,2023-03-01T18:52:19.206288,1728730,1370,1858,-187,-1293,-614,-386,-30,146,-204
27664,8558,0,2023-03-01T18:52:19.213073,1728737,1370,1858,-187,-1293,-614,-386,-30,146,-204
27665,8559,0,2023-03-01T18:52:19.219609,1728743,1370,1858,-187,-1293,-614,-386,-30,146,-204
27666,8560,0,2023-03-01T18:52:19.224670,1728749,1349,1807,-225,-1232,-719,-329,-30,146,-204
27667,8561,0,2023-03-01T18:52:19.230370,1728754,1349,1807,-225,-1232,-719,-329,-30,146,-204
27668,8562,0,2023-03-01T18:52:19.235233,1728759,1349,1807,-225,-1232,-719,-329,-30,146,-204
27669,8563,0,2023-03-01T18:52:19.241381,1728765,1382,1879,-191,-1346,-571,-425,-30,146,-204
27670,8564,0,2023-03-01T18:52:19.246221,1728771,1382,1879,-191,-1346,-571,-425,-30,146,-204
27671,8565,0,2023-03-01T18:52:19.251224,1728776,1382,1879,-191,-1346,-571,-425,-30,146,-204
27672,8566,0,2023-03-01T18:52:19.255847,1728780,1382,1879,-191,-1346,-571,-425,-30,146,-204
27673,8567,0,2023-03-01T18:52:19.261597,1728786,1356,1833,-233,-1213,-748,-324,-30,146,-204
27674,8568,0,2023-03-01T18:52:19.267145,1728791,1356,1833,-233,-1213,-748,-324,-30,146,-204
27675,8569,0,2023-03-01T18:52:19.272104,1728796,1356,1833,-233,-1213,-748,-324,-30,146,-204
27676,8570,0,2023-03-01T18:52:19.277122,1728801,1356,1833,-233,-1213,-748,-324,-30,146,-204
27677,8571,0,2023-03-01T18:52:19.282859,1728806,1356,1833,-233,-1213,-748,-324,-30,146,-204
27678,8572,0,2023-03-01T18:52:19.287863,1728812,1356,1833,-233,-1213,-748,-324,-30,146,-204
27679,8573,0,2023-03-01T18:52:19.292400,1728817,1356,1833,-233,-1213,-748,-324,-30,146,-204
27680,8574,0,2023-03-01T18:52:19.297405,1728822,1356,1833,-233,-1213,-748,-324,-30,146,-204
27681,8575,0,2023-03-01T18:52:19.303022,1728827,1361,1845,-205,-1277,-675,-362,-44,140,-208
27682,8576,0,2023-03-01T18:52:19.308799,1728833,1361,1845,-205,-1277,-675,-362,-44,140,-208
27683,8577,0,2023-03-01T18:52:19.313702,1728838,1361,1845,-205,-1277,-675,-362,-44,140,-208
27684,8578,0,2023-03-01T18:52:19.319921,1728844,1361,1845,-205,-1277,-675,-362,-44,140,-208
27685,8579,0,2023-03-01T18:52:19.325340,1728849,1356,1822,-208,-1218,-679,-345,-44,140,-208
27686,8580,0,2023-03-01T18:52:19.331595,1728855,1356,1822,-208,-1218,-679,-345,-44,140,-208
27687,8581,0,2023-03-01T18:52:19.337183,1728862,1356,1822,-208,-1218,-679,-345,-44,140,-208
27688,8582,0,2023-03-01T18:52:19.342704,1728867,1378,1881,-194,-1337,-597,-426,-44,140,-208
27689,8583,0,2023-03-01T18:52:19.347880,1728872,1378,1881,-194,-1337,-597,-426,-44,140,-208
27690,8584,0,2023-03-01T18:52:19.352801,1728877,1378,1881,-194,-1337,-597,-426,-44,140,-208
27691,8585,0,2023-03-01T18:52:19.358977,1728883,1378,1881,-194,-1337,-597,-426,-44,140,-208
27692,8586,0,2023-03-01T18:52:19.363783,1728888,1357,1839,-205,-1208,-737,-319,-44,140,-208
27693,8587,0,2023-03-01T18:52:19.369264,1728893,1357,1839,-205,-1208,-737,-319,-44,140,-208
27694,8588,0,2023-03-01T18:52:19.373992,1728899,1357,1839,-205,-1208,-737,-319,-44,140,-208
27695,8589,0,2023-03-01T18:52:19.379907,1728904,1357,1839,-205,-1208,-737,-319,-44,140,-208
27696,8590,0,2023-03-01T18:52:19.384637,1728909,1367,1847,-188,-1312,-604,-400,-44,140,-208
27697,8591,0,2023-03-01T18:52:19.390437,1728914,1367,1847,-188,-1312,-604,-400,-44,140,-208
27698,8592,0,2023-03-01T18:52:19.395429,1728919,1367,1847,-188,-1312,-604,-400,-44,140,-208
27699,8593,0,2023-03-01T18:52:19.401728,1728925,1359,1840,-204,-1273,-681,-368,-44,140,-208
27700,8594,0,2023-03-01T18:52:19.407435,1728931,1359,1840,-204,-1273,-681,-368,-44,140,-208
27701,8595,0,2023-03-01T18:52:19.412133,1728936,1359,1840,-204,-1273,-681,-368,-44,140,-208
27702,8596,0,2023-03-01T18:52:19.417654,1728942,1359,1840,-204,-1273,-681,-368,-44,140,-208
27703,8597,0,2023-03-01T18:52:19.423025,1728948,1352,1820,-204,-1234,-690,-336,-30,140,-210
27704,8598,0,2023-03-01T18:52:19.428960,1728953,1352,1820,-204,-1234,-690,-336,-30,140,-210
27705,8599,0,2023-03-01T18:52:19.434382,1728958,1352,1820,-204,-1234,-690,-336,-30,140,-210
27706,8600,0,2023-03-01T18:52:19.440450,1728965,1352,1820,-204,-1234,-690,-336,-30,140,-210
27707,8601,0,2023-03-01T18:52:19.445351,1728969,1382,1883,-189,-1368,-589,-428,-30,140,-210
27708,8602,0,2023-03-01T18:52:19.451155,1728975,1382,1883,-189,-1368,-589,-428,-30,140,-210
27709,8603,0,2023-03-01T18:52:19.455744,1728980,1382,1883,-189,-1368,-589,-428,-30,140,-210
27710,8604,0,2023-03-01T18:52:19.461841,1728986,1355,1837,-205,-1216,-737,-310,-30,140,-210
27711,8605,0,2023-03-01T18:52:19.467023,1728991,1355,1837,-205,-1216,-737,-310,-30,140,-210
27712,8606,0,2023-03-01T18:52:19.472117,1728996,1355,1837,-205,-1216,-737,-310,-30,140,-210
27713,8607,0,2023-03-01T18:52:19.477788,1729002,1355,1837,-205,-1216,-737,-310,-30,140,-210
27714,8608,0,2023-03-01T18:52:19.483257,1729007,1335,1805,-185,-1276,-642,-367,-30,140,-210
27715,8609,0,2023-03-01T18:52:19.488594,1729013,1335,1805,-185,-1276,-642,-367,-30,140,-210
27716,8610,0,2023-03-01T18:52:19.493395,1729017,1335,1805,-185,-1276,-642,-367,-30,140,-210
27717,8611,0,2023-03-01T18:52:19.499765,1729024,1335,1805,-185,-1276,-642,-367,-30,140,-210
27718,8612,0,2023-03-01T18:52:19.504817,1729029,1384,1884,-196,-1400,-589,-433,-30,140,-210
27719,8613,0,2023-03-01T18:52:19.510393,1729035,1384,1884,-196,-1400,-589,-433,-30,140,-210
27720,8614,0,2023-03-01T18:52:19.515212,1729040,1384,1884,-196,-1400,-589,-433,-30,140,-210
27721,8615,0,2023-03-01T18:52:19.521415,1729045,1357,1835,-203,-1222,-733,-320,-30,140,-210
27722,8616,0,2023-03-01T18:52:19.527119,1729051,1357,1835,-203,-1222,-733,-320,-30,140,-210
27723,8617,0,2023-03-01T18:52:19.532356,1729056,1357,1835,-203,-1222,-733,-320,-30,140,-210
27724,8618,0,2023-03-01T18:52:19.538392,1729061,1357,1835,-203,-1222,-733,-320,-30,140,-210
27725,8619,0,2023-03-01T18:52:19.544254,1729069,1344,1832,-184,-1171,-708,-350,-30,140,-210
27726,8620,0,2023-03-01T18:52:19.549611,1729074,1344,1832,-184,-1171,-708,-350,-30,140,-210
27727,8621,0,2023-03-01T18:52:19.555160,1729079,1344,1832,-184,-1171,-708,-350,-30,140,-210
27728,8622,0,2023-03-01T18:52:19.561552,1729086,1378,1870,-205,-1363,-631,-400,-30,140,-210
27729,8623,0,2023-03-01T18:52:19.567553,1729091,1378,1870,-205,-1363,-631,-400,-30,140,-210
27730,8624,0,2023-03-01T18:52:19.572705,1729096,1378,1870,-205,-1363,-631,-400,-30,140,-210
27731,8625,0,2023-03-01T18:52:19.579688,1729103,1378,1870,-205,-1363,-631,-400,-30,140,-210
27732,8626,0,2023-03-01T18:52:19.585410,1729110,1345,1822,-179,-1281,-678,-351,-30,140,-210
27733,8627,0,2023-03-01T18:52:19.591671,1729116,1345,1822,-179,-1281,-678,-351,-30,140,-210
27734,8628,0,2023-03-01T18:52:19.596880,1729121,1345,1822,-179,-1281,-678,-351,-30,140,-210
27735,8629,0,2023-03-01T18:52:19.602704,1729127,1350,1826,-200,-1233,-711,-362,-30,140,-210
27736,8630,0,2023-03-01T18:52:19.608686,1729133,1350,1826,-200,-1233,-711,-362,-30,140,-210
27737,8631,0,2023-03-01T18:52:19.613870,1729138,1350,1826,-200,-1233,-711,-362,-30,140,-210
27738,8632,0,2023-03-01T18:52:19.621074,1729144,1350,1826,-200,-1233,-711,-362,-30,140,-210
27739,8633,0,2023-03-01T18:52:19.626124,1729150,1375,1873,-183,-1338,-599,-410,-30,140,-210
27740,8634,0,2023-03-01T18:52:19.631868,1729156,1375,1873,-183,-1338,-599,-410,-30,140,-210
27741,8635,0,2023-03-01T18:52:19.637761,1729162,1375,1873,-183,-1338,-599,-410,-30,140,-210
27742,8636,0,2023-03-01T18:52:19.643541,1729168,1348,1833,-200,-1208,-725,-323,-30,140,-210
27743,8637,0,2023-03-01T18:52:19.649065,1729173,1348,1833,-200,-1208,-725,-323,-30,140,-210
27744,8638,0,2023-03-01T18:52:19.653847,1729178,1348,1833,-200,-1208,-725,-323,-30,140,-210
27745,8639,0,2023-03-01T18:52:19.660022,1729184,1348,1833,-200,-1208,-725,-323,-30,140,-210
27746,8640,0,2023-03-01T18:52:19.665148,1729189,1371,1856,-186,-1307,-595,-401,-30,140,-210
27747,8641,0,2023-03-01T18:52:19.670575,1729195,1371,1856,-186,-1307,-595,-401,-30,140,-210
27748,8642,0,2023-03-01T18:52:19.675422,1729200,1371,1856,-186,-1307,-595,-401,-30,140,-210
27749,8643,0,2023-03-01T18:52:19.680775,1729205,1371,1856,-186,-1307,-595,-401,-30,140,-210
27750,8644,0,2023-03-01T18:52:19.685503,1729210,1357,1838,-184,-1259,-664,-363,-35,155,-201
27751,8645,0,2023-03-01T18:52:19.690922,1729215,1357,1838,-184,-1259,-664,-363,-35,155,-201
27752,8646,0,2023-03-01T18:52:19.695915,1729220,1357,1838,-184,-1259,-664,-363,-35,155,-201
27753,8647,0,2023-03-01T18:52:19.702171,1729226,1350,1824,-189,-1213,-677,-353,-35,155,-201
27754,8648,0,2023-03-01T18:52:19.707682,1729232,1350,1824,-189,-1213,-677,-353,-35,155,-201
27755,8649,0,2023-03-01T18:52:19.712596,1729236,1350,1824,-189,-1213,-677,-353,-35,155,-201
27756,8650,0,2023-03-01T18:52:19.718571,1729243,1350,1824,-189,-1213,-677,-353,-35,155,-201
27757,8651,0,2023-03-01T18:52:19.724153,1729248,1377,1877,-186,-1334,-592,-425,-35,155,-201
27758,8652,0,2023-03-01T18:52:19.729878,1729254,1377,1877,-186,-1334,-592,-425,-35,155,-201
27759,8653,0,2023-03-01T18:52:19.734715,1729259,1377,1877,-186,-1334,-592,-425,-35,155,-201
27760,8654,0,2023-03-01T18:52:19.740409,1729264,1377,1877,-186,-1334,-592,-425,-35,155,-201
27761,8655,0,2023-03-01T18:52:19.745714,1729270,1354,1833,-193,-1199,-710,-320,-35,155,-201
27762,8656,0,2023-03-01T18:52:19.751425,1729275,1354,1833,-193,-1199,-710,-320,-35,155,-201
27763,8657,0,2023-03-01T18:52:19.757223,1729282,1354,1833,-193,-1199,-710,-320,-35,155,-201
27764,8658,0,2023-03-01T18:52:19.763918,1729288,1363,1844,-188,-1324,-589,-412,-35,155,-201
27765,8659,0,2023-03-01T18:52:19.769394,1729294,1363,1844,-188,-1324,-589,-412,-35,155,-201
27766,8660,0,2023-03-01T18:52:19.774690,1729299,1363,1844,-188,-1324,-589,-412,-35,155,-201
27767,8661,0,2023-03-01T18:52:19.780799,1729305,1363,1844,-188,-1324,-589,-412,-35,155,-201
27768,8662,0,2023-03-01T18:52:19.785458,1729309,1352,1835,-186,-1274,-650,-366,-35,155,-201
27769,8663,0,2023-03-01T18:52:19.790786,1729315,1352,1835,-186,-1274,-650,-366,-35,155,-201
27770,8664,0,2023-03-01T18:52:19.795511,1729319,1352,1835,-186,-1274,-650,-366,-35,155,-201
27771,8665,0,2023-03-01T18:52:19.800953,1729325,1352,1835,-186,-1274,-650,-366,-35,155,-201
27772,8666,0,2023-03-01T18:52:19.805999,1729330,1354,1846,-189,-1187,-709,-340,-38,134,-212
27773,8667,0,2023-03-01T18:52:19.811460,1729336,1354,1846,-189,-1187,-709,-340,-38,134,-212
27774,8668,0,2023-03-01T18:52:19.816192,1729340,1354,1846,-189,-1187,-709,-340,-38,134,-212
27775,8669,0,2023-03-01T18:52:19.821528,1729346,1371,1875,-181,-1353,-576,-423,-38,134,-212
27776,8670,0,2023-03-01T18:52:19.827237,1729351,1371,1875,-181,-1353,-576,-423,-38,134,-212
27777,8671,0,2023-03-01T18:52:19.832078,1729356,1371,1875,-181,-1353,-576,-423,-38,134,-212
27778,8672,0,2023-03-01T18:52:19.837025,1729361,1371,1875,-181,-1353,-576,-423,-38,134,-212
27779,8673,0,2023-03-01T18:52:19.842432,1729367,1348,1827,-177,-1251,-685,-328,-38,134,-212
27780,8674,0,2023-03-01T18:52:19.847842,1729372,1348,1827,-177,-1251,-685,-328,-38,134,-212
27781,8675,0,2023-03-01T18:52:19.852972,1729377,1348,1827,-177,-1251,-685,-328,-38,134,-212
27782,8676,0,2023-03-01T18:52:19.859242,1729383,1348,1827,-177,-1251,-685,-328,-38,134,-212
27783,8677,0,2023-03-01T18:52:19.863860,1729388,1359,1836,-185,-1200,-691,-368,-38,134,-212
27784,8678,0,2023-03-01T18:52:19.869277,1729393,1359,1836,-185,-1200,-691,-368,-38,134,-212
27785,8679,0,2023-03-01T18:52:19.874214,1729398,1359,1836,-185,-1200,-691,-368,-38,134,-212
27786,8680,0,2023-03-01T18:52:19.879462,1729403,1359,1836,-185,-1200,-691,-368,-38,134,-212
27787,8681,0,2023-03-01T18:52:19.884600,1729409,1365,1871,-179,-1275,-662,-385,-38,134,-212
27788,8682,0,2023-03-01T18:52:19.890693,1729415,1365,1871,-179,-1275,-662,-385,-38,134,-212
27789,8683,0,2023-03-01T18:52:19.895614,1729420,1365,1871,-179,-1275,-662,-385,-38,134,-212
27790,8684,0,2023-03-01T18:52:19.901296,1729426,1365,1871,-179,-1275,-662,-385,-38,134,-212
27791,8685,0,2023-03-01T18:52:19.906491,1729430,1346,1827,-187,-1279,-679,-349,-38,134,-212
27792,8686,0,2023-03-01T18:52:19.912279,1729436,1346,1827,-187,-1279,-679,-349,-38,134,-212
27793,8687,0,2023-03-01T18:52:19.917100,1729441,1346,1827,-187,-1279,-679,-349,-38,134,-212
27794,8688,0,2023-03-01T18:52:19.922725,1729446,1366,1866,-176,-1280,-662,-397,-38,134,-212
27795,8689,0,2023-03-01T18:52:19.928066,1729452,1366,1866,-176,-1280,-662,-397,-38,134,-212
27796,8690,0,2023-03-01T18:52:19.933686,1729457,1366,1866,-176,-1280,-662,-397,-38,134,-212
27797,8691,0,2023-03-01T18:52:19.939676,1729464,1366,1866,-176,-1280,-662,-397,-38,134,-212
27798,8692,0,2023-03-01T18:52:19.945198,1729470,1353,1835,-194,-1302,-680,-351,-37,135,-201
27799,8693,0,2023-03-01T18:52:19.950553,1729475,1353,1835,-194,-1302,-680,-351,-37,135,-201
27800,8694,0,2023-03-01T18:52:19.955353,1729479,1353,1835,-194,-1302,-680,-351,-37,135,-201
27801,8695,0,2023-03-01T18:52:19.961408,1729485,1353,1835,-194,-1302,-680,-351,-37,135,-201
27802,8696,0,2023-03-01T18:52:19.966331,1729490,1355,1848,-159,-1317,-635,-386,-37,135,-201
27803,8697,0,2023-03-01T18:52:19.971971,1729496,1355,1848,-159,-1317,-635,-386,-37,135,-201
27804,8698,0,2023-03-01T18:52:19.977598,1729502,1355,1848,-159,-1317,-635,-386,-37,135,-201
27805,8699,0,2023-03-01T18:52:19.983688,1729508,1355,1835,-195,-1215,-728,-349,-37,135,-201
27806,8700,0,2023-03-01T18:52:19.988881,1729513,1355,1835,-195,-1215,-728,-349,-37,135,-201
27807,8701,0,2023-03-01T18:52:19.994243,1729518,1355,1835,-195,-1215,-728,-349,-37,135,-201
27808,8702,0,2023-03-01T18:52:20.000238,1729524,1355,1835,-195,-1215,-728,-349,-37,135,-201
27809,8703,0,2023-03-01T18:52:20.005268,1729529,1365,1873,-163,-1288,-624,-400,-37,135,-201
27810,8704,0,2023-03-01T18:52:20.010493,1729534,1365,1873,-163,-1288,-624,-400,-37,135,-201
27811,8705,0,2023-03-01T18:52:20.015297,1729540,1365,1873,-163,-1288,-624,-400,-37,135,-201
27812,8706,0,2023-03-01T18:52:20.021167,1729546,1365,1873,-163,-1288,-624,-400,-37,135,-201
27813,8707,0,2023-03-01T18:52:20.026223,1729550,1338,1813,-188,-1278,-693,-355,-37,135,-201
27814,8708,0,2023-03-01T18:52:20.032247,1729556,1338,1813,-188,-1278,-693,-355,-37,135,-201
27815,8709,0,2023-03-01T18:52:20.037298,1729561,1338,1813,-188,-1278,-693,-355,-37,135,-201
27816,8710,0,2023-03-01T18:52:20.042837,1729567,1374,1869,-156,-1339,-603,-416,-37,135,-201
27817,8711,0,2023-03-01T18:52:20.048450,1729572,1374,1869,-156,-1339,-603,-416,-37,135,-201
27818,8712,0,2023-03-01T18:52:20.054126,1729579,1374,1869,-156,-1339,-603,-416,-37,135,-201
27819,8713,0,2023-03-01T18:52:20.060583,1729585,1374,1869,-156,-1339,-603,-416,-37,135,-201
27820,8714,0,2023-03-01T18:52:20.065291,1729590,1343,1824,-183,-1222,-737,-338,-37,133,-197
27821,8715,0,2023-03-01T18:52:20.070448,1729595,1343,1824,-183,-1222,-737,-338,-37,133,-197
27822,8716,0,2023-03-01T18:52:20.076013,1729599,1343,1824,-183,-1222,-737,-338,-37,133,-197
27823,8717,0,2023-03-01T18:52:20.082180,1729606,1374,1874,-163,-1346,-575,-421,-37,133,-197
27824,8718,0,2023-03-01T18:52:20.088690,1729612,1374,1874,-163,-1346,-575,-421,-37,133,-197
27825,8719,0,2023-03-01T18:52:20.094420,1729618,1374,1874,-163,-1346,-575,-421,-37,133,-197
27826,8720,0,2023-03-01T18:52:20.100711,1729625,1374,1874,-163,-1346,-575,-421,-37,133,-197
27827,8721,0,2023-03-01T18:52:20.105430,1729630,1348,1837,-187,-1247,-714,-345,-37,133,-197
27828,8722,0,2023-03-01T18:52:20.110990,1729635,1348,1837,-187,-1247,-714,-345,-37,133,-197
27829,8723,0,2023-03-01T18:52:20.115742,1729640,1348,1837,-187,-1247,-714,-345,-37,133,-197
27830,8724,0,2023-03-01T18:52:20.121208,1729645,1348,1837,-187,-1247,-714,-345,-37,133,-197
27831,8725,0,2023-03-01T18:52:20.125976,1729650,1365,1851,-173,-1311,-623,-399,-37,133,-197
27832,8726,0,2023-03-01T18:52:20.131485,1729655,1365,1851,-173,-1311,-623,-399,-37,133,-197
27833,8727,0,2023-03-01T18:52:20.136538,1729660,1365,1851,-173,-1311,-623,-399,-37,133,-197
27834,8728,0,2023-03-01T18:52:20.143513,1729668,1345,1842,-165,-1276,-683,-355,-37,133,-197
27835,8729,0,2023-03-01T18:52:20.149363,1729674,1345,1842,-165,-1276,-683,-355,-37,133,-197
27836,8730,0,2023-03-01T18:52:20.154362,1729679,1345,1842,-165,-1276,-683,-355,-37,133,-197
27837,8731,0,2023-03-01T18:52:20.159334,1729683,1345,1842,-165,-1276,-683,-355,-37,133,-197
27838,8732,0,2023-03-01T18:52:20.164168,1729688,1359,1843,-186,-1294,-646,-372,-37,133,-197
27839,8733,0,2023-03-01T18:52:20.170253,1729694,1359,1843,-186,-1294,-646,-372,-37,133,-197
27840,8734,0,2023-03-01T18:52:20.174943,1729699,1359,1843,-186,-1294,-646,-372,-37,133,-197
27841,8735,0,2023-03-01T18:52:20.180615,1729704,1359,1843,-186,-1294,-646,-372,-37,133,-197
27842,8736,0,2023-03-01T18:52:20.185422,1729710,1355,1846,-150,-1293,-629,-384,-37,133,-197
27843,8737,0,2023-03-01T18:52:20.191073,1729715,1355,1846,-150,-1293,-629,-384,-37,133,-197
27844,8738,0,2023-03-01T18:52:20.196374,1729720,1355,1846,-150,-1293,-629,-384,-37,133,-197
27845,8739,0,2023-03-01T18:52:20.204107,1729728,1344,1813,-180,-1245,-710,-336,-30,134,-200
27846,8740,0,2023-03-01T18:52:20.209550,1729734,1344,1813,-180,-1245,-710,-336,-30,134,-200
27847,8741,0,2023-03-01T18:52:20.214278,1729738,1344,1813,-180,-1245,-710,-336,-30,134,-200
27848,8742,0,2023-03-01T18:52:20.220340,1729744,1344,1813,-180,-1245,-710,-336,-30,134,-200
27849,8743,0,2023-03-01T18:52:20.225502,1729750,1376,1887,-155,-1380,-562,-447,-30,134,-200
27850,8744,0,2023-03-01T18:52:20.231765,1729756,1376,1887,-155,-1380,-562,-447,-30,134,-200
27851,8745,0,2023-03-01T18:52:20.236784,1729761,1376,1887,-155,-1380,-562,-447,-30,134,-200
27852,8746,0,2023-03-01T18:52:20.241420,1729766,1376,1887,-155,-1380,-562,-447,-30,134,-200
27853,8747,0,2023-03-01T18:52:20.246397,1729770,1348,1828,-189,-1214,-754,-324,-30,134,-200
27854,8748,0,2023-03-01T18:52:20.251987,1729776,1348,1828,-189,-1214,-754,-324,-30,134,-200
27855,8749,0,2023-03-01T18:52:20.258153,1729782,1348,1828,-189,-1214,-754,-324,-30,134,-200
27856,8750,0,2023-03-01T18:52:20.263677,1729787,1346,1829,-147,-1283,-628,-385,-30,134,-200
27857,8751,0,2023-03-01T18:52:20.269078,1729794,1346,1829,-147,-1283,-628,-385,-30,134,-200
27858,8752,0,2023-03-01T18:52:20.274228,1729799,1346,1829,-147,-1283,-628,-385,-30,134,-200
27859,8753,0,2023-03-01T18:52:20.280300,1729805,1346,1829,-147,-1283,-628,-385,-30,134,-200
27860,8754,0,2023-03-01T18:52:20.285038,1729809,1360,1860,-169,-1281,-686,-382,-30,134,-200
27861,8755,0,2023-03-01T18:52:20.290571,1729815,1360,1860,-169,-1281,-686,-382,-30,134,-200
27862,8756,0,2023-03-01T18:52:20.295187,1729819,1360,1860,-169,-1281,-686,-382,-30,134,-200
27863,8757,0,2023-03-01T18:52:20.300754,1729825,1360,1860,-169,-1281,-686,-382,-30,134,-200
27864,8758,0,2023-03-01T18:52:20.305700,1729829,1351,1831,-170,-1290,-652,-357,-30,134,-200
27865,8759,0,2023-03-01T18:52:20.311908,1729836,1351,1831,-170,-1290,-652,-357,-30,134,-200
27866,8760,0,2023-03-01T18:52:20.316989,1729841,1351,1831,-170,-1290,-652,-357,-30,134,-200
27867,8761,0,2023-03-01T18:52:20.323098,1729847,1356,1854,-148,-1305,-625,-394,-34,144,-204
27868,8762,0,2023-03-01T18:52:20.328849,1729853,1356,1854,-148,-1305,-625,-394,-34,144,-204
27869,8763,0,2023-03-01T18:52:20.333750,1729858,1356,1854,-148,-1305,-625,-394,-34,144,-204
27870,8764,0,2023-03-01T18:52:20.340602,1729864,1356,1854,-148,-1305,-625,-394,-34,144,-204
27871,8765,0,2023-03-01T18:52:20.345498,1729869,1345,1824,-172,-1235,-712,-337,-34,144,-204
27872,8766,0,2023-03-01T18:52:20.350971,1729875,1345,1824,-172,-1235,-712,-337,-34,144,-204
27873,8767,0,2023-03-01T18:52:20.355364,1729880,1345,1824,-172,-1235,-712,-337,-34,144,-204
27874,8768,0,2023-03-01T18:52:20.361235,1729886,1345,1824,-172,-1235,-712,-337,-34,144,-204
27875,8769,0,2023-03-01T18:52:20.366029,1729890,1365,1868,-147,-1325,-587,-424,-34,144,-204
27876,8770,0,2023-03-01T18:52:20.371535,1729896,1365,1868,-147,-1325,-587,-424,-34,144,-204
27877,8771,0,2023-03-01T18:52:20.376458,1729901,1365,1868,-147,-1325,-587,-424,-34,144,-204
27878,8772,0,2023-03-01T18:52:20.381713,1729906,1365,1868,-147,-1325,-587,-424,-34,144,-204
27879,8773,0,2023-03-01T18:52:20.386605,1729910,1341,1821,-174,-1223,-733,-330,-34,144,-204
27880,8774,0,2023-03-01T18:52:20.391319,1729915,1341,1821,-174,-1223,-733,-330,-34,144,-204
27881,8775,0,2023-03-01T18:52:20.396213,1729921,1341,1821,-174,-1223,-733,-330,-34,144,-204
27882,8776,0,2023-03-01T18:52:20.402625,1729927,1374,1876,-154,-1345,-576,-433,-34,144,-204
27883,8777,0,2023-03-01T18:52:20.408062,1729933,1374,1876,-154,-1345,-576,-433,-34,144,-204
27884,8778,0,2023-03-01T18:52:20.412821,1729937,1374,1876,-154,-1345,-576,-433,-34,144,-204
27885,8779,0,2023-03-01T18:52:20.418938,1729943,1374,1876,-154,-1345,-576,-433,-34,144,-204
27886,8780,0,2023-03-01T18:52:20.424249,1729948,1337,1833,-167,-1243,-713,-353,-34,144,-204
27887,8781,0,2023-03-01T18:52:20.429840,1729954,1337,1833,-167,-1243,-713,-353,-34,144,-204
27888,8782,0,2023-03-01T18:52:20.434892,1729958,1337,1833,-167,-1243,-713,-353,-34,144,-204
27889,8783,0,2023-03-01T18:52:20.440827,1729966,1337,1833,-167,-1243,-713,-353,-34,144,-204
27890,8784,0,2023-03-01T18:52:20.445639,1729970,1340,1808,-151,-1303,-612,-361,-28,142,-202
27891,8785,0,2023-03-01T18:52:20.450879,1729975,1340,1808,-151,-1303,-612,-361,-28,142,-202
27892,8786,0,2023-03-01T18:52:20.455630,1729980,1340,1808,-151,-1303,-612,-361,-28,142,-202
27893,8787,0,2023-03-01T18:52:20.461632,1729986,1340,1808,-151,-1303,-612,-361,-28,142,-202
27894,8788,0,2023-03-01T18:52:20.466560,1729991,1370,1877,-151,-1385,-578,-442,-28,142,-202
27895,8789,0,2023-03-01T18:52:20.472272,1729996,1370,1877,-151,-1385,-578,-442,-28,142,-202
27896,8790,0,2023-03-01T18:52:20.478026,1730002,1370,1877,-151,-1385,-578,-442,-28,142,-202
27897,8791,0,2023-03-01T18:52:20.483487,1730008,1357,1841,-175,-1196,-722,-327,-28,142,-202
27898,8792,0,2023-03-01T18:52:20.488669,1730013,1357,1841,-175,-1196,-722,-327,-28,142,-202
27899,8793,0,2023-03-01T18:52:20.493595,1730018,1357,1841,-175,-1196,-722,-327,-28,142,-202
27900,8794,0,2023-03-01T18:52:20.499260,1730024,1357,1841,-175,-1196,-722,-327,-28,142,-202
27901,8795,0,2023-03-01T18:52:20.504211,1730028,1326,1806,-135,-1179,-663,-346,-28,142,-202
27902,8796,0,2023-03-01T18:52:20.509869,1730034,1326,1806,-135,-1179,-663,-346,-28,142,-202
27903,8797,0,2023-03-01T18:52:20.515036,1730039,1326,1806,-135,-1179,-663,-346,-28,142,-202
27904,8798,0,2023-03-01T18:52:20.520556,1730044,1326,1806,-135,-1179,-663,-346,-28,142,-202
27905,8799,0,2023-03-01T18:52:20.526343,1730051,1384,1890,-179,-1429,-562,-448,-28,142,-202
27906,8800,0,2023-03-01T18:52:20.531555,1730056,1384,1890,-179,-1429,-562,-448,-28,142,-202
27907,8801,0,2023-03-01T18:52:20.536144,1730061,1384,1890,-179,-1429,-562,-448,-28,142,-202
27908,8802,0,2023-03-01T18:52:20.541992,1730066,1384,1890,-179,-1429,-562,-448,-28,142,-202
27909,8803,0,2023-03-01T18:52:20.547098,1730071,1333,1813,-145,-1276,-661,-335,-28,142,-202
27910,8804,0,2023-03-01T18:52:20.552838,1730077,1333,1813,-145,-1276,-661,-335,-28,142,-202
27911,8805,0,2023-03-01T18:52:20.557579,1730081,1333,1813,-145,-1276,-661,-335,-28,142,-202
27912,8806,0,2023-03-01T18:52:20.562974,1730087,1361,1864,-165,-1152,-719,-376,-28,142,-202
27913,8807,0,2023-03-01T18:52:20.568577,1730093,1361,1864,-165,-1152,-719,-376,-28,142,-202
27914,8808,0,2023-03-01T18:52:20.573511,1730098,1361,1864,-165,-1152,-719,-376,-28,142,-202
27915,8809,0,2023-03-01T18:52:20.579088,1730103,1361,1864,-165,-1152,-719,-376,-28,142,-202
27916,8810,0,2023-03-01T18:52:20.584197,1730108,1342,1827,-136,-1287,-605,-370,-35,133,-209
27917,8811,0,2023-03-01T18:52:20.590034,1730114,1342,1827,-136,-1287,-605,-370,-35,133,-209
27918,8812,0,2023-03-01T18:52:20.595315,1730119,1342,1827,-136,-1287,-605,-370,-35,133,-209
27919,8813,0,2023-03-01T18:52:20.601013,1730125,1342,1827,-136,-1287,-605,-370,-35,133,-209
27920,8814,0,2023-03-01T18:52:20.605948,1730130,1354,1849,-151,-1348,-623,-401,-35,133,-209
27921,8815,0,2023-03-01T18:52:20.611465,1730136,1354,1849,-151,-1348,-623,-401,-35,133,-209
27922,8816,0,2023-03-01T18:52:20.617146,1730141,1354,1849,-151,-1348,-623,-401,-35,133,-209
27923,8817,0,2023-03-01T18:52:20.623584,1730148,1367,1875,-166,-1176,-713,-358,-35,133,-209
27924,8818,0,2023-03-01T18:52:20.629051,1730153,1367,1875,-166,-1176,-713,-358,-35,133,-209
27925,8819,0,2023-03-01T18:52:20.634007,1730158,1367,1875,-166,-1176,-713,-358,-35,133,-209
27926,8820,0,2023-03-01T18:52:20.639483,1730163,1367,1875,-166,-1176,-713,-358,-35,133,-209
27927,8821,0,2023-03-01T18:52:20.644607,1730168,1337,1818,-144,-1299,-599,-367,-35,133,-209
27928,8822,0,2023-03-01T18:52:20.650239,1730174,1337,1818,-144,-1299,-599,-367,-35,133,-209
27929,8823,0,2023-03-01T18:52:20.654998,1730180,1337,1818,-144,-1299,-599,-367,-35,133,-209
27930,8824,0,2023-03-01T18:52:20.661134,1730185,1337,1818,-144,-1299,-599,-367,-35,133,-209
27931,8825,0,2023-03-01T18:52:20.665912,1730190,1360,1861,-159,-1331,-637,-403,-35,133,-209
27932,8826,0,2023-03-01T18:52:20.672558,1730196,1360,1861,-159,-1331,-637,-403,-35,133,-209
27933,8827,0,2023-03-01T18:52:20.677782,1730202,1360,1861,-159,-1331,-637,-403,-35,133,-209
27934,8828,0,2023-03-01T18:52:20.683677,1730208,1356,1844,-160,-1187,-723,-333,-35,133,-209
27935,8829,0,2023-03-01T18:52:20.688856,1730213,1356,1844,-160,-1187,-723,-333,-35,133,-209
27936,8830,0,2023-03-01T18:52:20.693528,1730217,1356,1844,-160,-1187,-723,-333,-35,133,-209
27937,8831,0,2023-03-01T18:52:20.700014,1730224,1356,1844,-160,-1187,-723,-333,-35,133,-209
27938,8832,0,2023-03-01T18:52:20.705259,1730230,1358,1860,-139,-1325,-591,-416,-37,147,-197
27939,8833,0,2023-03-01T18:52:20.710904,1730235,1358,1860,-139,-1325,-591,-416,-37,147,-197
27940,8834,0,2023-03-01T18:52:20.715447,1730240,1358,1860,-139,-1325,-591,-416,-37,147,-197
27941,8835,0,2023-03-01T18:52:20.720452,1730245,1358,1860,-139,-1325,-591,-416,-37,147,-197
27942,8836,0,2023-03-01T18:52:20.725804,1730250,1344,1840,-158,-1251,-702,-346,-37,147,-197
27943,8837,0,2023-03-01T18:52:20.730910,1730255,1344,1840,-158,-1251,-702,-346,-37,147,-197
27944,8838,0,2023-03-01T18:52:20.735847,1730259,1344,1840,-158,-1251,-702,-346,-37,147,-197
27945,8839,0,2023-03-01T18:52:20.742850,1730267,1350,1841,-152,-1277,-622,-385,-37,147,-197
27946,8840,0,2023-03-01T18:52:20.748048,1730273,1350,1841,-152,-1277,-622,-385,-37,147,-197
27947,8841,0,2023-03-01T18:52:20.752745,1730277,1350,1841,-152,-1277,-622,-385,-37,147,-197
27948,8842,0,2023-03-01T18:52:20.758662,1730283,1350,1841,-152,-1277,-622,-385,-37,147,-197
27949,8843,0,2023-03-01T18:52:20.764043,1730288,1348,1846,-138,-1302,-637,-387,-37,147,-197
27950,8844,0,2023-03-01T18:52:20.769422,1730293,1348,1846,-138,-1302,-637,-387,-37,147,-197
27951,8845,0,2023-03-01T18:52:20.774145,1730298,1348,1846,-138,-1302,-637,-387,-37,147,-197
27952,8846,0,2023-03-01T18:52:20.779974,1730305,1348,1846,-138,-1302,-637,-387,-37,147,-197
27953,8847,0,2023-03-01T18:52:20.784755,1730309,1334,1824,-155,-1220,-699,-327,-37,147,-197
27954,8848,0,2023-03-01T18:52:20.790387,1730315,1334,1824,-155,-1220,-699,-327,-37,147,-197
27955,8849,0,2023-03-01T18:52:20.795380,1730320,1334,1824,-155,-1220,-699,-327,-37,147,-197
27956,8850,0,2023-03-01T18:52:20.801707,1730326,1334,1824,-155,-1220,-699,-327,-37,147,-197
27957,8851,0,2023-03-01T18:52:20.806609,1730331,1369,1884,-143,-1385,-543,-456,-37,147,-197
27958,8852,0,2023-03-01T18:52:20.812014,1730336,1369,1884,-143,-1385,-543,-456,-37,147,-197
27959,8853,0,2023-03-01T18:52:20.817217,1730341,1369,1884,-143,-1385,-543,-456,-37,147,-197
27960,8854,0,2023-03-01T18:52:20.823247,1730348,1338,1819,-154,-1253,-707,-333,-37,147,-197
27961,8855,0,2023-03-01T18:52:20.828567,1730353,1338,1819,-154,-1253,-707,-333,-37,147,-197
27962,8856,0,2023-03-01T18:52:20.833499,1730358,1338,1819,-154,-1253,-707,-333,-37,147,-197
27963,8857,0,2023-03-01T18:52:20.839396,1730364,1338,1819,-154,-1253,-707,-333,-37,147,-197
27964,8858,0,2023-03-01T18:52:20.844318,1730369,1339,1827,-132,-1192,-681,-363,-24,134,-200
27965,8859,0,2023-03-01T18:52:20.850052,1730374,1339,1827,-132,-1192,-681,-363,-24,134,-200
27966,8860,0,2023-03-01T18:52:20.854803,1730379,1339,1827,-132,-1192,-681,-363,-24,134,-200
27967,8861,0,2023-03-01T18:52:20.859468,1730383,1339,1827,-132,-1192,-681,-363,-24,134,-200
27968,8862,0,2023-03-01T18:52:20.864292,1730388,1376,1884,-149,-1364,-598,-438,-24,134,-200
27969,8863,0,2023-03-01T18:52:20.869900,1730395,1376,1884,-149,-1364,-598,-438,-24,134,-200
27970,8864,0,2023-03-01T18:52:20.874856,1730399,1376,1884,-149,-1364,-598,-438,-24,134,-200
27971,8865,0,2023-03-01T18:52:20.880920,1730405,1376,1884,-149,-1364,-598,-438,-24,134,-200
27972,8866,0,2023-03-01T18:52:20.885578,1730410,1332,1819,-128,-1251,-692,-333,-24,134,-200
27973,8867,0,2023-03-01T18:52:20.890924,1730415,1332,1819,-128,-1251,-692,-333,-24,134,-200
27974,8868,0,2023-03-01T18:52:20.895855,1730420,1332,1819,-128,-1251,-692,-333,-24,134,-200
27975,8869,0,2023-03-01T18:52:20.901025,1730424,1332,1819,-128,-1251,-692,-333,-24,134,-200
27976,8870,0,2023-03-01T18:52:20.906073,1730430,1341,1830,-150,-1249,-663,-385,-24,134,-200
27977,8871,0,2023-03-01T18:52:20.911439,1730436,1341,1830,-150,-1249,-663,-385,-24,134,-200
27978,8872,0,2023-03-01T18:52:20.916051,1730441,1341,1830,-150,-1249,-663,-385,-24,134,-200
27979,8873,0,2023-03-01T18:52:20.921829,1730446,1341,1830,-150,-1249,-663,-385,-24,134,-200
27980,8874,0,2023-03-01T18:52:20.926821,1730451,1360,1869,-129,-1305,-631,-400,-24,134,-200
27981,8875,0,2023-03-01T18:52:20.932069,1730456,1360,1869,-129,-1305,-631,-400,-24,134,-200
27982,8876,0,2023-03-01T18:52:20.936988,1730461,1360,1869,-129,-1305,-631,-400,-24,134,-200
27983,8877,0,2023-03-01T18:52:20.942737,1730467,1360,1869,-129,-1305,-631,-400,-24,134,-200
27984,8878,0,2023-03-01T18:52:20.947577,1730471,1360,1869,-129,-1305,-631,-400,-24,134,-200
27985,8879,0,2023-03-01T18:52:20.952433,1730477,1360,1869,-129,-1305,-631,-400,-24,134,-200
27986,8880,0,2023-03-01T18:52:20.957620,1730482,1360,1869,-129,-1305,-631,-400,-24,134,-200
27987,8881,0,2023-03-01T18:52:20.963802,1730488,1373,1891,-132,-1386,-550,-455,-35,133,-199
27988,8882,0,2023-03-01T18:52:20.969366,1730494,1373,1891,-132,-1386,-550,-455,-35,133,-199
27989,8883,0,2023-03-01T18:52:20.973982,1730498,1373,1891,-132,-1386,-550,-455,-35,133,-199
27990,8884,0,2023-03-01T18:52:20.979934,1730504,1373,1891,-132,-1386,-550,-455,-35,133,-199
27991,8885,0,2023-03-01T18:52:20.984746,1730509,1338,1828,-148,-1226,-718,-327,-35,133,-199
27992,8886,0,2023-03-01T18:52:20.990562,1730514,1338,1828,-148,-1226,-718,-327,-35,133,-199
27993,8887,0,2023-03-01T18:52:20.995984,1730521,1338,1828,-148,-1226,-718,-327,-35,133,-199
27994,8888,0,2023-03-01T18:52:21.002328,1730527,1338,1828,-148,-1226,-718,-327,-35,133,-199
27995,8889,0,2023-03-01T18:52:21.007284,1730532,1321,1812,-113,-1213,-660,-361,-35,133,-199
27996,8890,0,2023-03-01T18:52:21.012766,1730537,1321,1812,-113,-1213,-660,-361,-35,133,-199
27997,8891,0,2023-03-01T18:52:21.018612,1730542,1321,1812,-113,-1213,-660,-361,-35,133,-199
27998,8892,0,2023-03-01T18:52:21.024018,1730548,1377,1895,-148,-1398,-583,-441,-35,133,-199
27999,8893,0,2023-03-01T18:52:21.029297,1730553,1377,1895,-148,-1398,-583,-441,-35,133,-199
