,Unnamed: 0,imu,server_time,arduino_time,ax,ay,az,gx,gy,gz,mx,my,mz
7212,532,0,2023-03-10T14:07:13.144267,6311321,1138,498,1410,-1013,-611,-225,123,157,-65
7213,533,0,2023-03-10T14:07:13.148833,6311325,1138,498,1410,-1013,-611,-225,123,157,-65
7214,534,0,2023-03-10T14:07:13.153280,6311329,1142,500,1409,-1004,-670,-253,123,157,-65
7215,535,0,2023-03-10T14:07:13.158191,6311334,1142,500,1409,-1004,-670,-253,123,157,-65
7216,536,0,2023-03-10T14:07:13.162713,6311339,1142,500,1409,-1004,-670,-253,123,157,-65
7217,537,0,2023-03-10T14:07:13.167468,6311344,1142,500,1409,-1004,-670,-253,123,157,-65
7218,538,0,2023-03-10T14:07:13.171833,6311348,1142,500,1409,-1004,-670,-253,123,157,-65
7219,539,0,2023-03-10T14:07:13.176425,6311353,1143,500,1391,-1056,-617,-271,123,157,-65
7220,540,0,2023-03-10T14:07:13.181984,6311358,1143,500,1391,-1056,-617,-271,123,157,-65
7221,541,0,2023-03-10T14:07:13.186883,6311363,1143,500,1391,-1056,-617,-271,123,157,-65
7222,542,0,2023-03-10T14:07:13.191527,6311368,1143,500,1391,-1056,-617,-271,123,157,-65
7223,543,0,2023-03-10T14:07:13.196293,6311372,1152,510,1407,-1018,-655,-264,123,157,-65
7224,544,0,2023-03-10T14:07:13.200592,6311377,1152,510,1407,-1018,-655,-264,123,157,-65
7225,545,0,2023-03-10T14:07:13.205674,6311383,1152,510,1407,-1018,-655,-264,123,157,-65
7226,546,0,2023-03-10T14:07:13.210216,6311387,1152,510,1407,-1018,-655,-264,123,157,-65
7227,547,0,2023-03-10T14:07:13.214594,6311391,1149,496,1395,-1043,-632,-254,109,163,-67
7228,548,0,2023-03-10T14:07:13.219670,6311396,1149,496,1395,-1043,-632,-254,109,163,-67
7229,549,0,2023-03-10T14:07:13.224231,6311400,1149,496,1395,-1043,-632,-254,109,163,-67
7230,550,0,2023-03-10T14:07:13.228971,6311405,1149,496,1395,-1043,-632,-254,109,163,-67
7231,551,0,2023-03-10T14:07:13.233578,6311410,1131,501,1399,-1019,-620,-260,109,163,-67
7232,552,0,2023-03-10T14:07:13.239002,6311415,1131,501,1399,-1019,-620,-260,109,163,-67
7233,553,0,2023-03-10T14:07:13.243544,6311419,1131,501,1399,-1019,-620,-260,109,163,-67
7234,554,0,2023-03-10T14:07:13.248584,6311425,1131,501,1399,-1019,-620,-260,109,163,-67
7235,555,0,2023-03-10T14:07:13.253245,6311430,1131,501,1399,-1019,-620,-260,109,163,-67
7236,556,0,2023-03-10T14:07:13.257543,6311434,1154,511,1418,-1028,-630,-268,109,163,-67
7237,557,0,2023-03-10T14:07:13.261879,6311438,1154,511,1418,-1028,-630,-268,109,163,-67
7238,558,0,2023-03-10T14:07:13.266887,6311443,1154,511,1418,-1028,-630,-268,109,163,-67
7239,559,0,2023-03-10T14:07:13.271654,6311448,1154,511,1418,-1028,-630,-268,109,163,-67
7240,560,0,2023-03-10T14:07:13.276105,6311452,1145,511,1402,-1020,-655,-263,109,163,-67
7241,561,0,2023-03-10T14:07:13.281186,6311457,1145,511,1402,-1020,-655,-263,109,163,-67
7242,562,0,2023-03-10T14:07:13.286184,6311462,1145,511,1402,-1020,-655,-263,109,163,-67
7243,563,0,2023-03-10T14:07:13.290350,6311467,1145,511,1402,-1020,-655,-263,109,163,-67
7244,564,0,2023-03-10T14:07:13.294801,6311471,1134,497,1391,-1040,-616,-249,109,163,-67
7245,565,0,2023-03-10T14:07:13.300481,6311477,1134,497,1391,-1040,-616,-249,109,163,-67
7246,566,0,2023-03-10T14:07:13.305764,6311482,1134,497,1391,-1040,-616,-249,109,163,-67
7247,567,0,2023-03-10T14:07:13.310223,6311487,1134,497,1391,-1040,-616,-249,109,163,-67
7248,568,0,2023-03-10T14:07:13.314683,6311491,1156,507,1405,-1007,-668,-268,109,163,-67
7249,569,0,2023-03-10T14:07:13.320291,6311496,1156,507,1405,-1007,-668,-268,109,163,-67
7250,570,0,2023-03-10T14:07:13.325645,6311502,1156,507,1405,-1007,-668,-268,109,163,-67
7251,571,0,2023-03-10T14:07:13.330538,6311506,1156,507,1405,-1007,-668,-268,109,163,-67
7252,572,0,2023-03-10T14:07:13.335181,6311512,1141,504,1394,-1015,-634,-240,115,163,-69
7253,573,0,2023-03-10T14:07:13.339652,6311516,1141,504,1394,-1015,-634,-240,115,163,-69
7254,574,0,2023-03-10T14:07:13.344272,6311521,1141,504,1394,-1015,-634,-240,115,163,-69
7255,575,0,2023-03-10T14:07:13.349402,6311526,1141,504,1394,-1015,-634,-240,115,163,-69
7256,576,0,2023-03-10T14:07:13.354320,6311530,1139,509,1405,-1020,-612,-260,115,163,-69
7257,577,0,2023-03-10T14:07:13.359354,6311536,1139,509,1405,-1020,-612,-260,115,163,-69
7258,578,0,2023-03-10T14:07:13.363936,6311540,1139,509,1405,-1020,-612,-260,115,163,-69
7259,579,0,2023-03-10T14:07:13.369200,6311545,1139,509,1405,-1020,-612,-260,115,163,-69
7260,580,0,2023-03-10T14:07:13.373992,6311550,1162,510,1414,-1008,-652,-261,115,163,-69
7261,581,0,2023-03-10T14:07:13.379322,6311556,1162,510,1414,-1008,-652,-261,115,163,-69
7262,582,0,2023-03-10T14:07:13.384014,6311560,1162,510,1414,-1008,-652,-261,115,163,-69
7263,583,0,2023-03-10T14:07:13.389393,6311566,1162,510,1414,-1008,-652,-261,115,163,-69
7264,584,0,2023-03-10T14:07:13.393865,6311570,1138,506,1386,-1032,-618,-248,115,163,-69
7265,585,0,2023-03-10T14:07:13.399118,6311575,1138,506,1386,-1032,-618,-248,115,163,-69
7266,586,0,2023-03-10T14:07:13.403707,6311580,1138,506,1386,-1032,-618,-248,115,163,-69
7267,587,0,2023-03-10T14:07:13.408914,6311585,1138,506,1386,-1032,-618,-248,115,163,-69
7268,588,0,2023-03-10T14:07:13.413371,6311589,1155,509,1395,-1027,-653,-264,115,163,-69
7269,589,0,2023-03-10T14:07:13.418453,6311595,1155,509,1395,-1027,-653,-264,115,163,-69
7270,590,0,2023-03-10T14:07:13.423387,6311600,1155,509,1395,-1027,-653,-264,115,163,-69
7271,591,0,2023-03-10T14:07:13.428561,6311605,1155,509,1395,-1027,-653,-264,115,163,-69
7272,592,0,2023-03-10T14:07:13.433070,6311609,1155,509,1395,-1027,-653,-264,115,163,-69
7273,593,0,2023-03-10T14:07:13.437571,6311614,1142,511,1396,-1027,-640,-247,115,163,-69
7274,594,0,2023-03-10T14:07:13.442350,6311619,1142,511,1396,-1027,-640,-247,115,163,-69
7275,595,0,2023-03-10T14:07:13.447253,6311623,1142,511,1396,-1027,-640,-247,115,163,-69
7276,596,0,2023-03-10T14:07:13.451733,6311628,1142,511,1396,-1027,-640,-247,115,163,-69
7277,597,0,2023-03-10T14:07:13.456252,6311632,1138,498,1390,-1024,-626,-260,115,163,-69
7278,598,0,2023-03-10T14:07:13.461294,6311638,1138,498,1390,-1024,-626,-260,115,163,-69
7279,599,0,2023-03-10T14:07:13.466158,6311643,1138,498,1390,-1024,-626,-260,115,163,-69
7280,600,0,2023-03-10T14:07:13.470644,6311647,1138,498,1390,-1024,-626,-260,115,163,-69
7281,601,0,2023-03-10T14:07:13.475058,6311652,1158,508,1407,-1009,-652,-273,125,155,-69
7282,602,0,2023-03-10T14:07:13.480234,6311657,1158,508,1407,-1009,-652,-273,125,155,-69
7283,603,0,2023-03-10T14:07:13.485117,6311661,1158,508,1407,-1009,-652,-273,125,155,-69
7284,604,0,2023-03-10T14:07:13.489647,6311666,1158,508,1407,-1009,-652,-273,125,155,-69
7285,605,0,2023-03-10T14:07:13.494116,6311670,1143,499,1396,-1018,-606,-248,125,155,-69
7286,606,0,2023-03-10T14:07:13.499015,6311675,1143,499,1396,-1018,-606,-248,125,155,-69
7287,607,0,2023-03-10T14:07:13.503491,6311680,1143,499,1396,-1018,-606,-248,125,155,-69
7288,608,0,2023-03-10T14:07:13.507821,6311685,1143,499,1396,-1018,-606,-248,125,155,-69
7289,609,0,2023-03-10T14:07:13.512318,6311689,1143,499,1396,-1018,-606,-248,125,155,-69
7290,610,0,2023-03-10T14:07:13.516749,6311693,1154,511,1402,-1015,-655,-264,125,155,-69
7291,611,0,2023-03-10T14:07:13.522117,6311698,1154,511,1402,-1015,-655,-264,125,155,-69
7292,612,0,2023-03-10T14:07:13.527974,6311704,1154,511,1402,-1015,-655,-264,125,155,-69
7293,613,0,2023-03-10T14:07:13.532571,6311709,1154,511,1402,-1015,-655,-264,125,155,-69
7294,614,0,2023-03-10T14:07:13.537294,6311713,1149,500,1391,-1029,-634,-255,125,155,-69
7295,615,0,2023-03-10T14:07:13.542203,6311718,1149,500,1391,-1029,-634,-255,125,155,-69
7296,616,0,2023-03-10T14:07:13.547432,6311724,1149,500,1391,-1029,-634,-255,125,155,-69
7297,617,0,2023-03-10T14:07:13.552035,6311729,1149,500,1391,-1029,-634,-255,125,155,-69
7298,618,0,2023-03-10T14:07:13.556755,6311733,1136,496,1393,-1027,-621,-242,125,155,-69
7299,619,0,2023-03-10T14:07:13.561657,6311738,1136,496,1393,-1027,-621,-242,125,155,-69
7300,620,0,2023-03-10T14:07:13.566793,6311743,1136,496,1393,-1027,-621,-242,125,155,-69
7301,621,0,2023-03-10T14:07:13.571363,6311748,1136,496,1393,-1027,-621,-242,125,155,-69
7302,622,0,2023-03-10T14:07:13.575806,6311752,1153,508,1402,-1009,-659,-267,125,155,-69
7303,623,0,2023-03-10T14:07:13.581224,6311757,1153,508,1402,-1009,-659,-267,125,155,-69
7304,624,0,2023-03-10T14:07:13.586126,6311762,1153,508,1402,-1009,-659,-267,125,155,-69
7305,625,0,2023-03-10T14:07:13.590593,6311767,1153,508,1402,-1009,-659,-267,125,155,-69
7306,626,0,2023-03-10T14:07:13.595203,6311772,1143,504,1402,-1025,-612,-251,117,157,-65
7307,627,0,2023-03-10T14:07:13.600896,6311777,1143,504,1402,-1025,-612,-251,117,157,-65
7308,628,0,2023-03-10T14:07:13.605947,6311782,1143,504,1402,-1025,-612,-251,117,157,-65
7309,629,0,2023-03-10T14:07:13.610444,6311787,1143,504,1402,-1025,-612,-251,117,157,-65
7310,630,0,2023-03-10T14:07:13.614838,6311791,1151,508,1391,-1010,-669,-258,117,157,-65
7311,631,0,2023-03-10T14:07:13.619817,6311796,1151,508,1391,-1010,-669,-258,117,157,-65
7312,632,0,2023-03-10T14:07:13.624228,6311800,1151,508,1391,-1010,-669,-258,117,157,-65
7313,633,0,2023-03-10T14:07:13.629310,6311805,1151,508,1391,-1010,-669,-258,117,157,-65
7314,634,0,2023-03-10T14:07:13.633678,6311810,1158,504,1396,-1026,-622,-258,117,157,-65
7315,635,0,2023-03-10T14:07:13.638701,6311815,1158,504,1396,-1026,-622,-258,117,157,-65
7316,636,0,2023-03-10T14:07:13.643307,6311820,1158,504,1396,-1026,-622,-258,117,157,-65
7317,637,0,2023-03-10T14:07:13.648135,6311825,1158,504,1396,-1026,-622,-258,117,157,-65
7318,638,0,2023-03-10T14:07:13.652693,6311829,1158,504,1396,-1026,-622,-258,117,157,-65
7319,639,0,2023-03-10T14:07:13.657438,6311834,1137,497,1389,-1022,-620,-257,117,157,-65
7320,640,0,2023-03-10T14:07:13.662364,6311838,1137,497,1389,-1022,-620,-257,117,157,-65
7321,641,0,2023-03-10T14:07:13.667613,6311843,1137,497,1389,-1022,-620,-257,117,157,-65
7322,642,0,2023-03-10T14:07:13.672086,6311848,1137,497,1389,-1022,-620,-257,117,157,-65
7323,643,0,2023-03-10T14:07:13.676629,6311853,1157,507,1402,-1025,-655,-268,117,157,-65
7324,644,0,2023-03-10T14:07:13.682226,6311859,1157,507,1402,-1025,-655,-268,117,157,-65
7325,645,0,2023-03-10T14:07:13.687272,6311864,1157,507,1402,-1025,-655,-268,117,157,-65
7326,646,0,2023-03-10T14:07:13.691828,6311868,1157,507,1402,-1025,-655,-268,117,157,-65
7327,647,0,2023-03-10T14:07:13.696200,6311873,1152,501,1395,-1023,-628,-258,117,157,-65
7328,648,0,2023-03-10T14:07:13.701874,6311878,1152,501,1395,-1023,-628,-258,117,157,-65
7329,649,0,2023-03-10T14:07:13.707022,6311883,1152,501,1395,-1023,-628,-258,117,157,-65
7330,650,0,2023-03-10T14:07:13.711556,6311887,1152,501,1395,-1023,-628,-258,117,157,-65
7331,651,0,2023-03-10T14:07:13.716085,6311892,1155,508,1391,-1018,-649,-278,116,156,-68
7332,652,0,2023-03-10T14:07:13.721395,6311898,1155,508,1391,-1018,-649,-278,116,156,-68
7333,653,0,2023-03-10T14:07:13.726458,6311903,1155,508,1391,-1018,-649,-278,116,156,-68
7334,654,0,2023-03-10T14:07:13.730852,6311907,1155,508,1391,-1018,-649,-278,116,156,-68
7335,655,0,2023-03-10T14:07:13.735471,6311912,1160,509,1398,-1024,-637,-264,116,156,-68
7336,656,0,2023-03-10T14:07:13.740435,6311917,1160,509,1398,-1024,-637,-264,116,156,-68
7337,657,0,2023-03-10T14:07:13.745430,6311922,1160,509,1398,-1024,-637,-264,116,156,-68
7338,658,0,2023-03-10T14:07:13.749793,6311926,1160,509,1398,-1024,-637,-264,116,156,-68
7339,659,0,2023-03-10T14:07:13.754486,6311930,1136,502,1392,-1024,-626,-247,116,156,-68
7340,660,0,2023-03-10T14:07:13.759750,6311936,1136,502,1392,-1024,-626,-247,116,156,-68
7341,661,0,2023-03-10T14:07:13.764218,6311941,1136,502,1392,-1024,-626,-247,116,156,-68
7342,662,0,2023-03-10T14:07:13.768944,6311946,1136,502,1392,-1024,-626,-247,116,156,-68
7343,663,0,2023-03-10T14:07:13.773471,6311950,1136,502,1392,-1024,-626,-247,116,156,-68
7344,664,0,2023-03-10T14:07:13.777876,6311954,1152,504,1405,-1026,-649,-263,116,156,-68
7345,665,0,2023-03-10T14:07:13.782843,6311959,1152,504,1405,-1026,-649,-263,116,156,-68
7346,666,0,2023-03-10T14:07:13.787088,6311963,1152,504,1405,-1026,-649,-263,116,156,-68
7347,667,0,2023-03-10T14:07:13.791563,6311968,1152,504,1405,-1026,-649,-263,116,156,-68
7348,668,0,2023-03-10T14:07:13.796103,6311972,1160,504,1397,-1029,-624,-260,116,156,-68
7349,669,0,2023-03-10T14:07:13.800812,6311977,1160,504,1397,-1029,-624,-260,116,156,-68
7350,670,0,2023-03-10T14:07:13.805709,6311983,1160,504,1397,-1029,-624,-260,116,156,-68
7351,671,0,2023-03-10T14:07:13.809948,6311987,1160,504,1397,-1029,-624,-260,116,156,-68
7352,672,0,2023-03-10T14:07:13.814479,6311991,1163,508,1382,-1028,-654,-266,116,156,-68
7353,673,0,2023-03-10T14:07:13.819545,6311996,1163,508,1382,-1028,-654,-266,116,156,-68
7354,674,0,2023-03-10T14:07:13.823949,6312000,1163,508,1382,-1028,-654,-266,116,156,-68
7355,675,0,2023-03-10T14:07:13.828771,6312005,1163,508,1382,-1028,-654,-266,116,156,-68
7356,676,0,2023-03-10T14:07:13.833351,6312009,1163,508,1382,-1028,-654,-266,116,156,-68
7357,677,0,2023-03-10T14:07:13.837919,6312014,1158,509,1394,-1031,-629,-262,116,156,-68
7358,678,0,2023-03-10T14:07:13.843006,6312019,1158,509,1394,-1031,-629,-262,116,156,-68
7359,679,0,2023-03-10T14:07:13.848047,6312025,1158,509,1394,-1031,-629,-262,116,156,-68
7360,680,0,2023-03-10T14:07:13.852597,6312029,1158,509,1394,-1031,-629,-262,116,156,-68
7361,681,0,2023-03-10T14:07:13.857157,6312034,1156,507,1392,-1025,-654,-266,122,154,-68
7362,682,0,2023-03-10T14:07:13.862259,6312039,1156,507,1392,-1025,-654,-266,122,154,-68
7363,683,0,2023-03-10T14:07:13.867275,6312044,1156,507,1392,-1025,-654,-266,122,154,-68
7364,684,0,2023-03-10T14:07:13.871653,6312048,1156,507,1392,-1025,-654,-266,122,154,-68
7365,685,0,2023-03-10T14:07:13.876005,6312052,1148,497,1390,-1022,-631,-256,122,154,-68
7366,686,0,2023-03-10T14:07:13.881301,6312057,1148,497,1390,-1022,-631,-256,122,154,-68
7367,687,0,2023-03-10T14:07:13.885815,6312062,1148,497,1390,-1022,-631,-256,122,154,-68
7368,688,0,2023-03-10T14:07:13.890326,6312067,1148,497,1390,-1022,-631,-256,122,154,-68
7369,689,0,2023-03-10T14:07:13.894666,6312071,1157,509,1400,-1017,-638,-259,122,154,-68
7370,690,0,2023-03-10T14:07:13.899527,6312076,1157,509,1400,-1017,-638,-259,122,154,-68
7371,691,0,2023-03-10T14:07:13.903964,6312080,1157,509,1400,-1017,-638,-259,122,154,-68
7372,692,0,2023-03-10T14:07:13.908786,6312085,1157,509,1400,-1017,-638,-259,122,154,-68
7373,693,0,2023-03-10T14:07:13.913372,6312089,1157,509,1400,-1017,-638,-259,122,154,-68
7374,694,0,2023-03-10T14:07:13.917674,6312094,1167,513,1399,-1022,-643,-267,122,154,-68
7375,695,0,2023-03-10T14:07:13.922622,6312099,1167,513,1399,-1022,-643,-267,122,154,-68
7376,696,0,2023-03-10T14:07:13.927435,6312103,1167,513,1399,-1022,-643,-267,122,154,-68
7377,697,0,2023-03-10T14:07:13.932228,6312109,1167,513,1399,-1022,-643,-267,122,154,-68
7378,698,0,2023-03-10T14:07:13.936705,6312113,1155,505,1377,-1035,-641,-257,122,154,-68
7379,699,0,2023-03-10T14:07:13.941821,6312118,1155,505,1377,-1035,-641,-257,122,154,-68
7380,700,0,2023-03-10T14:07:13.946279,6312123,1155,505,1377,-1035,-641,-257,122,154,-68
7381,701,0,2023-03-10T14:07:13.950421,6312127,1155,505,1377,-1035,-641,-257,122,154,-68
7382,702,0,2023-03-10T14:07:13.954816,6312131,1157,504,1383,-1016,-623,-256,122,154,-68
7383,703,0,2023-03-10T14:07:13.959739,6312136,1157,504,1383,-1016,-623,-256,122,154,-68
7384,704,0,2023-03-10T14:07:13.964194,6312140,1157,504,1383,-1016,-623,-256,122,154,-68
7385,705,0,2023-03-10T14:07:13.969200,6312145,1157,504,1383,-1016,-623,-256,122,154,-68
7386,706,0,2023-03-10T14:07:13.973559,6312150,1157,504,1383,-1016,-623,-256,122,154,-68
7387,707,0,2023-03-10T14:07:13.978083,6312155,1169,509,1400,-1019,-628,-273,118,154,-70
7388,708,0,2023-03-10T14:07:13.983249,6312160,1169,509,1400,-1019,-628,-273,118,154,-70
7389,709,0,2023-03-10T14:07:13.988115,6312165,1169,509,1400,-1019,-628,-273,118,154,-70
7390,710,0,2023-03-10T14:07:13.992531,6312169,1169,509,1400,-1019,-628,-273,118,154,-70
7391,711,0,2023-03-10T14:07:13.996967,6312173,1147,500,1383,-1035,-642,-243,118,154,-70
7392,712,0,2023-03-10T14:07:14.002173,6312178,1147,500,1383,-1035,-642,-243,118,154,-70
7393,713,0,2023-03-10T14:07:14.007380,6312183,1147,500,1383,-1035,-642,-243,118,154,-70
7394,714,0,2023-03-10T14:07:14.011912,6312188,1147,500,1383,-1035,-642,-243,118,154,-70
7395,715,0,2023-03-10T14:07:14.016491,6312193,1176,520,1405,-1025,-648,-279,118,154,-70
7396,716,0,2023-03-10T14:07:14.021837,6312198,1176,520,1405,-1025,-648,-279,118,154,-70
7397,717,0,2023-03-10T14:07:14.026745,6312203,1176,520,1405,-1025,-648,-279,118,154,-70
7398,718,0,2023-03-10T14:07:14.031242,6312208,1176,520,1405,-1025,-648,-279,118,154,-70
7399,719,0,2023-03-10T14:07:14.035786,6312212,1152,502,1382,-1028,-625,-248,118,154,-70
7400,720,0,2023-03-10T14:07:14.040634,6312217,1152,502,1382,-1028,-625,-248,118,154,-70
7401,721,0,2023-03-10T14:07:14.045817,6312222,1152,502,1382,-1028,-625,-248,118,154,-70
7402,722,0,2023-03-10T14:07:14.050249,6312226,1152,502,1382,-1028,-625,-248,118,154,-70
7403,723,0,2023-03-10T14:07:14.054712,6312231,1153,499,1386,-1021,-629,-270,118,154,-70
7404,724,0,2023-03-10T14:07:14.059785,6312236,1153,499,1386,-1021,-629,-270,118,154,-70
7405,725,0,2023-03-10T14:07:14.064313,6312241,1153,499,1386,-1021,-629,-270,118,154,-70
7406,726,0,2023-03-10T14:07:14.069365,6312246,1153,499,1386,-1021,-629,-270,118,154,-70
7407,727,0,2023-03-10T14:07:14.073772,6312250,1153,499,1386,-1021,-629,-270,118,154,-70
7408,728,0,2023-03-10T14:07:14.078144,6312255,1161,507,1399,-1013,-659,-261,118,154,-70
7409,729,0,2023-03-10T14:07:14.083430,6312260,1161,507,1399,-1013,-659,-261,118,154,-70
7410,730,0,2023-03-10T14:07:14.087785,6312264,1161,507,1399,-1013,-659,-261,118,154,-70
7411,731,0,2023-03-10T14:07:14.092387,6312268,1161,507,1399,-1013,-659,-261,118,154,-70
7412,732,0,2023-03-10T14:07:14.097074,6312273,1158,505,1391,-1032,-609,-269,118,154,-70
7413,733,0,2023-03-10T14:07:14.102699,6312280,1158,505,1391,-1032,-609,-269,118,154,-70
7414,734,0,2023-03-10T14:07:14.107775,6312284,1158,505,1391,-1032,-609,-269,118,154,-70
7415,735,0,2023-03-10T14:07:14.112360,6312289,1158,505,1391,-1032,-609,-269,118,154,-70
7416,736,0,2023-03-10T14:07:14.116921,6312293,1154,505,1396,-1011,-635,-253,129,161,-75
7417,737,0,2023-03-10T14:07:14.121864,6312298,1154,505,1396,-1011,-635,-253,129,161,-75
7418,738,0,2023-03-10T14:07:14.126881,6312303,1154,505,1396,-1011,-635,-253,129,161,-75
7419,739,0,2023-03-10T14:07:14.131354,6312308,1154,505,1396,-1011,-635,-253,129,161,-75
7420,740,0,2023-03-10T14:07:14.136091,6312312,1175,513,1395,-1027,-639,-273,129,161,-75
7421,741,0,2023-03-10T14:07:14.141168,6312317,1175,513,1395,-1027,-639,-273,129,161,-75
7422,742,0,2023-03-10T14:07:14.146138,6312323,1175,513,1395,-1027,-639,-273,129,161,-75
7423,743,0,2023-03-10T14:07:14.150476,6312327,1175,513,1395,-1027,-639,-273,129,161,-75
7424,744,0,2023-03-10T14:07:14.155214,6312332,1150,502,1383,-1025,-628,-244,129,161,-75
7425,745,0,2023-03-10T14:07:14.160288,6312337,1150,502,1383,-1025,-628,-244,129,161,-75
7426,746,0,2023-03-10T14:07:14.165324,6312342,1150,502,1383,-1025,-628,-244,129,161,-75
7427,747,0,2023-03-10T14:07:14.170413,6312346,1150,502,1383,-1025,-628,-244,129,161,-75
7428,748,0,2023-03-10T14:07:14.175153,6312351,1164,512,1395,-1030,-633,-275,129,161,-75
7429,749,0,2023-03-10T14:07:14.180118,6312356,1164,512,1395,-1030,-633,-275,129,161,-75
7430,750,0,2023-03-10T14:07:14.185113,6312361,1164,512,1395,-1030,-633,-275,129,161,-75
7431,751,0,2023-03-10T14:07:14.189544,6312366,1164,512,1395,-1030,-633,-275,129,161,-75
7432,752,0,2023-03-10T14:07:14.194094,6312371,1164,512,1395,-1030,-633,-275,129,161,-75
7433,753,0,2023-03-10T14:07:14.198677,6312375,1145,499,1400,-1021,-641,-248,129,161,-75
7434,754,0,2023-03-10T14:07:14.203730,6312380,1145,499,1400,-1021,-641,-248,129,161,-75
7435,755,0,2023-03-10T14:07:14.208593,6312385,1145,499,1400,-1021,-641,-248,129,161,-75
7436,756,0,2023-03-10T14:07:14.213162,6312389,1145,499,1400,-1021,-641,-248,129,161,-75
7437,757,0,2023-03-10T14:07:14.217520,6312394,1174,510,1390,-1022,-634,-268,129,161,-75
7438,758,0,2023-03-10T14:07:14.222678,6312399,1174,510,1390,-1022,-634,-268,129,161,-75
7439,759,0,2023-03-10T14:07:14.227549,6312404,1174,510,1390,-1022,-634,-268,129,161,-75
7440,760,0,2023-03-10T14:07:14.232058,6312409,1174,510,1390,-1022,-634,-268,129,161,-75
7441,761,0,2023-03-10T14:07:14.236511,6312413,1164,502,1394,-1023,-640,-251,119,163,-73
7442,762,0,2023-03-10T14:07:14.241442,6312418,1164,502,1394,-1023,-640,-251,119,163,-73
7443,763,0,2023-03-10T14:07:14.246428,6312423,1164,502,1394,-1023,-640,-251,119,163,-73
7444,764,0,2023-03-10T14:07:14.251200,6312427,1164,502,1394,-1023,-640,-251,119,163,-73
7445,765,0,2023-03-10T14:07:14.255522,6312432,1158,509,1387,-1030,-642,-265,119,163,-73
7446,766,0,2023-03-10T14:07:14.260560,6312437,1158,509,1387,-1030,-642,-265,119,163,-73
7447,767,0,2023-03-10T14:07:14.265736,6312442,1158,509,1387,-1030,-642,-265,119,163,-73
7448,768,0,2023-03-10T14:07:14.270312,6312446,1158,509,1387,-1030,-642,-265,119,163,-73
7449,769,0,2023-03-10T14:07:14.274903,6312452,1156,505,1383,-1023,-637,-255,119,163,-73
7450,770,0,2023-03-10T14:07:14.279956,6312457,1156,505,1383,-1023,-637,-255,119,163,-73
7451,771,0,2023-03-10T14:07:14.284443,6312461,1156,505,1383,-1023,-637,-255,119,163,-73
7452,772,0,2023-03-10T14:07:14.289270,6312466,1156,505,1383,-1023,-637,-255,119,163,-73
7453,773,0,2023-03-10T14:07:14.293947,6312470,1156,505,1383,-1023,-637,-255,119,163,-73
7454,774,0,2023-03-10T14:07:14.298377,6312475,1159,500,1396,-1020,-622,-267,119,163,-73
7455,775,0,2023-03-10T14:07:14.303287,6312479,1159,500,1396,-1020,-622,-267,119,163,-73
7456,776,0,2023-03-10T14:07:14.308712,6312485,1159,500,1396,-1020,-622,-267,119,163,-73
7457,777,0,2023-03-10T14:07:14.313306,6312489,1159,500,1396,-1020,-622,-267,119,163,-73
7458,778,0,2023-03-10T14:07:14.318269,6312495,1169,503,1391,-1017,-668,-262,119,163,-73
7459,779,0,2023-03-10T14:07:14.323486,6312500,1169,503,1391,-1017,-668,-262,119,163,-73
7460,780,0,2023-03-10T14:07:14.328413,6312505,1169,503,1391,-1017,-668,-262,119,163,-73
7461,781,0,2023-03-10T14:07:14.332671,6312509,1169,503,1391,-1017,-668,-262,119,163,-73
7462,782,0,2023-03-10T14:07:14.337244,6312514,1164,501,1388,-1033,-609,-261,119,163,-73
7463,783,0,2023-03-10T14:07:14.342364,6312518,1164,501,1388,-1033,-609,-261,119,163,-73
7464,784,0,2023-03-10T14:07:14.347360,6312523,1164,501,1388,-1033,-609,-261,119,163,-73
7465,785,0,2023-03-10T14:07:14.351663,6312528,1164,501,1388,-1033,-609,-261,119,163,-73
7466,786,0,2023-03-10T14:07:14.356118,6312532,1161,509,1388,-1017,-665,-255,125,155,-79
7467,787,0,2023-03-10T14:07:14.360981,6312538,1161,509,1388,-1017,-665,-255,125,155,-79
7468,788,0,2023-03-10T14:07:14.366185,6312543,1161,509,1388,-1017,-665,-255,125,155,-79
7469,789,0,2023-03-10T14:07:14.370770,6312547,1161,509,1388,-1017,-665,-255,125,155,-79
7470,790,0,2023-03-10T14:07:14.375263,6312552,1168,506,1400,-1025,-617,-271,125,155,-79
7471,791,0,2023-03-10T14:07:14.380559,6312557,1168,506,1400,-1025,-617,-271,125,155,-79
7472,792,0,2023-03-10T14:07:14.385735,6312562,1168,506,1400,-1025,-617,-271,125,155,-79
7473,793,0,2023-03-10T14:07:14.390113,6312566,1168,506,1400,-1025,-617,-271,125,155,-79
7474,794,0,2023-03-10T14:07:14.394536,6312571,1168,506,1400,-1025,-617,-271,125,155,-79
7475,795,0,2023-03-10T14:07:14.398955,6312576,1145,488,1377,-1022,-619,-242,125,155,-79
7476,796,0,2023-03-10T14:07:14.404004,6312581,1145,488,1377,-1022,-619,-242,125,155,-79
7477,797,0,2023-03-10T14:07:14.409078,6312586,1145,488,1377,-1022,-619,-242,125,155,-79
7478,798,0,2023-03-10T14:07:14.413667,6312590,1145,488,1377,-1022,-619,-242,125,155,-79
7479,799,0,2023-03-10T14:07:14.418181,6312595,1172,510,1410,-1006,-643,-279,125,155,-79
7480,800,0,2023-03-10T14:07:14.422918,6312599,1172,510,1410,-1006,-643,-279,125,155,-79
7481,801,0,2023-03-10T14:07:14.427939,6312604,1172,510,1410,-1006,-643,-279,125,155,-79
7482,802,0,2023-03-10T14:07:14.432241,6312608,1172,510,1410,-1006,-643,-279,125,155,-79
7483,803,0,2023-03-10T14:07:14.436785,6312613,1163,505,1382,-1041,-639,-255,125,155,-79
7484,804,0,2023-03-10T14:07:14.441878,6312619,1163,505,1382,-1041,-639,-255,125,155,-79
7485,805,0,2023-03-10T14:07:14.446730,6312624,1163,505,1382,-1041,-639,-255,125,155,-79
7486,806,0,2023-03-10T14:07:14.451139,6312628,1163,505,1382,-1041,-639,-255,125,155,-79
7487,807,0,2023-03-10T14:07:14.455565,6312632,1173,512,1383,-1019,-647,-277,125,155,-79
7488,808,0,2023-03-10T14:07:14.460885,6312637,1173,512,1383,-1019,-647,-277,125,155,-79
7489,809,0,2023-03-10T14:07:14.466059,6312642,1173,512,1383,-1019,-647,-277,125,155,-79
7490,810,0,2023-03-10T14:07:14.470575,6312647,1173,512,1383,-1019,-647,-277,125,155,-79
7491,811,0,2023-03-10T14:07:14.475106,6312651,1158,500,1384,-1018,-634,-240,125,155,-79
7492,812,0,2023-03-10T14:07:14.480220,6312656,1158,500,1384,-1018,-634,-240,125,155,-79
7493,813,0,2023-03-10T14:07:14.484654,6312660,1158,500,1384,-1018,-634,-240,125,155,-79
7494,814,0,2023-03-10T14:07:14.489592,6312666,1158,500,1384,-1018,-634,-240,125,155,-79
7495,815,0,2023-03-10T14:07:14.494206,6312671,1158,500,1384,-1018,-634,-240,125,155,-79
7496,816,0,2023-03-10T14:07:14.498750,6312675,1179,513,1392,-1020,-630,-283,121,157,-77
7497,817,0,2023-03-10T14:07:14.504046,6312680,1179,513,1392,-1020,-630,-283,121,157,-77
7498,818,0,2023-03-10T14:07:14.508447,6312685,1179,513,1392,-1020,-630,-283,121,157,-77
7499,819,0,2023-03-10T14:07:14.512904,6312689,1179,513,1392,-1020,-630,-283,121,157,-77
7500,820,0,2023-03-10T14:07:14.517447,6312694,1144,497,1383,-1030,-638,-244,121,157,-77
7501,821,0,2023-03-10T14:07:14.523166,6312699,1144,497,1383,-1030,-638,-244,121,157,-77
7502,822,0,2023-03-10T14:07:14.527629,6312705,1144,497,1383,-1030,-638,-244,121,157,-77
7503,823,0,2023-03-10T14:07:14.532070,6312709,1144,497,1383,-1030,-638,-244,121,157,-77
7504,824,0,2023-03-10T14:07:14.536550,6312713,1180,518,1400,-1019,-623,-284,121,157,-77
7505,825,0,2023-03-10T14:07:14.541813,6312718,1180,518,1400,-1019,-623,-284,121,157,-77
7506,826,0,2023-03-10T14:07:14.546876,6312723,1180,518,1400,-1019,-623,-284,121,157,-77
7507,827,0,2023-03-10T14:07:14.551387,6312728,1180,518,1400,-1019,-623,-284,121,157,-77
7508,828,0,2023-03-10T14:07:14.556053,6312732,1172,504,1380,-1019,-647,-254,121,157,-77
7509,829,0,2023-03-10T14:07:14.560506,6312737,1172,504,1380,-1019,-647,-254,121,157,-77
7510,830,0,2023-03-10T14:07:14.565580,6312742,1172,504,1380,-1019,-647,-254,121,157,-77
7511,831,0,2023-03-10T14:07:14.569945,6312747,1172,504,1380,-1019,-647,-254,121,157,-77
7512,832,0,2023-03-10T14:07:14.574474,6312751,1172,504,1380,-1019,-647,-254,121,157,-77
7513,833,0,2023-03-10T14:07:14.579181,6312756,1161,511,1375,-1034,-620,-256,121,157,-77
7514,834,0,2023-03-10T14:07:14.584153,6312761,1161,511,1375,-1034,-620,-256,121,157,-77
7515,835,0,2023-03-10T14:07:14.590149,6312767,1161,511,1375,-1034,-620,-256,121,157,-77
7516,836,0,2023-03-10T14:07:14.594760,6312771,1161,511,1375,-1034,-620,-256,121,157,-77
7517,837,0,2023-03-10T14:07:14.599155,6312775,1174,505,1393,-1024,-645,-251,121,157,-77
7518,838,0,2023-03-10T14:07:14.604353,6312780,1174,505,1393,-1024,-645,-251,121,157,-77
7519,839,0,2023-03-10T14:07:14.609114,6312785,1174,505,1393,-1024,-645,-251,121,157,-77
7520,840,0,2023-03-10T14:07:14.613591,6312791,1174,505,1393,-1024,-645,-251,121,157,-77
7521,841,0,2023-03-10T14:07:14.618079,6312795,1153,498,1382,-1030,-638,-271,119,157,-67
7522,842,0,2023-03-10T14:07:14.623332,6312800,1153,498,1382,-1030,-638,-271,119,157,-67
7523,843,0,2023-03-10T14:07:14.627806,6312804,1153,498,1382,-1030,-638,-271,119,157,-67
7524,844,0,2023-03-10T14:07:14.632250,6312809,1153,498,1382,-1030,-638,-271,119,157,-67
7525,845,0,2023-03-10T14:07:14.636716,6312813,1172,502,1389,-1037,-639,-269,119,157,-67
7526,846,0,2023-03-10T14:07:14.641948,6312818,1172,502,1389,-1037,-639,-269,119,157,-67
7527,847,0,2023-03-10T14:07:14.647122,6312823,1172,502,1389,-1037,-639,-269,119,157,-67
7528,848,0,2023-03-10T14:07:14.651558,6312827,1172,502,1389,-1037,-639,-269,119,157,-67
7529,849,0,2023-03-10T14:07:14.656085,6312833,1184,518,1395,-1009,-646,-286,119,157,-67
7530,850,0,2023-03-10T14:07:14.661244,6312838,1184,518,1395,-1009,-646,-286,119,157,-67
7531,851,0,2023-03-10T14:07:14.666236,6312843,1184,518,1395,-1009,-646,-286,119,157,-67
7532,852,0,2023-03-10T14:07:14.670700,6312847,1184,518,1395,-1009,-646,-286,119,157,-67
7533,853,0,2023-03-10T14:07:14.675193,6312852,1156,504,1375,-1037,-619,-247,119,157,-67
7534,854,0,2023-03-10T14:07:14.680309,6312856,1156,504,1375,-1037,-619,-247,119,157,-67
7535,855,0,2023-03-10T14:07:14.684839,6312861,1156,504,1375,-1037,-619,-247,119,157,-67
7536,856,0,2023-03-10T14:07:14.689904,6312866,1156,504,1375,-1037,-619,-247,119,157,-67
7537,857,0,2023-03-10T14:07:14.694473,6312870,1156,504,1375,-1037,-619,-247,119,157,-67
7538,858,0,2023-03-10T14:07:14.698968,6312876,1186,515,1398,-1013,-651,-291,119,157,-67
7539,859,0,2023-03-10T14:07:14.704123,6312881,1186,515,1398,-1013,-651,-291,119,157,-67
7540,860,0,2023-03-10T14:07:14.709212,6312886,1186,515,1398,-1013,-651,-291,119,157,-67
7541,861,0,2023-03-10T14:07:14.713745,6312890,1186,515,1398,-1013,-651,-291,119,157,-67
7542,862,0,2023-03-10T14:07:14.718415,6312895,1152,491,1375,-1034,-642,-240,119,157,-67
7543,863,0,2023-03-10T14:07:14.723890,6312900,1152,491,1375,-1034,-642,-240,119,157,-67
7544,864,0,2023-03-10T14:07:14.728941,6312905,1152,491,1375,-1034,-642,-240,119,157,-67
7545,865,0,2023-03-10T14:07:14.733617,6312910,1152,491,1375,-1034,-642,-240,119,157,-67
7546,866,0,2023-03-10T14:07:14.738188,6312914,1175,508,1388,-1024,-621,-274,119,157,-67
7547,867,0,2023-03-10T14:07:14.743729,6312920,1175,508,1388,-1024,-621,-274,119,157,-67
7548,868,0,2023-03-10T14:07:14.748636,6312925,1175,508,1388,-1024,-621,-274,119,157,-67
7549,869,0,2023-03-10T14:07:14.753612,6312930,1175,508,1388,-1024,-621,-274,119,157,-67
7550,870,0,2023-03-10T14:07:14.758084,6312935,1178,505,1397,-1018,-675,-253,116,158,-64
7551,871,0,2023-03-10T14:07:14.762451,6312939,1178,505,1397,-1018,-675,-253,116,158,-64
7552,872,0,2023-03-10T14:07:14.766839,6312943,1178,505,1397,-1018,-675,-253,116,158,-64
7553,873,0,2023-03-10T14:07:14.771497,6312948,1178,505,1397,-1018,-675,-253,116,158,-64
7554,874,0,2023-03-10T14:07:14.776086,6312952,1154,501,1383,-1017,-614,-252,116,158,-64
7555,875,0,2023-03-10T14:07:14.780842,6312957,1154,501,1383,-1017,-614,-252,116,158,-64
7556,876,0,2023-03-10T14:07:14.785788,6312963,1154,501,1383,-1017,-614,-252,116,158,-64
7557,877,0,2023-03-10T14:07:14.790216,6312967,1154,501,1383,-1017,-614,-252,116,158,-64
7558,878,0,2023-03-10T14:07:14.794833,6312971,1154,501,1383,-1017,-614,-252,116,158,-64
7559,879,0,2023-03-10T14:07:14.799435,6312976,1184,512,1388,-1027,-658,-288,116,158,-64
7560,880,0,2023-03-10T14:07:14.804415,6312981,1184,512,1388,-1027,-658,-288,116,158,-64
7561,881,0,2023-03-10T14:07:14.809496,6312986,1184,512,1388,-1027,-658,-288,116,158,-64
7562,882,0,2023-03-10T14:07:14.813907,6312990,1184,512,1388,-1027,-658,-288,116,158,-64
7563,883,0,2023-03-10T14:07:14.818495,6312994,1160,500,1381,-1027,-632,-242,116,158,-64
7564,884,0,2023-03-10T14:07:14.823386,6312999,1160,500,1381,-1027,-632,-242,116,158,-64
7565,885,0,2023-03-10T14:07:14.828681,6313006,1160,500,1381,-1027,-632,-242,116,158,-64
7566,886,0,2023-03-10T14:07:14.833078,6313010,1160,500,1381,-1027,-632,-242,116,158,-64
7567,887,0,2023-03-10T14:07:14.837455,6313014,1167,511,1390,-1032,-615,-280,116,158,-64
7568,888,0,2023-03-10T14:07:14.842393,6313019,1167,511,1390,-1032,-615,-280,116,158,-64
7569,889,0,2023-03-10T14:07:14.847379,6313024,1167,511,1390,-1032,-615,-280,116,158,-64
7570,890,0,2023-03-10T14:07:14.851948,6313028,1167,511,1390,-1032,-615,-280,116,158,-64
7571,891,0,2023-03-10T14:07:14.856462,6313033,1176,507,1397,-1023,-659,-267,116,158,-64
7572,892,0,2023-03-10T14:07:14.861516,6313038,1176,507,1397,-1023,-659,-267,116,158,-64
7573,893,0,2023-03-10T14:07:14.866550,6313042,1176,507,1397,-1023,-659,-267,116,158,-64
7574,894,0,2023-03-10T14:07:14.871110,6313048,1176,507,1397,-1023,-659,-267,116,158,-64
7575,895,0,2023-03-10T14:07:14.875543,6313052,1160,503,1383,-1039,-621,-259,126,150,-70
7576,896,0,2023-03-10T14:07:14.880400,6313057,1160,503,1383,-1039,-621,-259,126,150,-70
7577,897,0,2023-03-10T14:07:14.885507,6313062,1160,503,1383,-1039,-621,-259,126,150,-70
7578,898,0,2023-03-10T14:07:14.889868,6313066,1160,503,1383,-1039,-621,-259,126,150,-70
7579,899,0,2023-03-10T14:07:14.894607,6313071,1160,503,1383,-1039,-621,-259,126,150,-70
7580,900,0,2023-03-10T14:07:14.898985,6313075,1176,503,1396,-1024,-674,-259,126,150,-70
7581,901,0,2023-03-10T14:07:14.904079,6313080,1176,503,1396,-1024,-674,-259,126,150,-70
7582,902,0,2023-03-10T14:07:14.909139,6313085,1176,503,1396,-1024,-674,-259,126,150,-70
7583,903,0,2023-03-10T14:07:14.913415,6313090,1176,503,1396,-1024,-674,-259,126,150,-70
7584,904,0,2023-03-10T14:07:14.917979,6313095,1169,512,1392,-1031,-626,-263,126,150,-70
7585,905,0,2023-03-10T14:07:14.923192,6313100,1169,512,1392,-1031,-626,-263,126,150,-70
7586,906,0,2023-03-10T14:07:14.928483,6313105,1169,512,1392,-1031,-626,-263,126,150,-70
7587,907,0,2023-03-10T14:07:14.932926,6313109,1169,512,1392,-1031,-626,-263,126,150,-70
7588,908,0,2023-03-10T14:07:14.937333,6313114,1160,504,1390,-1030,-625,-255,126,150,-70
7589,909,0,2023-03-10T14:07:14.942110,6313118,1160,504,1390,-1030,-625,-255,126,150,-70
7590,910,0,2023-03-10T14:07:14.947202,6313123,1160,504,1390,-1030,-625,-255,126,150,-70
7591,911,0,2023-03-10T14:07:14.951581,6313128,1160,504,1390,-1030,-625,-255,126,150,-70
7592,912,0,2023-03-10T14:07:14.955924,6313133,1180,509,1397,-1014,-661,-279,126,150,-70
7593,913,0,2023-03-10T14:07:14.960387,6313137,1180,509,1397,-1014,-661,-279,126,150,-70
7594,914,0,2023-03-10T14:07:14.965609,6313142,1180,509,1397,-1014,-661,-279,126,150,-70
7595,915,0,2023-03-10T14:07:14.970067,6313147,1180,509,1397,-1014,-661,-279,126,150,-70
7596,916,0,2023-03-10T14:07:14.974522,6313151,1180,509,1397,-1014,-661,-279,126,150,-70
7597,917,0,2023-03-10T14:07:14.979046,6313155,1162,494,1376,-1045,-613,-246,126,150,-70
7598,918,0,2023-03-10T14:07:14.984208,6313160,1162,494,1376,-1045,-613,-246,126,150,-70
7599,919,0,2023-03-10T14:07:14.989512,6313165,1162,494,1376,-1045,-613,-246,126,150,-70
7600,920,0,2023-03-10T14:07:14.994384,6313170,1162,494,1376,-1045,-613,-246,126,150,-70
7601,921,0,2023-03-10T14:07:14.999494,6313176,1184,514,1385,-1008,-648,-289,126,150,-70
7602,922,0,2023-03-10T14:07:15.004493,6313181,1184,514,1385,-1008,-648,-289,126,150,-70
7603,923,0,2023-03-10T14:07:15.009298,6313186,1184,514,1385,-1008,-648,-289,126,150,-70
7604,924,0,2023-03-10T14:07:15.013605,6313190,1184,514,1385,-1008,-648,-289,126,150,-70
7605,925,0,2023-03-10T14:07:15.018091,6313194,1165,498,1387,-1045,-642,-251,113,153,-69
7606,926,0,2023-03-10T14:07:15.023080,6313199,1165,498,1387,-1045,-642,-251,113,153,-69
7607,927,0,2023-03-10T14:07:15.027799,6313204,1165,498,1387,-1045,-642,-251,113,153,-69
7608,928,0,2023-03-10T14:07:15.032182,6313208,1165,498,1387,-1045,-642,-251,113,153,-69
7609,929,0,2023-03-10T14:07:15.036611,6313213,1161,505,1384,-1018,-621,-279,113,153,-69
7610,930,0,2023-03-10T14:07:15.041303,6313218,1161,505,1384,-1018,-621,-279,113,153,-69
7611,931,0,2023-03-10T14:07:15.047436,6313224,1161,505,1384,-1018,-621,-279,113,153,-69
7612,932,0,2023-03-10T14:07:15.052422,6313229,1161,505,1384,-1018,-621,-279,113,153,-69
7613,933,0,2023-03-10T14:07:15.057194,6313234,1177,502,1392,-1004,-667,-239,113,153,-69
7614,934,0,2023-03-10T14:07:15.063171,6313240,1177,502,1392,-1004,-667,-239,113,153,-69
7615,935,0,2023-03-10T14:07:15.068213,6313245,1177,502,1392,-1004,-667,-239,113,153,-69
7616,936,0,2023-03-10T14:07:15.073194,6313249,1177,502,1392,-1004,-667,-239,113,153,-69
7617,937,0,2023-03-10T14:07:15.077664,6313254,1163,500,1388,-1018,-611,-258,113,153,-69
7618,938,0,2023-03-10T14:07:15.082462,6313259,1163,500,1388,-1018,-611,-258,113,153,-69
7619,939,0,2023-03-10T14:07:15.087404,6313264,1163,500,1388,-1018,-611,-258,113,153,-69
7620,940,0,2023-03-10T14:07:15.091840,6313269,1163,500,1388,-1018,-611,-258,113,153,-69
7621,941,0,2023-03-10T14:07:15.096221,6313273,1186,507,1371,-1040,-661,-291,113,153,-69
7622,942,0,2023-03-10T14:07:15.101356,6313278,1186,507,1371,-1040,-661,-291,113,153,-69
7623,943,0,2023-03-10T14:07:15.106274,6313283,1186,507,1371,-1040,-661,-291,113,153,-69
7624,944,0,2023-03-10T14:07:15.110724,6313287,1186,507,1371,-1040,-661,-291,113,153,-69
7625,945,0,2023-03-10T14:07:15.115334,6313291,1186,507,1371,-1040,-661,-291,113,153,-69
7626,946,0,2023-03-10T14:07:15.120375,6313296,1176,498,1388,-1024,-623,-255,113,153,-69
7627,947,0,2023-03-10T14:07:15.125208,6313302,1176,498,1388,-1024,-623,-255,113,153,-69
7628,948,0,2023-03-10T14:07:15.129618,6313307,1176,498,1388,-1024,-623,-255,113,153,-69
7629,949,0,2023-03-10T14:07:15.134033,6313311,1176,498,1388,-1024,-623,-255,113,153,-69
7630,950,0,2023-03-10T14:07:15.138335,6313315,1164,497,1377,-1028,-609,-271,118,154,-70
7631,951,0,2023-03-10T14:07:15.143463,6313320,1164,497,1377,-1028,-609,-271,118,154,-70
7632,952,0,2023-03-10T14:07:15.148253,6313325,1164,497,1377,-1028,-609,-271,118,154,-70
7633,953,0,2023-03-10T14:07:15.153037,6313329,1164,497,1377,-1028,-609,-271,118,154,-70
7634,954,0,2023-03-10T14:07:15.157474,6313334,1175,506,1402,-1015,-648,-266,118,154,-70
7635,955,0,2023-03-10T14:07:15.162529,6313339,1175,506,1402,-1015,-648,-266,118,154,-70
7636,956,0,2023-03-10T14:07:15.167740,6313344,1175,506,1402,-1015,-648,-266,118,154,-70
7637,957,0,2023-03-10T14:07:15.172297,6313349,1175,506,1402,-1015,-648,-266,118,154,-70
7638,958,0,2023-03-10T14:07:15.176660,6313353,1176,510,1388,-1029,-606,-283,118,154,-70
7639,959,0,2023-03-10T14:07:15.181762,6313358,1176,510,1388,-1029,-606,-283,118,154,-70
7640,960,0,2023-03-10T14:07:15.186703,6313363,1176,510,1388,-1029,-606,-283,118,154,-70
7641,961,0,2023-03-10T14:07:15.191065,6313368,1176,510,1388,-1029,-606,-283,118,154,-70
7642,962,0,2023-03-10T14:07:15.195474,6313372,1176,510,1388,-1029,-606,-283,118,154,-70
7643,963,0,2023-03-10T14:07:15.200063,6313376,1173,500,1385,-1012,-663,-226,118,154,-70
7644,964,0,2023-03-10T14:07:15.205114,6313381,1173,500,1385,-1012,-663,-226,118,154,-70
7645,965,0,2023-03-10T14:07:15.210037,6313387,1173,500,1385,-1012,-663,-226,118,154,-70
7646,966,0,2023-03-10T14:07:15.214550,6313391,1173,500,1385,-1012,-663,-226,118,154,-70
7647,967,0,2023-03-10T14:07:15.219032,6313396,1180,508,1392,-1015,-635,-257,118,154,-70
7648,968,0,2023-03-10T14:07:15.224196,6313401,1180,508,1392,-1015,-635,-257,118,154,-70
7649,969,0,2023-03-10T14:07:15.228605,6313405,1180,508,1392,-1015,-635,-257,118,154,-70
7650,970,0,2023-03-10T14:07:15.233108,6313409,1180,508,1392,-1015,-635,-257,118,154,-70
7651,971,0,2023-03-10T14:07:15.237548,6313414,1171,498,1367,-1046,-630,-273,118,154,-70
7652,972,0,2023-03-10T14:07:15.242982,6313419,1171,498,1367,-1046,-630,-273,118,154,-70
7653,973,0,2023-03-10T14:07:15.247632,6313424,1171,498,1367,-1046,-630,-273,118,154,-70
7654,974,0,2023-03-10T14:07:15.252256,6313428,1171,498,1367,-1046,-630,-273,118,154,-70
7655,975,0,2023-03-10T14:07:15.256642,6313434,1179,505,1393,-996,-659,-258,119,155,-73
7656,976,0,2023-03-10T14:07:15.261719,6313438,1179,505,1393,-996,-659,-258,119,155,-73
7657,977,0,2023-03-10T14:07:15.266717,6313443,1179,505,1393,-996,-659,-258,119,155,-73
7658,978,0,2023-03-10T14:07:15.271076,6313448,1179,505,1393,-996,-659,-258,119,155,-73
7659,979,0,2023-03-10T14:07:15.275723,6313452,1179,505,1393,-996,-659,-258,119,155,-73
7660,980,0,2023-03-10T14:07:15.280422,6313457,1178,507,1386,-1027,-599,-267,119,155,-73
7661,981,0,2023-03-10T14:07:15.285261,6313462,1178,507,1386,-1027,-599,-267,119,155,-73
7662,982,0,2023-03-10T14:07:15.290338,6313466,1178,507,1386,-1027,-599,-267,119,155,-73
7663,983,0,2023-03-10T14:07:15.295097,6313472,1178,507,1386,-1027,-599,-267,119,155,-73
7664,984,0,2023-03-10T14:07:15.299659,6313476,1166,504,1380,-1009,-648,-264,119,155,-73
7665,985,0,2023-03-10T14:07:15.304571,6313481,1166,504,1380,-1009,-648,-264,119,155,-73
7666,986,0,2023-03-10T14:07:15.309334,6313486,1166,504,1380,-1009,-648,-264,119,155,-73
7667,987,0,2023-03-10T14:07:15.313564,6313490,1166,504,1380,-1009,-648,-264,119,155,-73
7668,988,0,2023-03-10T14:07:15.317856,6313494,1189,512,1387,-1025,-624,-283,119,155,-73
7669,989,0,2023-03-10T14:07:15.323164,6313499,1189,512,1387,-1025,-624,-283,119,155,-73
7670,990,0,2023-03-10T14:07:15.328287,6313504,1189,512,1387,-1025,-624,-283,119,155,-73
7671,991,0,2023-03-10T14:07:15.332750,6313509,1189,512,1387,-1025,-624,-283,119,155,-73
7672,992,0,2023-03-10T14:07:15.337245,6313513,1151,490,1377,-1022,-626,-218,119,155,-73
7673,993,0,2023-03-10T14:07:15.342136,6313519,1151,490,1377,-1022,-626,-218,119,155,-73
7674,994,0,2023-03-10T14:07:15.347122,6313524,1151,490,1377,-1022,-626,-218,119,155,-73
7675,995,0,2023-03-10T14:07:15.351485,6313528,1151,490,1377,-1022,-626,-218,119,155,-73
7676,996,0,2023-03-10T14:07:15.356082,6313532,1183,502,1385,-1009,-659,-270,119,155,-73
7677,997,0,2023-03-10T14:07:15.360365,6313537,1183,502,1385,-1009,-659,-270,119,155,-73
7678,998,0,2023-03-10T14:07:15.365019,6313541,1183,502,1385,-1009,-659,-270,119,155,-73
7679,999,0,2023-03-10T14:07:15.370082,6313546,1183,502,1385,-1009,-659,-270,119,155,-73
7680,1000,0,2023-03-10T14:07:15.374966,6313551,1183,502,1385,-1009,-659,-270,119,155,-73
7681,1001,0,2023-03-10T14:07:15.379533,6313555,1191,509,1382,-1045,-619,-278,119,155,-73
7682,1002,0,2023-03-10T14:07:15.385017,6313562,1191,509,1382,-1045,-619,-278,119,155,-73
7683,1003,0,2023-03-10T14:07:15.389860,6313567,1191,509,1382,-1045,-619,-278,119,155,-73
7684,1004,0,2023-03-10T14:07:15.394278,6313571,1191,509,1382,-1045,-619,-278,119,155,-73
7685,1005,0,2023-03-10T14:07:15.399224,6313575,1172,503,1384,-1000,-644,-234,122,152,-74
7686,1006,0,2023-03-10T14:07:15.404898,6313581,1172,503,1384,-1000,-644,-234,122,152,-74
7687,1007,0,2023-03-10T14:07:15.409823,6313586,1172,503,1384,-1000,-644,-234,122,152,-74
7688,1008,0,2023-03-10T14:07:15.414444,6313591,1172,503,1384,-1000,-644,-234,122,152,-74
7689,1009,0,2023-03-10T14:07:15.419085,6313595,1195,509,1392,-1036,-628,-280,122,152,-74
7690,1010,0,2023-03-10T14:07:15.424411,6313601,1195,509,1392,-1036,-628,-280,122,152,-74
7691,1011,0,2023-03-10T14:07:15.429217,6313606,1195,509,1392,-1036,-628,-280,122,152,-74
7692,1012,0,2023-03-10T14:07:15.433797,6313610,1195,509,1392,-1036,-628,-280,122,152,-74
7693,1013,0,2023-03-10T14:07:15.438779,6313615,1162,499,1369,-1024,-626,-267,122,152,-74
7694,1014,0,2023-03-10T14:07:15.443481,6313620,1162,499,1369,-1024,-626,-267,122,152,-74
7695,1015,0,2023-03-10T14:07:15.448745,6313625,1162,499,1369,-1024,-626,-267,122,152,-74
7696,1016,0,2023-03-10T14:07:15.453288,6313629,1162,499,1369,-1024,-626,-267,122,152,-74
7697,1017,0,2023-03-10T14:07:15.457898,6313634,1176,498,1385,-1025,-630,-279,122,152,-74
7698,1018,0,2023-03-10T14:07:15.462922,6313639,1176,498,1385,-1025,-630,-279,122,152,-74
7699,1019,0,2023-03-10T14:07:15.468383,6313645,1176,498,1385,-1025,-630,-279,122,152,-74
7700,1020,0,2023-03-10T14:07:15.472904,6313650,1176,498,1385,-1025,-630,-279,122,152,-74
7701,1021,0,2023-03-10T14:07:15.477466,6313654,1181,505,1386,-1022,-650,-261,122,152,-74
7702,1022,0,2023-03-10T14:07:15.482598,6313659,1181,505,1386,-1022,-650,-261,122,152,-74
7703,1023,0,2023-03-10T14:07:15.487526,6313664,1181,505,1386,-1022,-650,-261,122,152,-74
7704,1024,0,2023-03-10T14:07:15.492234,6313668,1181,505,1386,-1022,-650,-261,122,152,-74
7705,1025,0,2023-03-10T14:07:15.497077,6313673,1191,516,1379,-1021,-643,-268,122,152,-74
7706,1026,0,2023-03-10T14:07:15.501613,6313678,1191,516,1379,-1021,-643,-268,122,152,-74
7707,1027,0,2023-03-10T14:07:15.506625,6313683,1191,516,1379,-1021,-643,-268,122,152,-74
7708,1028,0,2023-03-10T14:07:15.511306,6313688,1191,516,1379,-1021,-643,-268,122,152,-74
7709,1029,0,2023-03-10T14:07:15.516079,6313693,1191,516,1379,-1021,-643,-268,122,152,-74
7710,1030,0,2023-03-10T14:07:15.520476,6313697,1179,501,1375,-1013,-639,-241,122,160,-72
7711,1031,0,2023-03-10T14:07:15.525511,6313702,1179,501,1375,-1013,-639,-241,122,160,-72
7712,1032,0,2023-03-10T14:07:15.530566,6313707,1179,501,1375,-1013,-639,-241,122,160,-72
7713,1033,0,2023-03-10T14:07:15.535150,6313712,1179,501,1375,-1013,-639,-241,122,160,-72
7714,1034,0,2023-03-10T14:07:15.539686,6313716,1182,499,1378,-1020,-630,-269,122,160,-72
7715,1035,0,2023-03-10T14:07:15.544987,6313721,1182,499,1378,-1020,-630,-269,122,160,-72
7716,1036,0,2023-03-10T14:07:15.550049,6313726,1182,499,1378,-1020,-630,-269,122,160,-72
7717,1037,0,2023-03-10T14:07:15.554452,6313731,1182,499,1378,-1020,-630,-269,122,160,-72
7718,1038,0,2023-03-10T14:07:15.558958,6313736,1180,504,1380,-1023,-647,-261,122,160,-72
7719,1039,0,2023-03-10T14:07:15.563919,6313741,1180,504,1380,-1023,-647,-261,122,160,-72
7720,1040,0,2023-03-10T14:07:15.569047,6313745,1180,504,1380,-1023,-647,-261,122,160,-72
7721,1041,0,2023-03-10T14:07:15.573492,6313750,1180,504,1380,-1023,-647,-261,122,160,-72
7722,1042,0,2023-03-10T14:07:15.578208,6313754,1180,499,1386,-1024,-611,-270,122,160,-72
7723,1043,0,2023-03-10T14:07:15.583670,6313760,1180,499,1386,-1024,-611,-270,122,160,-72
7724,1044,0,2023-03-10T14:07:15.588829,6313765,1180,499,1386,-1024,-611,-270,122,160,-72
7725,1045,0,2023-03-10T14:07:15.593865,6313771,1180,499,1386,-1024,-611,-270,122,160,-72
7726,1046,0,2023-03-10T14:07:15.598535,6313775,1174,504,1374,-1031,-643,-260,122,160,-72
7727,1047,0,2023-03-10T14:07:15.604087,6313781,1174,504,1374,-1031,-643,-260,122,160,-72
7728,1048,0,2023-03-10T14:07:15.609207,6313786,1174,504,1374,-1031,-643,-260,122,160,-72
7729,1049,0,2023-03-10T14:07:15.614001,6313790,1174,504,1374,-1031,-643,-260,122,160,-72
7730,1050,0,2023-03-10T14:07:15.618606,6313795,1192,501,1383,-1019,-641,-260,122,160,-72
7731,1051,0,2023-03-10T14:07:15.623890,6313800,1192,501,1383,-1019,-641,-260,122,160,-72
7732,1052,0,2023-03-10T14:07:15.628526,6313805,1192,501,1383,-1019,-641,-260,122,160,-72
7733,1053,0,2023-03-10T14:07:15.632973,6313809,1192,501,1383,-1019,-641,-260,122,160,-72
7734,1054,0,2023-03-10T14:07:15.637556,6313814,1181,507,1368,-1032,-636,-267,122,160,-72
7735,1055,0,2023-03-10T14:07:15.642708,6313819,1181,507,1368,-1032,-636,-267,122,160,-72
7736,1056,0,2023-03-10T14:07:15.647095,6313824,1181,507,1368,-1032,-636,-267,122,160,-72
7737,1057,0,2023-03-10T14:07:15.652087,6313828,1181,507,1368,-1032,-636,-267,122,160,-72
7738,1058,0,2023-03-10T14:07:15.656848,6313833,1171,500,1377,-1015,-636,-219,125,153,-72
7739,1059,0,2023-03-10T14:07:15.662017,6313838,1171,500,1377,-1015,-636,-219,125,153,-69
7740,1060,0,2023-03-10T14:07:15.666375,6313843,1171,500,1377,-1015,-636,-219,125,153,-69
7741,1061,0,2023-03-10T14:07:15.670801,6313847,1171,500,1377,-1015,-636,-219,125,153,-69
7742,1062,0,2023-03-10T14:07:15.675217,6313851,1171,500,1377,-1015,-636,-219,125,153,-69
7743,1063,0,2023-03-10T14:07:15.679654,6313857,1187,507,1394,-1023,-624,-280,125,153,-69
7744,1064,0,2023-03-10T14:07:15.684858,6313862,1187,507,1394,-1023,-624,-280,125,153,-69
7745,1065,0,2023-03-10T14:07:15.690187,6313867,1187,507,1394,-1023,-624,-280,125,153,-69
7746,1066,0,2023-03-10T14:07:15.694773,6313871,1187,507,1394,-1023,-624,-280,125,153,-69
7747,1067,0,2023-03-10T14:07:15.699188,6313876,1197,507,1371,-1041,-671,-277,125,153,-69
7748,1068,0,2023-03-10T14:07:15.704772,6313881,1197,507,1371,-1041,-671,-277,125,153,-69
7749,1069,0,2023-03-10T14:07:15.709233,6313885,1197,507,1371,-1041,-671,-277,125,153,-69
7750,1070,0,2023-03-10T14:07:15.714260,6313890,1197,507,1371,-1041,-671,-277,125,153,-69
7751,1071,0,2023-03-10T14:07:15.718616,6313895,1175,499,1379,-1017,-605,-246,125,153,-69
7752,1072,0,2023-03-10T14:07:15.724001,6313901,1175,499,1379,-1017,-605,-246,125,153,-69
7753,1073,0,2023-03-10T14:07:15.728769,6313906,1175,499,1379,-1017,-605,-246,125,153,-69
7754,1074,0,2023-03-10T14:07:15.733234,6313910,1175,499,1379,-1017,-605,-246,125,153,-69
7755,1075,0,2023-03-10T14:07:15.737931,6313914,1188,511,1378,-1031,-625,-284,125,153,-69
7756,1076,0,2023-03-10T14:07:15.743228,6313919,1188,511,1378,-1031,-625,-284,125,153,-69
7757,1077,0,2023-03-10T14:07:15.748150,6313925,1188,511,1378,-1031,-625,-284,125,153,-69
7758,1078,0,2023-03-10T14:07:15.752752,6313929,1188,511,1378,-1031,-625,-284,125,153,-69
7759,1079,0,2023-03-10T14:07:15.757367,6313934,1174,499,1377,-1020,-629,-263,125,153,-69
7760,1080,0,2023-03-10T14:07:15.762413,6313938,1174,499,1377,-1020,-629,-263,125,153,-69
7761,1081,0,2023-03-10T14:07:15.767523,6313944,1174,499,1377,-1020,-629,-263,125,153,-69
7762,1082,0,2023-03-10T14:07:15.772155,6313949,1174,499,1377,-1020,-629,-263,125,153,-69
7763,1083,0,2023-03-10T14:07:15.776832,6313954,1178,500,1372,-1029,-630,-262,117,157,-61
7764,1084,0,2023-03-10T14:07:15.782092,6313958,1178,500,1372,-1029,-630,-262,117,157,-61
7765,1085,0,2023-03-10T14:07:15.787295,6313964,1178,500,1372,-1029,-630,-262,117,157,-61
7766,1086,0,2023-03-10T14:07:15.792081,6313968,1178,500,1372,-1029,-630,-262,117,157,-61
7767,1087,0,2023-03-10T14:07:15.796728,6313973,1187,501,1395,-999,-646,-228,117,157,-61
7768,1088,0,2023-03-10T14:07:15.801881,6313978,1187,501,1395,-999,-646,-228,117,157,-61
7769,1089,0,2023-03-10T14:07:15.807055,6313984,1187,501,1395,-999,-646,-228,117,157,-61
7770,1090,0,2023-03-10T14:07:15.811530,6313988,1187,501,1395,-999,-646,-228,117,157,-61
7771,1091,0,2023-03-10T14:07:15.816265,6313993,1187,501,1395,-999,-646,-228,117,157,-61
7772,1092,0,2023-03-10T14:07:15.820826,6313998,1189,511,1377,-1017,-654,-280,117,157,-61
7773,1093,0,2023-03-10T14:07:15.826833,6314003,1189,511,1377,-1017,-654,-280,117,157,-61
7774,1094,0,2023-03-10T14:07:15.831622,6314008,1189,511,1377,-1017,-654,-280,117,157,-61
7775,1095,0,2023-03-10T14:07:15.836183,6314013,1189,511,1377,-1017,-654,-280,117,157,-61
7776,1096,0,2023-03-10T14:07:15.840648,6314017,1200,508,1362,-1036,-644,-276,117,157,-61
7777,1097,0,2023-03-10T14:07:15.845384,6314021,1200,508,1362,-1036,-644,-276,117,157,-61
7778,1098,0,2023-03-10T14:07:15.850446,6314027,1200,508,1362,-1036,-644,-276,117,157,-61
7779,1099,0,2023-03-10T14:07:15.854914,6314032,1200,508,1362,-1036,-644,-276,117,157,-61
7780,1100,0,2023-03-10T14:07:15.859214,6314036,1172,495,1380,-996,-618,-233,117,157,-61
7781,1101,0,2023-03-10T14:07:15.864371,6314041,1172,495,1380,-996,-618,-233,117,157,-61
7782,1102,0,2023-03-10T14:07:15.869237,6314046,1172,495,1380,-996,-618,-233,117,157,-61
7783,1103,0,2023-03-10T14:07:15.873707,6314050,1172,495,1380,-996,-618,-233,117,157,-61
7784,1104,0,2023-03-10T14:07:15.878301,6314054,1184,493,1372,-1037,-620,-288,117,157,-61
7785,1105,0,2023-03-10T14:07:15.883772,6314060,1184,493,1372,-1037,-620,-288,117,157,-61
7786,1106,0,2023-03-10T14:07:15.888939,6314065,1184,493,1372,-1037,-620,-288,117,157,-61
7787,1107,0,2023-03-10T14:07:15.893503,6314070,1184,493,1372,-1037,-620,-288,117,157,-61
7788,1108,0,2023-03-10T14:07:15.897874,6314075,1193,509,1375,-1022,-666,-286,117,157,-61
7789,1109,0,2023-03-10T14:07:15.902915,6314080,1193,509,1375,-1022,-666,-286,117,157,-61
7790,1110,0,2023-03-10T14:07:15.908172,6314085,1193,509,1375,-1022,-666,-286,117,157,-61
7791,1111,0,2023-03-10T14:07:15.912787,6314089,1193,509,1375,-1022,-666,-286,117,157,-61
7792,1112,0,2023-03-10T14:07:15.917115,6314094,1178,504,1385,-1026,-614,-262,130,160,-70
7793,1113,0,2023-03-10T14:07:15.921886,6314098,1178,504,1385,-1026,-614,-262,130,160,-70
7794,1114,0,2023-03-10T14:07:15.926911,6314103,1178,504,1385,-1026,-614,-262,130,160,-70
7795,1115,0,2023-03-10T14:07:15.931122,6314107,1178,504,1385,-1026,-614,-262,130,160,-70
7796,1116,0,2023-03-10T14:07:15.935561,6314112,1178,504,1385,-1026,-614,-262,130,160,-70
7797,1117,0,2023-03-10T14:07:15.939897,6314117,1190,503,1375,-1018,-645,-288,130,160,-70
7798,1118,0,2023-03-10T14:07:15.945010,6314122,1190,503,1375,-1018,-645,-288,130,160,-70
7799,1119,0,2023-03-10T14:07:15.950013,6314127,1190,503,1375,-1018,-645,-288,130,160,-70
7800,1120,0,2023-03-10T14:07:15.954584,6314131,1190,503,1375,-1018,-645,-288,130,160,-70
7801,1121,0,2023-03-10T14:07:15.959146,6314136,1186,497,1374,-1023,-628,-266,130,160,-70
7802,1122,0,2023-03-10T14:07:15.964730,6314141,1186,497,1374,-1023,-628,-266,130,160,-70
7803,1123,0,2023-03-10T14:07:15.969791,6314146,1186,497,1374,-1023,-628,-266,130,160,-70
7804,1124,0,2023-03-10T14:07:15.974106,6314150,1186,497,1374,-1023,-628,-266,130,160,-70
7805,1125,0,2023-03-10T14:07:15.978575,6314156,1183,501,1366,-1022,-614,-256,130,160,-70
7806,1126,0,2023-03-10T14:07:15.983609,6314160,1183,501,1366,-1022,-614,-256,130,160,-70
7807,1127,0,2023-03-10T14:07:15.988702,6314165,1183,501,1366,-1022,-614,-256,130,160,-70
7808,1128,0,2023-03-10T14:07:15.993388,6314170,1183,501,1366,-1022,-614,-256,130,160,-70
7809,1129,0,2023-03-10T14:07:15.997766,6314174,1184,500,1381,-991,-665,-222,130,160,-70
7810,1130,0,2023-03-10T14:07:16.002884,6314179,1184,500,1381,-991,-665,-222,130,160,-70
7811,1131,0,2023-03-10T14:07:16.007738,6314184,1184,500,1381,-991,-665,-222,130,160,-70
7812,1132,0,2023-03-10T14:07:16.012377,6314188,1184,500,1381,-991,-665,-222,130,160,-70
7813,1133,0,2023-03-10T14:07:16.016984,6314193,1189,502,1378,-1030,-607,-283,130,160,-70
7814,1134,0,2023-03-10T14:07:16.022173,6314199,1189,502,1378,-1030,-607,-283,130,160,-70
7815,1135,0,2023-03-10T14:07:16.026931,6314204,1189,502,1378,-1030,-607,-283,130,160,-70
7816,1136,0,2023-03-10T14:07:16.031452,6314208,1189,502,1378,-1030,-607,-283,130,160,-70
7817,1137,0,2023-03-10T14:07:16.036036,6314212,1189,502,1378,-1030,-607,-283,130,160,-70
7818,1138,0,2023-03-10T14:07:16.040747,6314217,1193,502,1368,-1044,-654,-278,129,147,-71
7819,1139,0,2023-03-10T14:07:16.045571,6314222,1193,502,1368,-1044,-654,-278,129,147,-71
7820,1140,0,2023-03-10T14:07:16.050644,6314227,1193,502,1368,-1044,-654,-278,129,147,-71
7821,1141,0,2023-03-10T14:07:16.055147,6314231,1193,502,1368,-1044,-654,-278,129,147,-71
7822,1142,0,2023-03-10T14:07:16.059959,6314236,1196,506,1381,-1013,-631,-270,129,147,-71
7823,1143,0,2023-03-10T14:07:16.065265,6314242,1196,506,1381,-1013,-631,-270,129,147,-71
7824,1144,0,2023-03-10T14:07:16.069817,6314247,1196,506,1381,-1013,-631,-270,129,147,-71
7825,1145,0,2023-03-10T14:07:16.074289,6314251,1196,506,1381,-1013,-631,-270,129,147,-71
7826,1146,0,2023-03-10T14:07:16.078889,6314255,1177,503,1364,-1023,-619,-265,129,147,-71
7827,1147,0,2023-03-10T14:07:16.084675,6314261,1177,503,1364,-1023,-619,-265,129,147,-71
7828,1148,0,2023-03-10T14:07:16.089920,6314266,1177,503,1364,-1023,-619,-265,129,147,-71
7829,1149,0,2023-03-10T14:07:16.094559,6314271,1177,503,1364,-1023,-619,-265,129,147,-71
7830,1150,0,2023-03-10T14:07:16.099019,6314275,1176,497,1379,-1013,-621,-260,129,147,-71
7831,1151,0,2023-03-10T14:07:16.103689,6314280,1176,497,1379,-1013,-621,-260,129,147,-71
7832,1152,0,2023-03-10T14:07:16.108720,6314286,1176,497,1379,-1013,-621,-260,129,147,-71
7833,1153,0,2023-03-10T14:07:16.113209,6314290,1176,497,1379,-1013,-621,-260,129,147,-71
7834,1154,0,2023-03-10T14:07:16.117532,6314294,1195,510,1386,-1028,-648,-284,129,147,-71
7835,1155,0,2023-03-10T14:07:16.122407,6314299,1195,510,1386,-1028,-648,-284,129,147,-71
7836,1156,0,2023-03-10T14:07:16.126989,6314303,1195,510,1386,-1028,-648,-284,129,147,-71
7837,1157,0,2023-03-10T14:07:16.131116,6314308,1195,510,1386,-1028,-648,-284,129,147,-71
7838,1158,0,2023-03-10T14:07:16.135799,6314312,1195,510,1386,-1028,-648,-284,129,147,-71
7839,1159,0,2023-03-10T14:07:16.140428,6314317,1195,510,1386,-1028,-648,-284,129,147,-71
7840,1160,0,2023-03-10T14:07:16.144998,6314321,1195,510,1386,-1028,-648,-284,129,147,-71
7841,1161,0,2023-03-10T14:07:16.150180,6314327,1195,510,1386,-1028,-648,-284,129,147,-71
7842,1162,0,2023-03-10T14:07:16.154583,6314331,1195,510,1386,-1028,-648,-284,129,147,-71
7843,1163,0,2023-03-10T14:07:16.159220,6314336,1193,511,1373,-1019,-632,-266,119,157,-63
7844,1164,0,2023-03-10T14:07:16.164609,6314341,1193,511,1373,-1019,-632,-266,119,157,-63
7845,1165,0,2023-03-10T14:07:16.169310,6314346,1193,511,1373,-1019,-632,-266,119,157,-63
7846,1166,0,2023-03-10T14:07:16.173722,6314350,1193,511,1373,-1019,-632,-266,119,157,-63
7847,1167,0,2023-03-10T14:07:16.178153,6314355,1191,501,1366,-1027,-624,-252,119,157,-63
7848,1168,0,2023-03-10T14:07:16.183898,6314359,1191,501,1366,-1027,-624,-252,119,157,-63
7849,1169,0,2023-03-10T14:07:16.188767,6314365,1191,501,1366,-1027,-624,-252,119,157,-63
7850,1170,0,2023-03-10T14:07:16.193167,6314370,1191,501,1366,-1027,-624,-252,119,157,-63
7851,1171,0,2023-03-10T14:07:16.197725,6314375,1195,501,1379,-1019,-615,-266,119,157,-63
7852,1172,0,2023-03-10T14:07:16.203146,6314380,1195,501,1379,-1019,-615,-266,119,157,-63
7853,1173,0,2023-03-10T14:07:16.208135,6314385,1195,501,1379,-1019,-615,-266,119,157,-63
7854,1174,0,2023-03-10T14:07:16.212637,6314389,1195,501,1379,-1019,-615,-266,119,157,-63
7855,1175,0,2023-03-10T14:07:16.217196,6314394,1182,500,1376,-1026,-633,-252,119,157,-63
7856,1176,0,2023-03-10T14:07:16.222185,6314398,1182,500,1376,-1026,-633,-252,119,157,-63
7857,1177,0,2023-03-10T14:07:16.227072,6314403,1182,500,1376,-1026,-633,-252,119,157,-63
7858,1178,0,2023-03-10T14:07:16.231518,6314408,1182,500,1376,-1026,-633,-252,119,157,-63
7859,1179,0,2023-03-10T14:07:16.236009,6314413,1182,500,1376,-1026,-633,-252,119,157,-63
7860,1180,0,2023-03-10T14:07:16.240540,6314417,1203,514,1385,-1017,-635,-271,119,157,-63
7861,1181,0,2023-03-10T14:07:16.245868,6314422,1203,514,1385,-1017,-635,-271,119,157,-63
7862,1182,0,2023-03-10T14:07:16.250824,6314427,1203,514,1385,-1017,-635,-271,119,157,-63
7863,1183,0,2023-03-10T14:07:16.255215,6314432,1203,514,1385,-1017,-635,-271,119,157,-63
7864,1184,0,2023-03-10T14:07:16.259903,6314436,1190,499,1370,-1029,-634,-256,119,157,-63
7865,1185,0,2023-03-10T14:07:16.265312,6314441,1190,499,1370,-1029,-634,-256,119,157,-63
7866,1186,0,2023-03-10T14:07:16.270355,6314446,1190,499,1370,-1029,-634,-256,119,157,-63
7867,1187,0,2023-03-10T14:07:16.274809,6314451,1190,499,1370,-1029,-634,-256,119,157,-63
7868,1188,0,2023-03-10T14:07:16.279175,6314456,1188,495,1360,-1022,-633,-261,119,157,-63
7869,1189,0,2023-03-10T14:07:16.284335,6314461,1188,495,1360,-1022,-633,-261,119,157,-63
7870,1190,0,2023-03-10T14:07:16.289599,6314466,1188,495,1360,-1022,-633,-261,119,157,-63
7871,1191,0,2023-03-10T14:07:16.294151,6314471,1188,495,1360,-1022,-633,-261,119,157,-63
7872,1192,0,2023-03-10T14:07:16.298602,6314475,1192,500,1377,-1014,-643,-248,123,159,-67
7873,1193,0,2023-03-10T14:07:16.303535,6314480,1192,500,1377,-1014,-643,-248,123,159,-67
7874,1194,0,2023-03-10T14:07:16.308320,6314484,1192,500,1377,-1014,-643,-248,123,159,-67
7875,1195,0,2023-03-10T14:07:16.313074,6314489,1192,500,1377,-1014,-643,-248,123,159,-67
7876,1196,0,2023-03-10T14:07:16.317669,6314494,1197,502,1375,-1025,-611,-265,123,159,-67
7877,1197,0,2023-03-10T14:07:16.322753,6314500,1197,502,1375,-1025,-611,-265,123,159,-67
7878,1198,0,2023-03-10T14:07:16.327608,6314504,1197,502,1375,-1025,-611,-265,123,159,-67
7879,1199,0,2023-03-10T14:07:16.332069,6314509,1197,502,1375,-1025,-611,-265,123,159,-67
7880,1200,0,2023-03-10T14:07:16.336644,6314513,1197,502,1375,-1025,-611,-265,123,159,-67
7881,1201,0,2023-03-10T14:07:16.341250,6314518,1186,501,1368,-1023,-638,-255,123,159,-67
7882,1202,0,2023-03-10T14:07:16.346070,6314522,1186,501,1368,-1023,-638,-255,123,159,-67
7883,1203,0,2023-03-10T14:07:16.350698,6314527,1186,501,1368,-1023,-638,-255,123,159,-67
7884,1204,0,2023-03-10T14:07:16.355053,6314531,1186,501,1368,-1023,-638,-255,123,159,-67
7885,1205,0,2023-03-10T14:07:16.359680,6314536,1213,510,1375,-1019,-634,-289,123,159,-67
7886,1206,0,2023-03-10T14:07:16.364527,6314542,1213,510,1375,-1019,-634,-289,123,159,-67
7887,1207,0,2023-03-10T14:07:16.369493,6314546,1213,510,1375,-1019,-634,-289,123,159,-67
7888,1208,0,2023-03-10T14:07:16.374043,6314551,1213,510,1375,-1019,-634,-289,123,159,-67
7889,1209,0,2023-03-10T14:07:16.378569,6314555,1185,496,1357,-1022,-636,-241,123,159,-67
7890,1210,0,2023-03-10T14:07:16.383864,6314560,1185,496,1357,-1022,-636,-241,123,159,-67
7891,1211,0,2023-03-10T14:07:16.388617,6314565,1185,496,1357,-1022,-636,-241,123,159,-67
7892,1212,0,2023-03-10T14:07:16.393275,6314570,1185,496,1357,-1022,-636,-241,123,159,-67
7893,1213,0,2023-03-10T14:07:16.397659,6314574,1194,508,1363,-1027,-637,-272,123,159,-67
7894,1214,0,2023-03-10T14:07:16.402774,6314579,1194,508,1363,-1027,-637,-272,123,159,-67
7895,1215,0,2023-03-10T14:07:16.407680,6314585,1194,508,1363,-1027,-637,-272,123,159,-67
7896,1216,0,2023-03-10T14:07:16.412060,6314589,1194,508,1363,-1027,-637,-272,123,159,-67
7897,1217,0,2023-03-10T14:07:16.416673,6314593,1194,508,1363,-1027,-637,-272,123,159,-67
7898,1218,0,2023-03-10T14:07:16.421491,6314598,1202,505,1378,-1024,-628,-261,129,157,-59
7899,1219,0,2023-03-10T14:07:16.427109,6314603,1202,505,1378,-1024,-628,-261,129,157,-59
7900,1220,0,2023-03-10T14:07:16.431531,6314608,1202,505,1378,-1024,-628,-261,129,157,-59
7901,1221,0,2023-03-10T14:07:16.436285,6314612,1202,505,1378,-1024,-628,-261,129,157,-59
7902,1222,0,2023-03-10T14:07:16.440966,6314617,1182,503,1365,-1022,-645,-260,129,157,-59
7903,1223,0,2023-03-10T14:07:16.445729,6314622,1182,503,1365,-1022,-645,-260,129,157,-59
7904,1224,0,2023-03-10T14:07:16.450427,6314627,1182,503,1365,-1022,-645,-260,129,157,-59
7905,1225,0,2023-03-10T14:07:16.454911,6314632,1182,503,1365,-1022,-645,-260,129,157,-59
7906,1226,0,2023-03-10T14:07:16.459447,6314636,1205,501,1377,-1024,-610,-262,129,157,-59
7907,1227,0,2023-03-10T14:07:16.464636,6314641,1205,501,1377,-1024,-610,-262,129,157,-59
7908,1228,0,2023-03-10T14:07:16.469226,6314646,1205,501,1377,-1024,-610,-262,129,157,-59
7909,1229,0,2023-03-10T14:07:16.474011,6314650,1205,501,1377,-1024,-610,-262,129,157,-59
7910,1230,0,2023-03-10T14:07:16.478657,6314655,1199,512,1369,-1014,-637,-274,129,157,-59
7911,1231,0,2023-03-10T14:07:16.483736,6314660,1199,512,1369,-1014,-637,-274,129,157,-59
7912,1232,0,2023-03-10T14:07:16.489007,6314665,1199,512,1369,-1014,-637,-274,129,157,-59
7913,1233,0,2023-03-10T14:07:16.493519,6314670,1199,512,1369,-1014,-637,-274,129,157,-59
7914,1234,0,2023-03-10T14:07:16.498258,6314675,1186,498,1358,-1034,-637,-243,129,157,-59
7915,1235,0,2023-03-10T14:07:16.503434,6314680,1186,498,1358,-1034,-637,-243,129,157,-59
7916,1236,0,2023-03-10T14:07:16.508748,6314685,1186,498,1358,-1034,-637,-243,129,157,-59
7917,1237,0,2023-03-10T14:07:16.513069,6314690,1186,498,1358,-1034,-637,-243,129,157,-59
7918,1238,0,2023-03-10T14:07:16.517637,6314694,1192,499,1380,-1021,-609,-268,129,157,-59
7919,1239,0,2023-03-10T14:07:16.522620,6314699,1192,499,1380,-1021,-609,-268,129,157,-59
7920,1240,0,2023-03-10T14:07:16.527397,6314703,1192,499,1380,-1021,-609,-268,129,157,-59
7921,1241,0,2023-03-10T14:07:16.532498,6314708,1192,499,1380,-1021,-609,-268,129,157,-59
7922,1242,0,2023-03-10T14:07:16.536820,6314714,1192,499,1380,-1021,-609,-268,129,157,-59
7923,1243,0,2023-03-10T14:07:16.541151,6314718,1195,498,1369,-1027,-669,-252,129,157,-59
7924,1244,0,2023-03-10T14:07:16.545929,6314723,1195,498,1369,-1027,-669,-252,129,157,-59
7925,1245,0,2023-03-10T14:07:16.550323,6314727,1195,498,1369,-1027,-669,-252,129,157,-59
7926,1246,0,2023-03-10T14:07:16.554731,6314731,1195,498,1369,-1027,-669,-252,129,157,-59
7927,1247,0,2023-03-10T14:07:16.559374,6314736,1195,506,1375,-1027,-607,-272,118,156,-72
7928,1248,0,2023-03-10T14:07:16.564831,6314741,1195,506,1375,-1027,-607,-272,118,156,-72
7929,1249,0,2023-03-10T14:07:16.569374,6314745,1195,506,1375,-1027,-607,-272,118,156,-72
7930,1250,0,2023-03-10T14:07:16.574094,6314750,1195,506,1375,-1027,-607,-272,118,156,-72
7931,1251,0,2023-03-10T14:07:16.578452,6314755,1197,500,1368,-1024,-658,-260,118,156,-72
7932,1252,0,2023-03-10T14:07:16.583542,6314760,1197,500,1368,-1024,-658,-260,118,156,-72
7933,1253,0,2023-03-10T14:07:16.588137,6314765,1197,500,1368,-1024,-658,-260,118,156,-72
7934,1254,0,2023-03-10T14:07:16.592737,6314769,1197,500,1368,-1024,-658,-260,118,156,-72
7935,1255,0,2023-03-10T14:07:16.597280,6314774,1197,500,1368,-1024,-658,-260,118,156,-72
7936,1256,0,2023-03-10T14:07:16.601682,6314778,1205,505,1373,-1016,-623,-265,118,156,-72
7937,1257,0,2023-03-10T14:07:16.607479,6314784,1205,505,1373,-1016,-623,-265,118,156,-72
7938,1258,0,2023-03-10T14:07:16.611733,6314788,1205,505,1373,-1016,-623,-265,118,156,-72
7939,1259,0,2023-03-10T14:07:16.616528,6314792,1205,505,1373,-1016,-623,-265,118,156,-72
7940,1260,0,2023-03-10T14:07:16.621089,6314798,1180,491,1360,-1029,-618,-242,118,156,-72
7941,1261,0,2023-03-10T14:07:16.626305,6314803,1180,491,1360,-1029,-618,-242,118,156,-72
7942,1262,0,2023-03-10T14:07:16.631139,6314808,1180,491,1360,-1029,-618,-242,118,156,-72
7943,1263,0,2023-03-10T14:07:16.635677,6314812,1180,491,1360,-1029,-618,-242,118,156,-72
7944,1264,0,2023-03-10T14:07:16.640506,6314817,1202,513,1383,-1021,-645,-275,118,156,-72
7945,1265,0,2023-03-10T14:07:16.645374,6314822,1202,513,1383,-1021,-645,-275,118,156,-72
7946,1266,0,2023-03-10T14:07:16.649966,6314826,1202,513,1383,-1021,-645,-275,118,156,-72
7947,1267,0,2023-03-10T14:07:16.654306,6314830,1202,513,1383,-1021,-645,-275,118,156,-72
7948,1268,0,2023-03-10T14:07:16.658723,6314835,1189,500,1371,-1041,-626,-241,118,156,-72
7949,1269,0,2023-03-10T14:07:16.664092,6314841,1189,500,1371,-1041,-626,-241,118,156,-72
7950,1270,0,2023-03-10T14:07:16.669239,6314846,1189,500,1371,-1041,-626,-241,118,156,-72
7951,1271,0,2023-03-10T14:07:16.673774,6314851,1189,500,1371,-1041,-626,-241,118,156,-72
7952,1272,0,2023-03-10T14:07:16.678149,6314855,1203,506,1364,-1008,-650,-280,124,152,-74
7953,1273,0,2023-03-10T14:07:16.683132,6314859,1203,506,1364,-1008,-650,-280,124,152,-74
7954,1274,0,2023-03-10T14:07:16.688138,6314865,1203,506,1364,-1008,-650,-280,124,152,-74
7955,1275,0,2023-03-10T14:07:16.692574,6314869,1203,506,1364,-1008,-650,-280,124,152,-74
7956,1276,0,2023-03-10T14:07:16.697087,6314873,1203,506,1364,-1008,-650,-280,124,152,-74
7957,1277,0,2023-03-10T14:07:16.701624,6314878,1201,495,1378,-1024,-636,-249,124,152,-74
7958,1278,0,2023-03-10T14:07:16.706716,6314884,1201,495,1378,-1024,-636,-249,124,152,-74
7959,1279,0,2023-03-10T14:07:16.711362,6314888,1201,495,1378,-1024,-636,-249,124,152,-74
7960,1280,0,2023-03-10T14:07:16.715807,6314893,1201,495,1378,-1024,-636,-249,124,152,-74
7961,1281,0,2023-03-10T14:07:16.720501,6314897,1187,502,1370,-1022,-621,-264,124,152,-74
7962,1282,0,2023-03-10T14:07:16.725437,6314902,1187,502,1370,-1022,-621,-264,124,152,-74
7963,1283,0,2023-03-10T14:07:16.730550,6314907,1187,502,1370,-1022,-621,-264,124,152,-74
7964,1284,0,2023-03-10T14:07:16.735142,6314911,1187,502,1370,-1022,-621,-264,124,152,-74
7965,1285,0,2023-03-10T14:07:16.739638,6314916,1198,502,1371,-1024,-659,-248,124,152,-74
7966,1286,0,2023-03-10T14:07:16.745233,6314921,1198,502,1371,-1024,-659,-248,124,152,-74
7967,1287,0,2023-03-10T14:07:16.750571,6314927,1198,502,1371,-1024,-659,-248,124,152,-74
7968,1288,0,2023-03-10T14:07:16.754946,6314932,1198,502,1371,-1024,-659,-248,124,152,-74
7969,1289,0,2023-03-10T14:07:16.759333,6314936,1205,510,1368,-1023,-611,-274,124,152,-74
7970,1290,0,2023-03-10T14:07:16.764318,6314941,1205,510,1368,-1023,-611,-274,124,152,-74
7971,1291,0,2023-03-10T14:07:16.769213,6314946,1205,510,1368,-1023,-611,-274,124,152,-74
7972,1292,0,2023-03-10T14:07:16.773677,6314950,1205,510,1368,-1023,-611,-274,124,152,-74
7973,1293,0,2023-03-10T14:07:16.778078,6314954,1197,500,1358,-1040,-652,-257,124,152,-74
7974,1294,0,2023-03-10T14:07:16.783141,6314959,1197,500,1358,-1040,-652,-257,124,152,-74
7975,1295,0,2023-03-10T14:07:16.788056,6314964,1197,500,1358,-1040,-652,-257,124,152,-74
7976,1296,0,2023-03-10T14:07:16.792501,6314969,1197,500,1358,-1040,-652,-257,124,152,-74
7977,1297,0,2023-03-10T14:07:16.796939,6314974,1197,500,1358,-1040,-652,-257,124,152,-74
7978,1298,0,2023-03-10T14:07:16.801381,6314978,1211,514,1376,-1015,-627,-278,118,148,-74
7979,1299,0,2023-03-10T14:07:16.805788,6314982,1211,514,1376,-1015,-627,-278,118,148,-74
7980,1300,0,2023-03-10T14:07:16.810398,6314987,1211,514,1376,-1015,-627,-278,118,148,-74
7981,1301,0,2023-03-10T14:07:16.814781,6314991,1211,514,1376,-1015,-627,-278,118,148,-74
7982,1302,0,2023-03-10T14:07:16.819147,6314995,1181,495,1362,-1034,-638,-239,118,148,-74
7983,1303,0,2023-03-10T14:07:16.824191,6315000,1181,495,1362,-1034,-638,-239,118,148,-74
7984,1304,0,2023-03-10T14:07:16.829332,6315005,1181,495,1362,-1034,-638,-239,118,148,-74
7985,1305,0,2023-03-10T14:07:16.833667,6315011,1181,495,1362,-1034,-638,-239,118,148,-74
7986,1306,0,2023-03-10T14:07:16.838134,6315015,1199,498,1379,-1009,-625,-274,118,148,-74
7987,1307,0,2023-03-10T14:07:16.843149,6315020,1199,498,1379,-1009,-625,-274,118,148,-74
7988,1308,0,2023-03-10T14:07:16.848139,6315025,1199,498,1379,-1009,-625,-274,118,148,-74
7989,1309,0,2023-03-10T14:07:16.852336,6315029,1199,498,1379,-1009,-625,-274,118,148,-74
7990,1310,0,2023-03-10T14:07:16.856725,6315033,1199,498,1379,-1009,-625,-274,118,148,-74
7991,1311,0,2023-03-10T14:07:16.861198,6315037,1202,500,1376,-1024,-647,-245,118,148,-74
7992,1312,0,2023-03-10T14:07:16.866704,6315043,1202,500,1376,-1024,-647,-245,118,148,-74
7993,1313,0,2023-03-10T14:07:16.871221,6315047,1202,500,1376,-1024,-647,-245,118,148,-74
7994,1314,0,2023-03-10T14:07:16.875936,6315053,1202,500,1376,-1024,-647,-245,118,148,-74
7995,1315,0,2023-03-10T14:07:16.880243,6315057,1211,512,1379,-1023,-641,-280,118,148,-74
7996,1316,0,2023-03-10T14:07:16.885399,6315062,1211,512,1379,-1023,-641,-280,118,148,-74
7997,1317,0,2023-03-10T14:07:16.890244,6315067,1211,512,1379,-1023,-641,-280,118,148,-74
7998,1318,0,2023-03-10T14:07:16.894731,6315071,1211,512,1379,-1023,-641,-280,118,148,-74
7999,1319,0,2023-03-10T14:07:16.899255,6315076,1193,493,1356,-1033,-631,-243,118,148,-74
8000,1320,0,2023-03-10T14:07:16.904019,6315081,1193,493,1356,-1033,-631,-243,118,148,-74
8001,1321,0,2023-03-10T14:07:16.908840,6315085,1193,493,1356,-1033,-631,-243,118,148,-74
8002,1322,0,2023-03-10T14:07:16.913373,6315089,1193,493,1356,-1033,-631,-243,118,148,-74
8003,1323,0,2023-03-10T14:07:16.917956,6315095,1193,493,1356,-1033,-631,-243,118,148,-74
8004,1324,0,2023-03-10T14:07:16.922482,6315099,1203,502,1373,-1013,-625,-278,118,148,-74
8005,1325,0,2023-03-10T14:07:16.927882,6315105,1203,502,1373,-1013,-625,-278,118,148,-74
8006,1326,0,2023-03-10T14:07:16.932230,6315109,1203,502,1373,-1013,-625,-278,118,148,-74
8007,1327,0,2023-03-10T14:07:16.936853,6315113,1203,502,1373,-1013,-625,-278,118,148,-74
8008,1328,0,2023-03-10T14:07:16.941442,6315118,1196,493,1361,-1024,-646,-259,121,147,-65
8009,1329,0,2023-03-10T14:07:16.947448,6315124,1196,493,1361,-1024,-646,-259,121,147,-65
8010,1330,0,2023-03-10T14:07:16.952429,6315129,1196,493,1361,-1024,-646,-259,121,147,-65
8011,1331,0,2023-03-10T14:07:16.957095,6315133,1196,493,1361,-1024,-646,-259,121,147,-65
8012,1332,0,2023-03-10T14:07:16.961488,6315138,1202,504,1375,-1020,-615,-263,121,147,-65
8013,1333,0,2023-03-10T14:07:16.966733,6315144,1202,504,1375,-1020,-615,-263,121,147,-65
8014,1334,0,2023-03-10T14:07:16.971576,6315148,1202,504,1375,-1020,-615,-263,121,147,-65
8015,1335,0,2023-03-10T14:07:16.975984,6315153,1202,504,1375,-1020,-615,-263,121,147,-65
8016,1336,0,2023-03-10T14:07:16.980476,6315157,1197,498,1369,-1027,-649,-246,121,147,-65
8017,1337,0,2023-03-10T14:07:16.985698,6315162,1197,498,1369,-1027,-649,-246,121,147,-65
8018,1338,0,2023-03-10T14:07:16.990645,6315167,1197,498,1369,-1027,-649,-246,121,147,-65
8019,1339,0,2023-03-10T14:07:16.995363,6315171,1197,498,1369,-1027,-649,-246,121,147,-65
8020,1340,0,2023-03-10T14:07:16.999821,6315176,1217,508,1367,-1012,-625,-275,121,147,-65
8021,1341,0,2023-03-10T14:07:17.004915,6315182,1217,508,1367,-1012,-625,-275,121,147,-65
8022,1342,0,2023-03-10T14:07:17.009835,6315187,1217,508,1367,-1012,-625,-275,121,147,-65
8023,1343,0,2023-03-10T14:07:17.014387,6315191,1217,508,1367,-1012,-625,-275,121,147,-65
8024,1344,0,2023-03-10T14:07:17.019201,6315196,1188,491,1353,-1023,-644,-239,121,147,-65
8025,1345,0,2023-03-10T14:07:17.024133,6315201,1188,491,1353,-1023,-644,-239,121,147,-65
8026,1346,0,2023-03-10T14:07:17.029191,6315206,1188,491,1353,-1023,-644,-239,121,147,-65
8027,1347,0,2023-03-10T14:07:17.033512,6315210,1188,491,1353,-1023,-644,-239,121,147,-65
8028,1348,0,2023-03-10T14:07:17.038039,6315214,1188,491,1353,-1023,-644,-239,121,147,-65
8029,1349,0,2023-03-10T14:07:17.042388,6315218,1209,506,1366,-1014,-633,-274,121,147,-65
8030,1350,0,2023-03-10T14:07:17.047940,6315225,1209,506,1366,-1014,-633,-274,121,147,-65
8031,1351,0,2023-03-10T14:07:17.053026,6315230,1209,506,1366,-1014,-633,-274,121,147,-65
8032,1352,0,2023-03-10T14:07:17.057483,6315234,1209,506,1366,-1014,-633,-274,121,147,-65
8033,1353,0,2023-03-10T14:07:17.062022,6315239,1205,498,1372,-1021,-623,-255,122,154,-72
8034,1354,0,2023-03-10T14:07:17.067732,6315244,1205,498,1372,-1021,-623,-255,122,154,-72
8035,1355,0,2023-03-10T14:07:17.072236,6315249,1205,498,1372,-1021,-623,-255,122,154,-72
8036,1356,0,2023-03-10T14:07:17.076966,6315253,1205,498,1372,-1021,-623,-255,122,154,-72
8037,1357,0,2023-03-10T14:07:17.081469,6315258,1198,505,1363,-1019,-636,-264,122,154,-72
8038,1358,0,2023-03-10T14:07:17.087339,6315264,1198,505,1363,-1019,-636,-264,122,154,-72
8039,1359,0,2023-03-10T14:07:17.091797,6315269,1198,505,1363,-1019,-636,-264,122,154,-72
8040,1360,0,2023-03-10T14:07:17.096592,6315273,1198,505,1363,-1019,-636,-264,122,154,-72
8041,1361,0,2023-03-10T14:07:17.100828,6315278,1210,501,1373,-1021,-631,-252,122,154,-72
8042,1362,0,2023-03-10T14:07:17.105690,6315282,1210,501,1373,-1021,-631,-252,122,154,-72
8043,1363,0,2023-03-10T14:07:17.110668,6315287,1210,501,1373,-1021,-631,-252,122,154,-72
8044,1364,0,2023-03-10T14:07:17.115245,6315291,1210,501,1373,-1021,-631,-252,122,154,-72
8045,1365,0,2023-03-10T14:07:17.119894,6315296,1204,510,1363,-1010,-638,-266,122,154,-72
8046,1366,0,2023-03-10T14:07:17.125040,6315301,1204,510,1363,-1010,-638,-266,122,154,-72
8047,1367,0,2023-03-10T14:07:17.130024,6315307,1204,510,1363,-1010,-638,-266,122,154,-72
8048,1368,0,2023-03-10T14:07:17.134483,6315312,1204,510,1363,-1010,-638,-266,122,154,-72
8049,1369,0,2023-03-10T14:07:17.138975,6315316,1198,499,1348,-1034,-639,-242,122,154,-72
8050,1370,0,2023-03-10T14:07:17.144447,6315321,1198,499,1348,-1034,-639,-242,122,154,-72
8051,1371,0,2023-03-10T14:07:17.149469,6315326,1198,499,1348,-1034,-639,-242,122,154,-72
8052,1372,0,2023-03-10T14:07:17.154142,6315331,1198,499,1348,-1034,-639,-242,122,154,-72
8053,1373,0,2023-03-10T14:07:17.158442,6315335,1213,507,1377,-1019,-616,-278,122,154,-72
8054,1374,0,2023-03-10T14:07:17.163259,6315339,1213,507,1377,-1019,-616,-278,122,154,-72
8055,1375,0,2023-03-10T14:07:17.168720,6315345,1213,507,1377,-1019,-616,-278,122,154,-72
8056,1376,0,2023-03-10T14:07:17.173309,6315350,1213,507,1377,-1019,-616,-278,122,154,-72
8057,1377,0,2023-03-10T14:07:17.177681,6315355,1213,507,1377,-1019,-616,-278,122,154,-72
8058,1378,0,2023-03-10T14:07:17.182026,6315359,1190,493,1354,-1034,-659,-240,122,154,-72
8059,1379,0,2023-03-10T14:07:17.187422,6315364,1190,493,1354,-1034,-659,-240,122,154,-72
8060,1380,0,2023-03-10T14:07:17.192085,6315369,1190,493,1354,-1034,-659,-240,122,154,-72
8061,1381,0,2023-03-10T14:07:17.196612,6315373,1190,493,1354,-1034,-659,-240,122,154,-72
8062,1382,0,2023-03-10T14:07:17.201136,6315377,1217,511,1376,-1026,-624,-280,128,158,-72
8063,1383,0,2023-03-10T14:07:17.206734,6315383,1217,511,1376,-1026,-624,-280,128,158,-72
8064,1384,0,2023-03-10T14:07:17.211568,6315388,1217,511,1376,-1026,-624,-280,128,158,-72
8065,1385,0,2023-03-10T14:07:17.216044,6315393,1217,511,1376,-1026,-624,-280,128,158,-72
8066,1386,0,2023-03-10T14:07:17.220548,6315397,1204,499,1363,-1024,-645,-245,128,158,-72
8067,1387,0,2023-03-10T14:07:17.225674,6315402,1204,499,1363,-1024,-645,-245,128,158,-72
8068,1388,0,2023-03-10T14:07:17.230321,6315407,1204,499,1363,-1024,-645,-245,128,158,-72
8069,1389,0,2023-03-10T14:07:17.235080,6315412,1204,499,1363,-1024,-645,-245,128,158,-72
8070,1390,0,2023-03-10T14:07:17.239587,6315416,1205,506,1359,-1017,-620,-261,128,158,-72
8071,1391,0,2023-03-10T14:07:17.244401,6315421,1205,506,1359,-1017,-620,-261,128,158,-72
8072,1392,0,2023-03-10T14:07:17.249066,6315425,1205,506,1359,-1017,-620,-261,128,158,-72
8073,1393,0,2023-03-10T14:07:17.254010,6315430,1205,506,1359,-1017,-620,-261,128,158,-72
8074,1394,0,2023-03-10T14:07:17.258486,6315436,1211,498,1372,-1013,-623,-253,128,158,-72
8075,1395,0,2023-03-10T14:07:17.263428,6315440,1211,498,1372,-1013,-623,-253,128,158,-72
8076,1396,0,2023-03-10T14:07:17.268314,6315445,1211,498,1372,-1013,-623,-253,128,158,-72
8077,1397,0,2023-03-10T14:07:17.272751,6315449,1211,498,1372,-1013,-623,-253,128,158,-72
8078,1398,0,2023-03-10T14:07:17.277170,6315454,1211,498,1372,-1013,-623,-253,128,158,-72
8079,1399,0,2023-03-10T14:07:17.281667,6315458,1198,504,1365,-1025,-622,-263,128,158,-72
8080,1400,0,2023-03-10T14:07:17.287174,6315463,1198,504,1365,-1025,-622,-263,128,158,-72
8081,1401,0,2023-03-10T14:07:17.291596,6315468,1198,504,1365,-1025,-622,-263,128,158,-72
8082,1402,0,2023-03-10T14:07:17.296211,6315472,1198,504,1365,-1025,-622,-263,128,158,-72
8083,1403,0,2023-03-10T14:07:17.300980,6315478,1215,504,1371,-1030,-644,-259,128,158,-72
8084,1404,0,2023-03-10T14:07:17.305886,6315483,1215,504,1371,-1030,-644,-259,128,158,-72
8085,1405,0,2023-03-10T14:07:17.310973,6315488,1215,504,1371,-1030,-644,-259,128,158,-72
8086,1406,0,2023-03-10T14:07:17.315345,6315492,1215,504,1371,-1030,-644,-259,128,158,-72
8087,1407,0,2023-03-10T14:07:17.319941,6315496,1219,513,1369,-1022,-636,-271,120,160,-76
8088,1408,0,2023-03-10T14:07:17.325491,6315502,1219,513,1369,-1022,-636,-271,120,160,-76
8089,1409,0,2023-03-10T14:07:17.330665,6315507,1219,513,1369,-1022,-636,-271,120,160,-76
8090,1410,0,2023-03-10T14:07:17.335192,6315511,1219,513,1369,-1022,-636,-271,120,160,-76
8091,1411,0,2023-03-10T14:07:17.339616,6315516,1197,495,1350,-1031,-628,-250,120,160,-76
8092,1412,0,2023-03-10T14:07:17.344609,6315522,1197,495,1350,-1031,-628,-250,120,160,-76
8093,1413,0,2023-03-10T14:07:17.349485,6315527,1197,495,1350,-1031,-628,-250,120,160,-76
8094,1414,0,2023-03-10T14:07:17.354026,6315531,1197,495,1350,-1031,-628,-250,120,160,-76
8095,1415,0,2023-03-10T14:07:17.358428,6315535,1197,495,1350,-1031,-628,-250,120,160,-76
8096,1416,0,2023-03-10T14:07:17.362899,6315539,1227,510,1384,-1015,-616,-282,120,160,-76
8097,1417,0,2023-03-10T14:07:17.368770,6315545,1227,510,1384,-1015,-616,-282,120,160,-76
8098,1418,0,2023-03-10T14:07:17.373211,6315550,1227,510,1384,-1015,-616,-282,120,160,-76
8099,1419,0,2023-03-10T14:07:17.377751,6315554,1227,510,1384,-1015,-616,-282,120,160,-76
8100,1420,0,2023-03-10T14:07:17.382504,6315559,1187,492,1354,-1029,-641,-242,120,160,-76
8101,1421,0,2023-03-10T14:07:17.387383,6315564,1187,492,1354,-1029,-641,-242,120,160,-76
8102,1422,0,2023-03-10T14:07:17.391763,6315569,1187,492,1354,-1029,-641,-242,120,160,-76
8103,1423,0,2023-03-10T14:07:17.396388,6315573,1187,492,1354,-1029,-641,-242,120,160,-76
8104,1424,0,2023-03-10T14:07:17.400670,6315577,1223,509,1371,-1011,-608,-277,120,160,-76
8105,1425,0,2023-03-10T14:07:17.405576,6315582,1223,509,1371,-1011,-608,-277,120,160,-76
8106,1426,0,2023-03-10T14:07:17.410496,6315587,1223,509,1371,-1011,-608,-277,120,160,-76
8107,1427,0,2023-03-10T14:07:17.414868,6315591,1223,509,1371,-1011,-608,-277,120,160,-76
8108,1428,0,2023-03-10T14:07:17.419388,6315596,1223,509,1371,-1011,-608,-277,120,160,-76
8109,1429,0,2023-03-10T14:07:17.424095,6315600,1223,509,1371,-1011,-608,-277,120,160,-76
8110,1430,0,2023-03-10T14:07:17.429106,6315606,1223,509,1371,-1011,-608,-277,120,160,-76
8111,1431,0,2023-03-10T14:07:17.433881,6315611,1223,509,1371,-1011,-608,-277,120,160,-76
8112,1432,0,2023-03-10T14:07:17.438586,6315615,1223,509,1371,-1011,-608,-277,120,160,-76
8113,1433,0,2023-03-10T14:07:17.443162,6315620,1203,496,1356,-1031,-622,-262,120,160,-76
8114,1434,0,2023-03-10T14:07:17.448499,6315625,1203,496,1356,-1031,-622,-262,120,160,-76
8115,1435,0,2023-03-10T14:07:17.453089,6315629,1203,496,1356,-1031,-622,-262,120,160,-76
8116,1436,0,2023-03-10T14:07:17.457857,6315634,1203,496,1356,-1031,-622,-262,120,160,-76
8117,1437,0,2023-03-10T14:07:17.462579,6315639,1206,493,1369,-1020,-631,-250,118,156,-68
8118,1438,0,2023-03-10T14:07:17.468605,6315645,1206,493,1369,-1020,-631,-250,118,156,-68
8119,1439,0,2023-03-10T14:07:17.473117,6315650,1206,493,1369,-1020,-631,-250,118,156,-68
8120,1440,0,2023-03-10T14:07:17.477569,6315654,1206,493,1369,-1020,-631,-250,118,156,-68
8121,1441,0,2023-03-10T14:07:17.482446,6315659,1220,505,1371,-1023,-653,-269,118,156,-68
8122,1442,0,2023-03-10T14:07:17.487208,6315664,1220,505,1371,-1023,-653,-269,118,156,-68
8123,1443,0,2023-03-10T14:07:17.491626,6315668,1220,505,1371,-1023,-653,-269,118,156,-68
8124,1444,0,2023-03-10T14:07:17.496208,6315673,1220,505,1371,-1023,-653,-269,118,156,-68
8125,1445,0,2023-03-10T14:07:17.500937,6315677,1205,499,1361,-1030,-612,-248,118,156,-68
8126,1446,0,2023-03-10T14:07:17.506097,6315682,1205,499,1361,-1030,-612,-248,118,156,-68
8127,1447,0,2023-03-10T14:07:17.511029,6315687,1205,499,1361,-1030,-612,-248,118,156,-68
8128,1448,0,2023-03-10T14:07:17.515503,6315692,1205,499,1361,-1030,-612,-248,118,156,-68
8129,1449,0,2023-03-10T14:07:17.520051,6315697,1215,509,1361,-1015,-646,-269,118,156,-68
8130,1450,0,2023-03-10T14:07:17.525253,6315702,1215,509,1361,-1015,-646,-269,118,156,-68
8131,1451,0,2023-03-10T14:07:17.530640,6315707,1215,509,1361,-1015,-646,-269,118,156,-68
8132,1452,0,2023-03-10T14:07:17.535491,6315712,1215,509,1361,-1015,-646,-269,118,156,-68
8133,1453,0,2023-03-10T14:07:17.540118,6315717,1213,500,1363,-1030,-633,-250,118,156,-68
8134,1454,0,2023-03-10T14:07:17.545537,6315722,1213,500,1363,-1030,-633,-250,118,156,-68
8135,1455,0,2023-03-10T14:07:17.550706,6315727,1213,500,1363,-1030,-633,-250,118,156,-68
8136,1456,0,2023-03-10T14:07:17.555324,6315731,1213,500,1363,-1030,-633,-250,118,156,-68
8137,1457,0,2023-03-10T14:07:17.559923,6315737,1200,497,1358,-1027,-615,-254,118,156,-68
8138,1458,0,2023-03-10T14:07:17.565265,6315742,1200,497,1358,-1027,-615,-254,118,156,-68
8139,1459,0,2023-03-10T14:07:17.570236,6315747,1200,497,1358,-1027,-615,-254,118,156,-68
8140,1460,0,2023-03-10T14:07:17.574556,6315751,1200,497,1358,-1027,-615,-254,118,156,-68
8141,1461,0,2023-03-10T14:07:17.579178,6315756,1212,502,1364,-1016,-662,-260,125,156,-68
8142,1462,0,2023-03-10T14:07:17.584640,6315761,1212,502,1364,-1016,-662,-260,125,149,-69
8143,1463,0,2023-03-10T14:07:17.589430,6315766,1212,502,1364,-1016,-662,-260,125,149,-69
8144,1464,0,2023-03-10T14:07:17.593913,6315770,1212,502,1364,-1016,-662,-260,125,149,-69
8145,1465,0,2023-03-10T14:07:17.598379,6315774,1212,502,1364,-1016,-662,-260,125,149,-69
8146,1466,0,2023-03-10T14:07:17.603124,6315780,1213,503,1376,-1026,-607,-264,125,149,-69
8147,1467,0,2023-03-10T14:07:17.608176,6315785,1213,503,1376,-1026,-607,-264,125,149,-69
8148,1468,0,2023-03-10T14:07:17.612971,6315790,1213,503,1376,-1026,-607,-264,125,149,-69
8149,1469,0,2023-03-10T14:07:17.617430,6315794,1213,503,1376,-1026,-607,-264,125,149,-69
8150,1470,0,2023-03-10T14:07:17.621926,6315798,1208,498,1346,-1019,-658,-264,125,149,-69
8151,1471,0,2023-03-10T14:07:17.626242,6315803,1208,498,1346,-1019,-658,-264,125,149,-69
8152,1472,0,2023-03-10T14:07:17.630856,6315807,1208,498,1346,-1019,-658,-264,125,149,-69
8153,1473,0,2023-03-10T14:07:17.635552,6315812,1208,498,1346,-1019,-658,-264,125,149,-69
8154,1474,0,2023-03-10T14:07:17.639964,6315816,1222,507,1375,-1008,-616,-270,125,149,-69
8155,1475,0,2023-03-10T14:07:17.644869,6315822,1222,507,1375,-1008,-616,-270,125,149,-69
8156,1476,0,2023-03-10T14:07:17.650082,6315827,1222,507,1375,-1008,-616,-270,125,149,-69
8157,1477,0,2023-03-10T14:07:17.654559,6315831,1222,507,1375,-1008,-616,-270,125,149,-69
8158,1478,0,2023-03-10T14:07:17.659048,6315836,1194,495,1354,-1022,-624,-254,125,149,-69
8159,1479,0,2023-03-10T14:07:17.663964,6315840,1194,495,1354,-1022,-624,-254,125,149,-69
8160,1480,0,2023-03-10T14:07:17.669003,6315845,1194,495,1354,-1022,-624,-254,125,149,-69
8161,1481,0,2023-03-10T14:07:17.673348,6315850,1194,495,1354,-1022,-624,-254,125,149,-69
8162,1482,0,2023-03-10T14:07:17.677883,6315854,1194,495,1354,-1022,-624,-254,125,149,-69
8163,1483,0,2023-03-10T14:07:17.682452,6315859,1217,508,1369,-1014,-637,-268,125,149,-69
8164,1484,0,2023-03-10T14:07:17.687346,6315864,1217,508,1369,-1014,-637,-268,125,149,-69
8165,1485,0,2023-03-10T14:07:17.692062,6315869,1217,508,1369,-1014,-637,-268,125,149,-69
8166,1486,0,2023-03-10T14:07:17.696712,6315873,1217,508,1369,-1014,-637,-268,125,149,-69
8167,1487,0,2023-03-10T14:07:17.701239,6315878,1208,496,1368,-1016,-626,-245,125,155,-79
8168,1488,0,2023-03-10T14:07:17.706466,6315883,1208,496,1368,-1016,-626,-245,125,155,-79
8169,1489,0,2023-03-10T14:07:17.711581,6315888,1208,496,1368,-1016,-626,-245,125,155,-79
8170,1490,0,2023-03-10T14:07:17.716253,6315892,1208,496,1368,-1016,-626,-245,125,155,-79
8171,1491,0,2023-03-10T14:07:17.720575,6315897,1218,508,1358,-1021,-643,-267,125,155,-79
8172,1492,0,2023-03-10T14:07:17.725613,6315902,1218,508,1358,-1021,-643,-267,125,155,-79
8173,1493,0,2023-03-10T14:07:17.730564,6315908,1218,508,1358,-1021,-643,-267,125,155,-79
8174,1494,0,2023-03-10T14:07:17.735087,6315912,1218,508,1358,-1021,-643,-267,125,155,-79
8175,1495,0,2023-03-10T14:07:17.739425,6315916,1219,494,1371,-1014,-630,-250,125,155,-79
8176,1496,0,2023-03-10T14:07:17.743803,6315921,1219,494,1371,-1014,-630,-250,125,155,-79
8177,1497,0,2023-03-10T14:07:17.748632,6315925,1219,494,1371,-1014,-630,-250,125,155,-79
8178,1498,0,2023-03-10T14:07:17.753188,6315930,1219,494,1371,-1014,-630,-250,125,155,-79
8179,1499,0,2023-03-10T14:07:17.758004,6315934,1219,494,1371,-1014,-630,-250,125,155,-79
8180,1500,0,2023-03-10T14:07:17.762620,6315939,1207,506,1356,-1027,-617,-274,125,155,-79
8181,1501,0,2023-03-10T14:07:17.767804,6315944,1207,506,1356,-1027,-617,-274,125,155,-79
8182,1502,0,2023-03-10T14:07:17.772174,6315949,1207,506,1356,-1027,-617,-274,125,155,-79
8183,1503,0,2023-03-10T14:07:17.776714,6315954,1207,506,1356,-1027,-617,-274,125,155,-79
8184,1504,0,2023-03-10T14:07:17.782137,6315959,1208,492,1349,-1015,-651,-233,125,155,-79
8185,1505,0,2023-03-10T14:07:17.787558,6315964,1208,492,1349,-1015,-651,-233,125,155,-79
8186,1506,0,2023-03-10T14:07:17.792123,6315969,1208,492,1349,-1015,-651,-233,125,155,-79
8187,1507,0,2023-03-10T14:07:17.796338,6315973,1208,492,1349,-1015,-651,-233,125,155,-79
8188,1508,0,2023-03-10T14:07:17.800854,6315977,1216,503,1370,-1009,-612,-282,125,155,-79
8189,1509,0,2023-03-10T14:07:17.806192,6315982,1216,503,1370,-1009,-612,-282,125,155,-79
8190,1510,0,2023-03-10T14:07:17.810687,6315987,1216,503,1370,-1009,-612,-282,125,155,-79
8191,1511,0,2023-03-10T14:07:17.815110,6315992,1216,503,1370,-1009,-612,-282,125,155,-79
8192,1512,0,2023-03-10T14:07:17.819447,6315996,1212,495,1352,-1038,-657,-263,125,155,-79
8193,1513,0,2023-03-10T14:07:17.824416,6316001,1212,495,1352,-1038,-657,-263,125,155,-79
8194,1514,0,2023-03-10T14:07:17.829550,6316006,1212,495,1352,-1038,-657,-263,125,155,-79
8195,1515,0,2023-03-10T14:07:17.834190,6316011,1212,495,1352,-1038,-657,-263,125,155,-79
8196,1516,0,2023-03-10T14:07:17.838877,6316015,1212,495,1352,-1038,-657,-263,125,155,-79
8197,1517,0,2023-03-10T14:07:17.843439,6316020,1225,510,1372,-1015,-619,-274,123,153,-73
8198,1518,0,2023-03-10T14:07:17.849049,6316025,1225,510,1372,-1015,-619,-274,123,153,-73
8199,1519,0,2023-03-10T14:07:17.853387,6316030,1225,510,1372,-1015,-619,-274,123,153,-73
8200,1520,0,2023-03-10T14:07:17.858252,6316035,1225,510,1372,-1015,-619,-274,123,153,-73
8201,1521,0,2023-03-10T14:07:17.862619,6316040,1205,494,1348,-1036,-636,-257,123,153,-73
8202,1522,0,2023-03-10T14:07:17.867580,6316044,1205,494,1348,-1036,-636,-257,123,153,-73
8203,1523,0,2023-03-10T14:07:17.872100,6316049,1205,494,1348,-1036,-636,-257,123,153,-73
8204,1524,0,2023-03-10T14:07:17.876649,6316053,1205,494,1348,-1036,-636,-257,123,153,-73
8205,1525,0,2023-03-10T14:07:17.881383,6316058,1213,506,1361,-1013,-634,-274,123,153,-73
8206,1526,0,2023-03-10T14:07:17.886112,6316063,1213,506,1361,-1013,-634,-274,123,153,-73
8207,1527,0,2023-03-10T14:07:17.891002,6316067,1213,506,1361,-1013,-634,-274,123,153,-73
8208,1528,0,2023-03-10T14:07:17.895413,6316072,1213,506,1361,-1013,-634,-274,123,153,-73
8209,1529,0,2023-03-10T14:07:17.899818,6316077,1215,496,1371,-1024,-627,-258,123,153,-73
8210,1530,0,2023-03-10T14:07:17.904973,6316082,1215,496,1371,-1024,-627,-258,123,153,-73
8211,1531,0,2023-03-10T14:07:17.909886,6316087,1215,496,1371,-1024,-627,-258,123,153,-73
8212,1532,0,2023-03-10T14:07:17.914398,6316091,1215,496,1371,-1024,-627,-258,123,153,-73
8213,1533,0,2023-03-10T14:07:17.918960,6316095,1215,496,1371,-1024,-627,-258,123,153,-73
8214,1534,0,2023-03-10T14:07:17.923731,6316100,1212,508,1359,-1022,-641,-271,123,153,-73
8215,1535,0,2023-03-10T14:07:17.929324,6316105,1212,508,1359,-1022,-641,-271,123,153,-73
8216,1536,0,2023-03-10T14:07:17.933857,6316110,1212,508,1359,-1022,-641,-271,123,153,-73
8217,1537,0,2023-03-10T14:07:17.938197,6316114,1212,508,1359,-1022,-641,-271,123,153,-73
8218,1538,0,2023-03-10T14:07:17.942623,6316120,1221,496,1374,-1000,-624,-222,123,153,-73
8219,1539,0,2023-03-10T14:07:17.948022,6316125,1221,496,1374,-1000,-624,-222,123,153,-73
8220,1540,0,2023-03-10T14:07:17.952341,6316129,1221,496,1374,-1000,-624,-222,123,153,-73
8221,1541,0,2023-03-10T14:07:17.956585,6316133,1221,496,1374,-1000,-624,-222,123,153,-73
8222,1542,0,2023-03-10T14:07:17.960864,6316138,1214,495,1356,-1017,-625,-277,124,142,-70
8223,1543,0,2023-03-10T14:07:17.965792,6316142,1214,495,1356,-1017,-625,-277,124,142,-70
8224,1544,0,2023-03-10T14:07:17.970769,6316147,1214,495,1356,-1017,-625,-277,124,142,-70
8225,1545,0,2023-03-10T14:07:17.975311,6316151,1214,495,1356,-1017,-625,-277,124,142,-70
8226,1546,0,2023-03-10T14:07:17.979705,6316156,1219,499,1354,-1045,-638,-271,124,142,-70
8227,1547,0,2023-03-10T14:07:17.985129,6316162,1219,499,1354,-1045,-638,-271,124,142,-70
8228,1548,0,2023-03-10T14:07:17.990532,6316167,1219,499,1354,-1045,-638,-271,124,142,-70
8229,1549,0,2023-03-10T14:07:17.995163,6316172,1219,499,1354,-1045,-638,-271,124,142,-70
8230,1550,0,2023-03-10T14:07:17.999751,6316176,1221,501,1372,-1014,-625,-266,124,142,-70
8231,1551,0,2023-03-10T14:07:18.004777,6316181,1221,501,1372,-1014,-625,-266,124,142,-70
8232,1552,0,2023-03-10T14:07:18.009841,6316186,1221,501,1372,-1014,-625,-266,124,142,-70
8233,1553,0,2023-03-10T14:07:18.014255,6316191,1221,501,1372,-1014,-625,-266,124,142,-70
8234,1554,0,2023-03-10T14:07:18.018731,6316195,1221,501,1372,-1014,-625,-266,124,142,-70
8235,1555,0,2023-03-10T14:07:18.023102,6316199,1214,504,1344,-1038,-632,-259,124,142,-70
8236,1556,0,2023-03-10T14:07:18.028403,6316205,1214,504,1344,-1038,-632,-259,124,142,-70
8237,1557,0,2023-03-10T14:07:18.033021,6316210,1214,504,1344,-1038,-632,-259,124,142,-70
8238,1558,0,2023-03-10T14:07:18.037593,6316214,1214,504,1344,-1038,-632,-259,124,142,-70
8239,1559,0,2023-03-10T14:07:18.042080,6316219,1213,496,1379,-991,-612,-224,124,142,-70
8240,1560,0,2023-03-10T14:07:18.046463,6316223,1213,496,1379,-991,-612,-224,124,142,-70
8241,1561,0,2023-03-10T14:07:18.050779,6316227,1213,496,1379,-991,-612,-224,124,142,-70
8242,1562,0,2023-03-10T14:07:18.055388,6316232,1213,496,1379,-991,-612,-224,124,142,-70
8243,1563,0,2023-03-10T14:07:18.059996,6316236,1221,503,1359,-1026,-646,-284,124,142,-70
8244,1564,0,2023-03-10T14:07:18.065198,6316241,1221,503,1359,-1026,-646,-284,124,142,-70
8245,1565,0,2023-03-10T14:07:18.070053,6316247,1221,503,1359,-1026,-646,-284,124,142,-70
8246,1566,0,2023-03-10T14:07:18.074322,6316251,1221,503,1359,-1026,-646,-284,124,142,-70
8247,1567,0,2023-03-10T14:07:18.078542,6316255,1221,503,1359,-1026,-646,-284,124,142,-70
8248,1568,0,2023-03-10T14:07:18.082942,6316260,1222,502,1348,-1044,-642,-270,124,142,-70
8249,1569,0,2023-03-10T14:07:18.087728,6316264,1222,502,1348,-1044,-642,-270,124,142,-70
8250,1570,0,2023-03-10T14:07:18.092190,6316269,1222,502,1348,-1044,-642,-270,124,142,-70
8251,1571,0,2023-03-10T14:07:18.096650,6316273,1222,502,1348,-1044,-642,-270,124,142,-70
8252,1572,0,2023-03-10T14:07:18.101099,6316277,1214,493,1368,-1005,-617,-259,124,156,-68
8253,1573,0,2023-03-10T14:07:18.106031,6316282,1214,493,1368,-1005,-617,-259,124,156,-68
8254,1574,0,2023-03-10T14:07:18.110882,6316288,1214,493,1368,-1005,-617,-259,124,156,-68
8255,1575,0,2023-03-10T14:07:18.115588,6316293,1214,493,1368,-1005,-617,-259,124,156,-68
8256,1576,0,2023-03-10T14:07:18.120015,6316297,1227,504,1359,-1022,-652,-272,124,156,-68
8257,1577,0,2023-03-10T14:07:18.125274,6316302,1227,504,1359,-1022,-652,-272,124,156,-68
8258,1578,0,2023-03-10T14:07:18.130305,6316307,1227,504,1359,-1022,-652,-272,124,156,-68
8259,1579,0,2023-03-10T14:07:18.134795,6316311,1227,504,1359,-1022,-652,-272,124,156,-68
8260,1580,0,2023-03-10T14:07:18.139548,6316316,1227,504,1359,-1022,-652,-272,124,156,-68
8261,1581,0,2023-03-10T14:07:18.144330,6316321,1207,501,1363,-1004,-607,-236,124,156,-68
8262,1582,0,2023-03-10T14:07:18.150090,6316326,1207,501,1363,-1004,-607,-236,124,156,-68
8263,1583,0,2023-03-10T14:07:18.154514,6316332,1207,501,1363,-1004,-607,-236,124,156,-68
8264,1584,0,2023-03-10T14:07:18.159023,6316336,1207,501,1363,-1004,-607,-236,124,156,-68
8265,1585,0,2023-03-10T14:07:18.163869,6316341,1221,504,1355,-1026,-654,-278,124,156,-68
8266,1586,0,2023-03-10T14:07:18.168691,6316345,1221,504,1355,-1026,-654,-278,124,156,-68
8267,1587,0,2023-03-10T14:07:18.173130,6316350,1221,504,1355,-1026,-654,-278,124,156,-68
8268,1588,0,2023-03-10T14:07:18.177720,6316354,1221,504,1355,-1026,-654,-278,124,156,-68
8269,1589,0,2023-03-10T14:07:18.182803,6316359,1225,501,1360,-1022,-631,-265,124,156,-68
8270,1590,0,2023-03-10T14:07:18.188407,6316365,1225,501,1360,-1022,-631,-265,124,156,-68
8271,1591,0,2023-03-10T14:07:18.192904,6316369,1225,501,1360,-1022,-631,-265,124,156,-68
8272,1592,0,2023-03-10T14:07:18.197903,6316375,1225,501,1360,-1022,-631,-265,124,156,-68
8273,1593,0,2023-03-10T14:07:18.202625,6316379,1218,502,1349,-1030,-622,-255,124,156,-68
8274,1594,0,2023-03-10T14:07:18.208733,6316385,1218,502,1349,-1030,-622,-255,124,156,-68
8275,1595,0,2023-03-10T14:07:18.213150,6316390,1218,502,1349,-1030,-622,-255,124,156,-68
8276,1596,0,2023-03-10T14:07:18.217931,6316394,1218,502,1349,-1030,-622,-255,124,156,-68
8277,1597,0,2023-03-10T14:07:18.222412,6316399,1210,495,1367,-991,-652,-221,122,150,-66
8278,1598,0,2023-03-10T14:07:18.228051,6316404,1210,495,1367,-991,-652,-221,122,150,-66
8279,1599,0,2023-03-10T14:07:18.232495,6316409,1210,495,1367,-991,-652,-221,122,150,-66
8280,1600,0,2023-03-10T14:07:18.236953,6316413,1210,495,1367,-991,-652,-221,122,150,-66
8281,1601,0,2023-03-10T14:07:18.241676,6316419,1229,503,1366,-1031,-617,-284,122,150,-66
8282,1602,0,2023-03-10T14:07:18.246611,6316424,1229,503,1366,-1031,-617,-284,122,150,-66
8283,1603,0,2023-03-10T14:07:18.251452,6316428,1229,503,1366,-1031,-617,-284,122,150,-66
8284,1604,0,2023-03-10T14:07:18.255865,6316433,1229,503,1366,-1031,-617,-284,122,150,-66
8285,1605,0,2023-03-10T14:07:18.260411,6316437,1231,511,1342,-1025,-638,-261,122,150,-66
8286,1606,0,2023-03-10T14:07:18.265972,6316442,1231,511,1342,-1025,-638,-261,122,150,-66
8287,1607,0,2023-03-10T14:07:18.270437,6316447,1231,511,1342,-1025,-638,-261,122,150,-66
8288,1608,0,2023-03-10T14:07:18.275296,6316451,1231,511,1342,-1025,-638,-261,122,150,-66
8289,1609,0,2023-03-10T14:07:18.279773,6316456,1213,496,1363,-992,-621,-230,122,150,-66
8290,1610,0,2023-03-10T14:07:18.285128,6316462,1213,496,1363,-992,-621,-230,122,150,-66
8291,1611,0,2023-03-10T14:07:18.290308,6316467,1213,496,1363,-992,-621,-230,122,150,-66
8292,1612,0,2023-03-10T14:07:18.294787,6316472,1213,496,1363,-992,-621,-230,122,150,-66
8293,1613,0,2023-03-10T14:07:18.299312,6316476,1213,496,1363,-992,-621,-230,122,150,-66
8294,1614,0,2023-03-10T14:07:18.303679,6316480,1216,501,1341,-1053,-635,-291,122,150,-66
8295,1615,0,2023-03-10T14:07:18.309306,6316486,1216,501,1341,-1053,-635,-291,122,150,-66
8296,1616,0,2023-03-10T14:07:18.313783,6316490,1216,501,1341,-1053,-635,-291,122,150,-66
8297,1617,0,2023-03-10T14:07:18.318106,6316494,1216,501,1341,-1053,-635,-291,122,150,-66
8298,1618,0,2023-03-10T14:07:18.322922,6316499,1229,508,1355,-1026,-614,-266,122,150,-66
8299,1619,0,2023-03-10T14:07:18.328873,6316506,1229,508,1355,-1026,-614,-266,122,150,-66
8300,1620,0,2023-03-10T14:07:18.333060,6316510,1229,508,1355,-1026,-614,-266,122,150,-66
8301,1621,0,2023-03-10T14:07:18.337648,6316514,1229,508,1355,-1026,-614,-266,122,150,-66
8302,1622,0,2023-03-10T14:07:18.342257,6316519,1216,497,1365,-996,-661,-229,122,150,-66
8303,1623,0,2023-03-10T14:07:18.347257,6316524,1216,497,1365,-996,-661,-229,122,150,-66
8304,1624,0,2023-03-10T14:07:18.351883,6316528,1216,497,1365,-996,-661,-229,122,150,-66
8305,1625,0,2023-03-10T14:07:18.356157,6316533,1216,497,1365,-996,-661,-229,122,150,-66
8306,1626,0,2023-03-10T14:07:18.360650,6316537,1222,491,1349,-1037,-622,-286,123,155,-73
8307,1627,0,2023-03-10T14:07:18.366258,6316542,1222,491,1349,-1037,-622,-286,123,155,-73
8308,1628,0,2023-03-10T14:07:18.371331,6316548,1222,491,1349,-1037,-622,-286,123,155,-73
8309,1629,0,2023-03-10T14:07:18.375981,6316553,1222,491,1349,-1037,-622,-286,123,155,-73
8310,1630,0,2023-03-10T14:07:18.380504,6316557,1232,505,1353,-1016,-650,-265,123,155,-73
8311,1631,0,2023-03-10T14:07:18.385456,6316562,1232,505,1353,-1016,-650,-265,123,155,-73
8312,1632,0,2023-03-10T14:07:18.390143,6316567,1232,505,1353,-1016,-650,-265,123,155,-73
8313,1633,0,2023-03-10T14:07:18.395058,6316571,1232,505,1353,-1016,-650,-265,123,155,-73
8314,1634,0,2023-03-10T14:07:18.399716,6316576,1232,505,1353,-1016,-650,-265,123,155,-73
8315,1635,0,2023-03-10T14:07:18.404163,6316580,1213,498,1358,-1007,-617,-237,123,155,-73
8316,1636,0,2023-03-10T14:07:18.409791,6316587,1213,498,1358,-1007,-617,-237,123,155,-73
8317,1637,0,2023-03-10T14:07:18.414247,6316591,1213,498,1358,-1007,-617,-237,123,155,-73
8318,1638,0,2023-03-10T14:07:18.418988,6316596,1213,498,1358,-1007,-617,-237,123,155,-73
8319,1639,0,2023-03-10T14:07:18.423683,6316600,1213,501,1344,-1032,-633,-277,123,155,-73
8320,1640,0,2023-03-10T14:07:18.429535,6316606,1213,501,1344,-1032,-633,-277,123,155,-73
8321,1641,0,2023-03-10T14:07:18.434218,6316610,1213,501,1344,-1032,-633,-277,123,155,-73
8322,1642,0,2023-03-10T14:07:18.438944,6316615,1213,501,1344,-1032,-633,-277,123,155,-73
8323,1643,0,2023-03-10T14:07:18.443539,6316620,1228,505,1368,-1024,-615,-263,123,155,-73
8324,1644,0,2023-03-10T14:07:18.448520,6316625,1228,505,1368,-1024,-615,-263,123,155,-73
8325,1645,0,2023-03-10T14:07:18.453102,6316630,1228,505,1368,-1024,-615,-263,123,155,-73
8326,1646,0,2023-03-10T14:07:18.457628,6316635,1228,505,1368,-1024,-615,-263,123,155,-73
8327,1647,0,2023-03-10T14:07:18.462095,6316639,1217,502,1352,-1016,-657,-258,123,155,-73
8328,1648,0,2023-03-10T14:07:18.467033,6316644,1217,502,1352,-1016,-657,-258,123,155,-73
8329,1649,0,2023-03-10T14:07:18.471546,6316648,1217,502,1352,-1016,-657,-258,123,155,-73
8330,1650,0,2023-03-10T14:07:18.476115,6316653,1217,502,1352,-1016,-657,-258,123,155,-73
8331,1651,0,2023-03-10T14:07:18.480607,6316657,1230,496,1361,-1015,-619,-252,114,154,-68
8332,1652,0,2023-03-10T14:07:18.485628,6316662,1230,496,1361,-1015,-619,-252,114,154,-68
8333,1653,0,2023-03-10T14:07:18.490028,6316666,1230,496,1361,-1015,-619,-252,114,154,-68
8334,1654,0,2023-03-10T14:07:18.494451,6316672,1230,496,1361,-1015,-619,-252,114,154,-68
8335,1655,0,2023-03-10T14:07:18.498941,6316676,1230,496,1361,-1015,-619,-252,114,154,-68
8336,1656,0,2023-03-10T14:07:18.503379,6316680,1211,499,1354,-1022,-619,-257,114,154,-68
8337,1657,0,2023-03-10T14:07:18.508340,6316685,1211,499,1354,-1022,-619,-257,114,154,-68
8338,1658,0,2023-03-10T14:07:18.512888,6316689,1211,499,1354,-1022,-619,-257,114,154,-68
8339,1659,0,2023-03-10T14:07:18.517507,6316694,1211,499,1354,-1022,-619,-257,114,154,-68
8340,1660,0,2023-03-10T14:07:18.521884,6316698,1227,496,1357,-1015,-662,-255,114,154,-68
8341,1661,0,2023-03-10T14:07:18.527869,6316704,1227,496,1357,-1015,-662,-255,114,154,-68
8342,1662,0,2023-03-10T14:07:18.532272,6316709,1227,496,1357,-1015,-662,-255,114,154,-68
8343,1663,0,2023-03-10T14:07:18.536762,6316713,1227,496,1357,-1015,-662,-255,114,154,-68
8344,1664,0,2023-03-10T14:07:18.541596,6316718,1234,506,1352,-1013,-608,-267,114,154,-68
8345,1665,0,2023-03-10T14:07:18.546428,6316723,1234,506,1352,-1013,-608,-267,114,154,-68
8346,1666,0,2023-03-10T14:07:18.551174,6316728,1234,506,1352,-1013,-608,-267,114,154,-68
8347,1667,0,2023-03-10T14:07:18.555875,6316732,1234,506,1352,-1013,-608,-267,114,154,-68
8348,1668,0,2023-03-10T14:07:18.560549,6316737,1221,497,1346,-1024,-639,-248,114,154,-68
8349,1669,0,2023-03-10T14:07:18.565286,6316742,1221,497,1346,-1024,-639,-248,114,154,-68
8350,1670,0,2023-03-10T14:07:18.570433,6316747,1221,497,1346,-1024,-639,-248,114,154,-68
8351,1671,0,2023-03-10T14:07:18.575107,6316751,1221,497,1346,-1024,-639,-248,114,154,-68
8352,1672,0,2023-03-10T14:07:18.580026,6316756,1221,497,1346,-1024,-639,-248,114,154,-68
8353,1673,0,2023-03-10T14:07:18.584664,6316762,1239,509,1365,-1012,-626,-280,114,154,-68
8354,1674,0,2023-03-10T14:07:18.590600,6316767,1239,509,1365,-1012,-626,-280,114,154,-68
8355,1675,0,2023-03-10T14:07:18.595332,6316772,1239,509,1365,-1012,-626,-280,114,154,-68
8356,1676,0,2023-03-10T14:07:18.600419,6316777,1213,492,1339,-1036,-641,-238,114,154,-68
8357,1677,0,2023-03-10T14:07:18.605498,6316782,1213,492,1339,-1036,-641,-238,121,147,-73
8358,1678,0,2023-03-10T14:07:18.610237,6316787,1213,492,1339,-1036,-641,-238,121,147,-73
8359,1679,0,2023-03-10T14:07:18.614869,6316791,1213,492,1339,-1036,-641,-238,121,147,-73
8360,1680,0,2023-03-10T14:07:18.619312,6316796,1213,492,1339,-1036,-641,-238,121,147,-73
8361,1681,0,2023-03-10T14:07:18.623730,6316801,1229,495,1362,-1021,-618,-274,121,147,-73
8362,1682,0,2023-03-10T14:07:18.629392,6316806,1229,495,1362,-1021,-618,-274,121,147,-73
8363,1683,0,2023-03-10T14:07:18.633969,6316811,1229,495,1362,-1021,-618,-274,121,147,-73
8364,1684,0,2023-03-10T14:07:18.638764,6316815,1229,495,1362,-1021,-618,-274,121,147,-73
8365,1685,0,2023-03-10T14:07:18.643551,6316820,1225,493,1357,-1020,-669,-251,121,147,-73
8366,1686,0,2023-03-10T14:07:18.648318,6316825,1225,493,1357,-1020,-669,-251,121,147,-73
8367,1687,0,2023-03-10T14:07:18.652767,6316829,1225,493,1357,-1020,-669,-251,121,147,-73
8368,1688,0,2023-03-10T14:07:18.657258,6316834,1225,493,1357,-1020,-669,-251,121,147,-73
8369,1689,0,2023-03-10T14:07:18.661589,6316838,1225,504,1349,-1027,-611,-269,121,147,-73
8370,1690,0,2023-03-10T14:07:18.666025,6316843,1225,504,1349,-1027,-611,-269,121,147,-73
8371,1691,0,2023-03-10T14:07:18.670464,6316848,1225,504,1349,-1027,-611,-269,121,147,-73
8372,1692,0,2023-03-10T14:07:18.674961,6316852,1225,504,1349,-1027,-611,-269,121,147,-73
8373,1693,0,2023-03-10T14:07:18.679515,6316856,1225,504,1349,-1027,-611,-269,121,147,-73
8374,1694,0,2023-03-10T14:07:18.684154,6316861,1227,502,1348,-1027,-649,-259,121,147,-73
8375,1695,0,2023-03-10T14:07:18.690137,6316867,1227,502,1348,-1027,-649,-259,121,147,-73
8376,1696,0,2023-03-10T14:07:18.694734,6316871,1227,502,1348,-1027,-649,-259,121,147,-73
8377,1697,0,2023-03-10T14:07:18.699087,6316875,1227,502,1348,-1027,-649,-259,121,147,-73
8378,1698,0,2023-03-10T14:07:18.703740,6316880,1235,502,1355,-1027,-621,-276,121,147,-73
8379,1699,0,2023-03-10T14:07:18.708819,6316886,1235,502,1355,-1027,-621,-276,121,147,-73
8380,1700,0,2023-03-10T14:07:18.713366,6316890,1235,502,1355,-1027,-621,-276,121,147,-73
8381,1701,0,2023-03-10T14:07:18.717766,6316895,1235,502,1355,-1027,-621,-276,121,147,-73
8382,1702,0,2023-03-10T14:07:18.722225,6316899,1210,491,1352,-1029,-632,-245,121,147,-73
8383,1703,0,2023-03-10T14:07:18.727307,6316904,1210,491,1352,-1029,-632,-245,121,147,-73
8384,1704,0,2023-03-10T14:07:18.731611,6316908,1210,491,1352,-1029,-632,-245,121,147,-73
8385,1705,0,2023-03-10T14:07:18.736163,6316913,1210,491,1352,-1029,-632,-245,121,147,-73
8386,1706,0,2023-03-10T14:07:18.740453,6316917,1233,507,1366,-1017,-632,-273,129,151,-73
8387,1707,0,2023-03-10T14:07:18.745805,6316922,1233,507,1366,-1017,-632,-273,129,151,-73
8388,1708,0,2023-03-10T14:07:18.750890,6316928,1233,507,1366,-1017,-632,-273,129,151,-73
8389,1709,0,2023-03-10T14:07:18.755490,6316933,1233,507,1366,-1017,-632,-273,129,151,-73
8390,1710,0,2023-03-10T14:07:18.760006,6316937,1233,507,1366,-1017,-632,-273,129,151,-73
8391,1711,0,2023-03-10T14:07:18.764869,6316942,1230,499,1358,-1016,-649,-257,129,151,-73
8392,1712,0,2023-03-10T14:07:18.769561,6316946,1230,499,1358,-1016,-649,-257,129,151,-73
8393,1713,0,2023-03-10T14:07:18.774251,6316951,1230,499,1358,-1016,-649,-257,129,151,-73
8394,1714,0,2023-03-10T14:07:18.778702,6316955,1230,499,1358,-1016,-649,-257,129,151,-73
8395,1715,0,2023-03-10T14:07:18.783177,6316959,1227,501,1349,-1027,-618,-275,129,151,-73
8396,1716,0,2023-03-10T14:07:18.788982,6316965,1227,501,1349,-1027,-618,-275,129,151,-73
8397,1717,0,2023-03-10T14:07:18.793786,6316971,1227,501,1349,-1027,-618,-275,129,151,-73
8398,1718,0,2023-03-10T14:07:18.798400,6316975,1227,501,1349,-1027,-618,-275,129,151,-73
8399,1719,0,2023-03-10T14:07:18.802845,6316980,1230,491,1354,-1026,-638,-251,129,151,-73
8400,1720,0,2023-03-10T14:07:18.807958,6316985,1230,491,1354,-1026,-638,-251,129,151,-73
8401,1721,0,2023-03-10T14:07:18.812345,6316989,1230,491,1354,-1026,-638,-251,129,151,-73
8402,1722,0,2023-03-10T14:07:18.817114,6316994,1230,491,1354,-1026,-638,-251,129,151,-73
8403,1723,0,2023-03-10T14:07:18.821685,6316998,1227,505,1344,-1009,-634,-274,129,151,-73
8404,1724,0,2023-03-10T14:07:18.827104,6317003,1227,505,1344,-1009,-634,-274,129,151,-73
8405,1725,0,2023-03-10T14:07:18.832202,6317008,1227,505,1344,-1009,-634,-274,129,151,-73
8406,1726,0,2023-03-10T14:07:18.837087,6317014,1227,505,1344,-1009,-634,-274,129,151,-73
8407,1727,0,2023-03-10T14:07:18.841475,6317019,1229,496,1359,-1032,-624,-261,129,151,-73
8408,1728,0,2023-03-10T14:07:18.847099,6317024,1229,496,1359,-1032,-624,-261,129,151,-73
8409,1729,0,2023-03-10T14:07:18.851999,6317029,1229,496,1359,-1032,-624,-261,129,151,-73
8410,1730,0,2023-03-10T14:07:18.856081,6317033,1229,496,1359,-1032,-624,-261,129,151,-73
8411,1731,0,2023-03-10T14:07:18.860450,6317037,1229,496,1359,-1032,-624,-261,129,151,-73
8412,1732,0,2023-03-10T14:07:18.865888,6317042,1226,505,1357,-1013,-635,-272,114,152,-72
8413,1733,0,2023-03-10T14:07:18.871764,6317048,1226,505,1357,-1013,-635,-272,114,152,-72
8414,1734,0,2023-03-10T14:07:18.876333,6317053,1226,505,1357,-1013,-635,-272,114,152,-72
8415,1735,0,2023-03-10T14:07:18.880816,6317058,1238,497,1358,-1028,-637,-251,114,152,-72
8416,1736,0,2023-03-10T14:07:18.885729,6317063,1238,497,1358,-1028,-637,-251,114,152,-72
8417,1737,0,2023-03-10T14:07:18.890138,6317067,1238,497,1358,-1028,-637,-251,114,152,-72
8418,1738,0,2023-03-10T14:07:18.895188,6317071,1238,497,1358,-1028,-637,-251,114,152,-72
8419,1739,0,2023-03-10T14:07:18.900063,6317077,1238,497,1358,-1028,-637,-251,114,152,-72
8420,1740,0,2023-03-10T14:07:18.904495,6317081,1234,506,1352,-1019,-645,-276,114,152,-72
8421,1741,0,2023-03-10T14:07:18.910687,6317087,1234,506,1352,-1019,-645,-276,114,152,-72
8422,1742,0,2023-03-10T14:07:18.915379,6317091,1234,506,1352,-1019,-645,-276,114,152,-72
8423,1743,0,2023-03-10T14:07:18.920410,6317096,1234,506,1352,-1019,-645,-276,114,152,-72
8424,1744,0,2023-03-10T14:07:18.925084,6317102,1222,494,1338,-1036,-642,-241,114,152,-72
8425,1745,0,2023-03-10T14:07:18.931146,6317108,1222,494,1338,-1036,-642,-241,114,152,-72
8426,1746,0,2023-03-10T14:07:18.935903,6317113,1222,494,1338,-1036,-642,-241,114,152,-72
8427,1747,0,2023-03-10T14:07:18.941359,6317117,1245,508,1367,-1003,-617,-277,114,152,-72
8428,1748,0,2023-03-10T14:07:18.947304,6317123,1245,508,1367,-1003,-617,-277,114,152,-72
8429,1749,0,2023-03-10T14:07:18.952791,6317129,1245,508,1367,-1003,-617,-277,114,152,-72
8430,1750,0,2023-03-10T14:07:18.957303,6317134,1245,508,1367,-1003,-617,-277,114,152,-72
8431,1751,0,2023-03-10T14:07:18.961870,6317138,1213,493,1336,-1039,-641,-231,114,152,-72
8432,1752,0,2023-03-10T14:07:18.966946,6317144,1213,493,1336,-1039,-641,-231,114,152,-72
8433,1753,0,2023-03-10T14:07:18.972049,6317149,1213,493,1336,-1039,-641,-231,114,152,-72
8434,1754,0,2023-03-10T14:07:18.976925,6317154,1213,493,1336,-1039,-641,-231,114,152,-72
8435,1755,0,2023-03-10T14:07:18.981627,6317158,1250,517,1365,-1015,-608,-286,114,152,-72
8436,1756,0,2023-03-10T14:07:18.987438,6317164,1250,517,1365,-1015,-608,-286,114,152,-72
8437,1757,0,2023-03-10T14:07:18.992501,6317169,1250,517,1365,-1015,-608,-286,114,152,-72
8438,1758,0,2023-03-10T14:07:18.997531,6317174,1250,517,1365,-1015,-608,-286,114,152,-72
8439,1759,0,2023-03-10T14:07:19.002249,6317178,1232,499,1347,-1023,-650,-240,119,145,-69
8440,1760,0,2023-03-10T14:07:19.008495,6317185,1232,499,1347,-1023,-650,-240,119,145,-69
8441,1761,0,2023-03-10T14:07:19.013352,6317190,1232,499,1347,-1023,-650,-240,119,145,-69
8442,1762,0,2023-03-10T14:07:19.018082,6317195,1232,499,1347,-1023,-650,-240,119,145,-69
8443,1763,0,2023-03-10T14:07:19.022670,6317199,1227,500,1343,-1022,-629,-267,119,145,-69
8444,1764,0,2023-03-10T14:07:19.028660,6317205,1227,500,1343,-1022,-629,-267,119,145,-69
8445,1765,0,2023-03-10T14:07:19.033610,6317210,1227,500,1343,-1022,-629,-267,119,145,-69
8446,1766,0,2023-03-10T14:07:19.038467,6317215,1227,500,1343,-1022,-629,-267,119,145,-69
8447,1767,0,2023-03-10T14:07:19.043055,6317219,1243,496,1353,-1017,-646,-253,119,145,-69
8448,1768,0,2023-03-10T14:07:19.048321,6317224,1243,496,1353,-1017,-646,-253,119,145,-69
8449,1769,0,2023-03-10T14:07:19.053249,6317230,1243,496,1353,-1017,-646,-253,119,145,-69
8450,1770,0,2023-03-10T14:07:19.058021,6317235,1243,496,1353,-1017,-646,-253,119,145,-69
8451,1771,0,2023-03-10T14:07:19.062425,6317239,1216,498,1342,-1025,-637,-255,119,145,-69
8452,1772,0,2023-03-10T14:07:19.068695,6317245,1216,498,1342,-1025,-637,-255,119,145,-69
8453,1773,0,2023-03-10T14:07:19.073580,6317250,1216,498,1342,-1025,-637,-255,119,145,-69
8454,1774,0,2023-03-10T14:07:19.078198,6317255,1216,498,1342,-1025,-637,-255,119,145,-69
8455,1775,0,2023-03-10T14:07:19.082955,6317259,1241,498,1354,-1024,-632,-260,119,145,-69
8456,1776,0,2023-03-10T14:07:19.089332,6317266,1241,498,1354,-1024,-632,-260,119,145,-69
8457,1777,0,2023-03-10T14:07:19.094064,6317271,1241,498,1354,-1024,-632,-260,119,145,-69
8458,1778,0,2023-03-10T14:07:19.098787,6317276,1241,498,1354,-1024,-632,-260,119,145,-69
8459,1779,0,2023-03-10T14:07:19.103160,6317280,1243,509,1356,-1017,-651,-274,119,145,-69
8460,1780,0,2023-03-10T14:07:19.109282,6317286,1243,509,1356,-1017,-651,-274,119,145,-69
8461,1781,0,2023-03-10T14:07:19.114184,6317291,1243,509,1356,-1017,-651,-274,119,145,-69
8462,1782,0,2023-03-10T14:07:19.118654,6317295,1243,509,1356,-1017,-651,-274,119,145,-69
8463,1783,0,2023-03-10T14:07:19.123251,6317300,1222,490,1329,-1029,-631,-228,131,147,-71
8464,1784,0,2023-03-10T14:07:19.129496,6317305,1222,490,1329,-1029,-631,-228,131,147,-71
8465,1785,0,2023-03-10T14:07:19.134237,6317310,1222,490,1329,-1029,-631,-228,131,147,-71
8466,1786,0,2023-03-10T14:07:19.139158,6317316,1222,490,1329,-1029,-631,-228,131,147,-71
8467,1787,0,2023-03-10T14:07:19.143620,6317321,1248,511,1368,-1015,-616,-284,131,147,-71
8468,1788,0,2023-03-10T14:07:19.149840,6317326,1248,511,1368,-1015,-616,-284,131,147,-71
8469,1789,0,2023-03-10T14:07:19.154483,6317331,1248,511,1368,-1015,-616,-284,131,147,-71
8470,1790,0,2023-03-10T14:07:19.158981,6317336,1248,511,1368,-1015,-616,-284,131,147,-71
8471,1791,0,2023-03-10T14:07:19.163482,6317340,1215,490,1347,-1028,-632,-241,131,147,-71
8472,1792,0,2023-03-10T14:07:19.168694,6317345,1215,490,1347,-1028,-632,-241,131,147,-71
8473,1793,0,2023-03-10T14:07:19.173341,6317349,1215,490,1347,-1028,-632,-241,131,147,-71
8474,1794,0,2023-03-10T14:07:19.178080,6317355,1215,490,1347,-1028,-632,-241,131,147,-71
8475,1795,0,2023-03-10T14:07:19.182822,6317360,1248,511,1362,-1018,-634,-276,131,147,-71
8476,1796,0,2023-03-10T14:07:19.188471,6317365,1248,511,1362,-1018,-634,-276,131,147,-71
8477,1797,0,2023-03-10T14:07:19.192951,6317370,1248,511,1362,-1018,-634,-276,131,147,-71
8478,1798,0,2023-03-10T14:07:19.198013,6317374,1248,511,1362,-1018,-634,-276,131,147,-71
8479,1799,0,2023-03-10T14:07:19.202802,6317379,1239,497,1345,-1018,-644,-245,131,147,-71
8480,1800,0,2023-03-10T14:07:19.208679,6317385,1239,497,1345,-1018,-644,-245,131,147,-71
8481,1801,0,2023-03-10T14:07:19.213456,6317390,1239,497,1345,-1018,-644,-245,131,147,-71
8482,1802,0,2023-03-10T14:07:19.217960,6317394,1239,497,1345,-1018,-644,-245,131,147,-71
8483,1803,0,2023-03-10T14:07:19.222948,6317400,1233,505,1343,-1018,-628,-266,131,147,-71
8484,1804,0,2023-03-10T14:07:19.228593,6317405,1233,505,1343,-1018,-628,-266,131,147,-71
8485,1805,0,2023-03-10T14:07:19.233381,6317410,1233,505,1343,-1018,-628,-266,131,147,-71
8486,1806,0,2023-03-10T14:07:19.238382,6317415,1233,505,1343,-1018,-628,-266,131,147,-71
8487,1807,0,2023-03-10T14:07:19.243535,6317420,1223,494,1348,-1020,-637,-245,119,151,-63
8488,1808,0,2023-03-10T14:07:19.249651,6317426,1223,494,1348,-1020,-637,-245,119,151,-63
8489,1809,0,2023-03-10T14:07:19.254576,6317430,1223,494,1348,-1020,-637,-245,119,151,-63
8490,1810,0,2023-03-10T14:07:19.259989,6317436,1223,494,1348,-1020,-637,-245,119,151,-63
8491,1811,0,2023-03-10T14:07:19.264561,6317442,1233,501,1357,-1029,-614,-278,119,151,-63
8492,1812,0,2023-03-10T14:07:19.271612,6317448,1233,501,1357,-1029,-614,-278,119,151,-63
8493,1813,0,2023-03-10T14:07:19.276530,6317453,1233,501,1357,-1029,-614,-278,119,151,-63
8494,1814,0,2023-03-10T14:07:19.281476,6317458,1234,493,1353,-1026,-651,-260,119,151,-63
8495,1815,0,2023-03-10T14:07:19.286744,6317463,1234,493,1353,-1026,-651,-260,119,151,-63
8496,1816,0,2023-03-10T14:07:19.292103,6317468,1234,493,1353,-1026,-651,-260,119,151,-63
8497,1817,0,2023-03-10T14:07:19.297014,6317473,1234,493,1353,-1026,-651,-260,119,151,-63
8498,1818,0,2023-03-10T14:07:19.301821,6317478,1230,504,1347,-1027,-610,-278,119,151,-63
8499,1819,0,2023-03-10T14:07:19.307325,6317484,1230,504,1347,-1027,-610,-278,119,151,-63
8500,1820,0,2023-03-10T14:07:19.312688,6317490,1230,504,1347,-1027,-610,-278,119,151,-63
8501,1821,0,2023-03-10T14:07:19.317656,6317494,1230,504,1347,-1027,-610,-278,119,151,-63
8502,1822,0,2023-03-10T14:07:19.322613,6317499,1236,500,1356,-1023,-654,-259,119,151,-63
8503,1823,0,2023-03-10T14:07:19.327336,6317504,1236,500,1356,-1023,-654,-259,119,151,-63
8504,1824,0,2023-03-10T14:07:19.332071,6317508,1236,500,1356,-1023,-654,-259,119,151,-63
8505,1825,0,2023-03-10T14:07:19.336871,6317513,1236,500,1356,-1023,-654,-259,119,151,-63
8506,1826,0,2023-03-10T14:07:19.341977,6317518,1238,502,1350,-1022,-627,-276,119,151,-63
8507,1827,0,2023-03-10T14:07:19.347216,6317523,1238,502,1350,-1022,-627,-276,119,151,-63
8508,1828,0,2023-03-10T14:07:19.352271,6317529,1238,502,1350,-1022,-627,-276,119,151,-63
8509,1829,0,2023-03-10T14:07:19.357400,6317534,1238,502,1350,-1022,-627,-276,119,151,-63
8510,1830,0,2023-03-10T14:07:19.362243,6317539,1224,490,1334,-1020,-647,-237,119,151,-63
8511,1831,0,2023-03-10T14:07:19.367162,6317544,1224,490,1334,-1020,-647,-237,119,151,-63
8512,1832,0,2023-03-10T14:07:19.372598,6317549,1224,490,1334,-1020,-647,-237,119,151,-63
8513,1833,0,2023-03-10T14:07:19.377345,6317554,1224,490,1334,-1020,-647,-237,119,151,-63
8514,1834,0,2023-03-10T14:07:19.381644,6317558,1252,507,1363,-1013,-603,-279,122,152,-68
8515,1835,0,2023-03-10T14:07:19.386949,6317563,1252,507,1363,-1013,-603,-279,122,152,-68
8516,1836,0,2023-03-10T14:07:19.392202,6317569,1252,507,1363,-1013,-603,-279,122,152,-68
8517,1837,0,2023-03-10T14:07:19.396803,6317574,1252,507,1363,-1013,-603,-279,122,152,-68
8518,1838,0,2023-03-10T14:07:19.402144,6317579,1221,495,1335,-1010,-648,-211,122,152,-68
8519,1839,0,2023-03-10T14:07:19.407336,6317584,1221,495,1335,-1010,-648,-211,122,152,-68
8520,1840,0,2023-03-10T14:07:19.411965,6317588,1221,495,1335,-1010,-648,-211,122,152,-68
8521,1841,0,2023-03-10T14:07:19.416365,6317593,1221,495,1335,-1010,-648,-211,122,152,-68
8522,1842,0,2023-03-10T14:07:19.421039,6317597,1221,495,1335,-1010,-648,-211,122,152,-68
8523,1843,0,2023-03-10T14:07:19.426989,6317603,1247,506,1357,-1011,-617,-270,122,152,-68
8524,1844,0,2023-03-10T14:07:19.432731,6317609,1247,506,1357,-1011,-617,-270,122,152,-68
8525,1845,0,2023-03-10T14:07:19.437459,6317615,1247,506,1357,-1011,-617,-270,122,152,-68
8526,1846,0,2023-03-10T14:07:19.441912,6317619,1227,494,1339,-1051,-617,-273,122,152,-68
8527,1847,0,2023-03-10T14:07:19.447585,6317624,1227,494,1339,-1051,-617,-273,122,152,-68
8528,1848,0,2023-03-10T14:07:19.452758,6317629,1227,494,1339,-1051,-617,-273,122,152,-68
8529,1849,0,2023-03-10T14:07:19.457307,6317634,1227,494,1339,-1051,-617,-273,122,152,-68
8530,1850,0,2023-03-10T14:07:19.461798,6317638,1234,498,1340,-1006,-663,-256,122,152,-68
8531,1851,0,2023-03-10T14:07:19.467320,6317644,1234,498,1340,-1006,-663,-256,122,152,-68
8532,1852,0,2023-03-10T14:07:19.472325,6317649,1234,498,1340,-1006,-663,-256,122,152,-68
8533,1853,0,2023-03-10T14:07:19.476943,6317654,1234,498,1340,-1006,-663,-256,122,152,-68
8534,1854,0,2023-03-10T14:07:19.481426,6317659,1251,511,1355,-1027,-602,-265,122,152,-68
8535,1855,0,2023-03-10T14:07:19.486616,6317663,1251,511,1355,-1027,-602,-265,122,152,-68
8536,1856,0,2023-03-10T14:07:19.491468,6317668,1251,511,1355,-1027,-602,-265,122,152,-68
8537,1857,0,2023-03-10T14:07:19.496181,6317673,1251,511,1355,-1027,-602,-265,122,152,-68
8538,1858,0,2023-03-10T14:07:19.500754,6317677,1251,511,1355,-1027,-602,-265,122,152,-68
8539,1859,0,2023-03-10T14:07:19.505253,6317682,1230,498,1341,-1025,-660,-256,131,149,-71
8540,1860,0,2023-03-10T14:07:19.510152,6317687,1230,498,1341,-1025,-660,-256,131,149,-71
8541,1861,0,2023-03-10T14:07:19.514590,6317691,1230,498,1341,-1025,-660,-256,131,149,-71
8542,1862,0,2023-03-10T14:07:19.519280,6317696,1230,498,1341,-1025,-660,-256,131,149,-71
8543,1863,0,2023-03-10T14:07:19.523971,6317701,1244,509,1357,-1034,-613,-274,131,149,-71
8544,1864,0,2023-03-10T14:07:19.530204,6317706,1244,509,1357,-1034,-613,-274,131,149,-71
8545,1865,0,2023-03-10T14:07:19.534864,6317711,1244,509,1357,-1034,-613,-274,131,149,-71
8546,1866,0,2023-03-10T14:07:19.539389,6317716,1244,509,1357,-1034,-613,-274,131,149,-71
8547,1867,0,2023-03-10T14:07:19.543735,6317720,1234,495,1344,-996,-635,-219,131,149,-71
8548,1868,0,2023-03-10T14:07:19.550224,6317726,1234,495,1344,-996,-635,-219,131,149,-71
8549,1869,0,2023-03-10T14:07:19.555250,6317731,1234,495,1344,-996,-635,-219,131,149,-71
8550,1870,0,2023-03-10T14:07:19.560160,6317736,1234,495,1344,-996,-635,-219,131,149,-71
8551,1871,0,2023-03-10T14:07:19.564715,6317742,1232,494,1341,-1016,-627,-255,131,149,-71
8552,1872,0,2023-03-10T14:07:19.570804,6317748,1232,494,1341,-1016,-627,-255,131,149,-71
8553,1873,0,2023-03-10T14:07:19.575404,6317752,1232,494,1341,-1016,-627,-255,131,149,-71
8554,1874,0,2023-03-10T14:07:19.580073,6317757,1232,494,1341,-1016,-627,-255,131,149,-71
8555,1875,0,2023-03-10T14:07:19.584515,6317761,1246,504,1350,-1039,-634,-282,131,149,-71
8556,1876,0,2023-03-10T14:07:19.589799,6317766,1246,504,1350,-1039,-634,-282,131,149,-71
8557,1877,0,2023-03-10T14:07:19.594258,6317771,1246,504,1350,-1039,-634,-282,131,149,-71
8558,1878,0,2023-03-10T14:07:19.599012,6317775,1246,504,1350,-1039,-634,-282,131,149,-71
8559,1879,0,2023-03-10T14:07:19.603999,6317780,1249,505,1352,-1000,-649,-255,131,149,-71
8560,1880,0,2023-03-10T14:07:19.609758,6317787,1249,505,1352,-1000,-649,-255,131,149,-71
8561,1881,0,2023-03-10T14:07:19.614707,6317791,1249,505,1352,-1000,-649,-255,131,149,-71
8562,1882,0,2023-03-10T14:07:19.619852,6317796,1249,505,1352,-1000,-649,-255,131,149,-71
8563,1883,0,2023-03-10T14:07:19.624675,6317801,1230,495,1340,-1047,-614,-274,131,149,-71
8564,1884,0,2023-03-10T14:07:19.630868,6317807,1230,495,1340,-1047,-614,-274,131,149,-71
