,Unnamed: 0,imu,server_time,arduino_time,ax,ay,az,gx,gy,gz,mx,my,mz
28000,8894,0,2023-03-01T18:52:21.035048,1730560,1377,1895,-148,-1398,-583,-441,-35,133,-199
28001,8895,0,2023-03-01T18:52:21.041345,1730566,1377,1895,-148,-1398,-583,-441,-35,133,-199
28002,8896,0,2023-03-01T18:52:21.046164,1730571,1336,1820,-142,-1234,-700,-324,-35,133,-199
28003,8897,0,2023-03-01T18:52:21.051665,1730576,1336,1820,-142,-1234,-700,-324,-35,133,-199
28004,8898,0,2023-03-01T18:52:21.056465,1730581,1336,1820,-142,-1234,-700,-324,-35,133,-199
28005,8899,0,2023-03-01T18:52:21.061928,1730586,1336,1820,-142,-1234,-700,-324,-35,133,-199
28006,8900,0,2023-03-01T18:52:21.067195,1730591,1339,1825,-134,-1215,-670,-371,-35,133,-199
28007,8901,0,2023-03-01T18:52:21.073649,1730597,1339,1825,-134,-1215,-670,-371,-35,133,-199
28008,8902,0,2023-03-01T18:52:21.079880,1730604,1339,1825,-134,-1215,-670,-371,-35,133,-199
28009,8903,0,2023-03-01T18:52:21.085320,1730609,1361,1863,-128,-1282,-641,-387,-35,133,-199
28010,8904,0,2023-03-01T18:52:21.090942,1730615,1361,1863,-128,-1282,-641,-387,-35,133,-199
28011,8905,0,2023-03-01T18:52:21.096490,1730620,1361,1863,-128,-1282,-641,-387,-35,133,-199
28012,8906,0,2023-03-01T18:52:21.101590,1730626,1361,1863,-128,-1282,-641,-387,-35,133,-199
28013,8907,0,2023-03-01T18:52:21.106659,1730631,1340,1827,-134,-1273,-671,-352,-31,137,-199
28014,8908,0,2023-03-01T18:52:21.112096,1730636,1340,1827,-134,-1273,-671,-352,-31,137,-199
28015,8909,0,2023-03-01T18:52:21.117090,1730641,1340,1827,-134,-1273,-671,-352,-31,137,-199
28016,8910,0,2023-03-01T18:52:21.123219,1730648,1340,1827,-134,-1273,-671,-352,-31,137,-199
28017,8911,0,2023-03-01T18:52:21.129478,1730653,1348,1853,-123,-1279,-637,-393,-31,137,-199
28018,8912,0,2023-03-01T18:52:21.135081,1730659,1348,1853,-123,-1279,-637,-393,-31,137,-199
28019,8913,0,2023-03-01T18:52:21.141262,1730666,1348,1853,-123,-1279,-637,-393,-31,137,-199
28020,8914,0,2023-03-01T18:52:21.145988,1730670,1362,1858,-141,-1295,-658,-382,-31,137,-199
28021,8915,0,2023-03-01T18:52:21.151718,1730675,1362,1858,-141,-1295,-658,-382,-31,137,-199
28022,8916,0,2023-03-01T18:52:21.156590,1730681,1362,1858,-141,-1295,-658,-382,-31,137,-199
28023,8917,0,2023-03-01T18:52:21.163088,1730688,1362,1858,-141,-1295,-658,-382,-31,137,-199
28024,8918,0,2023-03-01T18:52:21.167806,1730692,1325,1820,-110,-1271,-653,-361,-31,137,-199
28025,8919,0,2023-03-01T18:52:21.173205,1730698,1325,1820,-110,-1271,-653,-361,-31,137,-199
28026,8920,0,2023-03-01T18:52:21.178508,1730703,1325,1820,-110,-1271,-653,-361,-31,137,-199
28027,8921,0,2023-03-01T18:52:21.184994,1730709,1369,1867,-152,-1303,-661,-404,-31,137,-199
28028,8922,0,2023-03-01T18:52:21.190572,1730715,1369,1867,-152,-1303,-661,-404,-31,137,-199
28029,8923,0,2023-03-01T18:52:21.195242,1730719,1369,1867,-152,-1303,-661,-404,-31,137,-199
28030,8924,0,2023-03-01T18:52:21.201446,1730725,1369,1867,-152,-1303,-661,-404,-31,137,-199
28031,8925,0,2023-03-01T18:52:21.206650,1730731,1327,1813,-114,-1268,-660,-351,-31,137,-199
28032,8926,0,2023-03-01T18:52:21.213041,1730738,1327,1813,-114,-1268,-660,-351,-31,137,-199
28033,8927,0,2023-03-01T18:52:21.217990,1730742,1327,1813,-114,-1268,-660,-351,-31,137,-199
28034,8928,0,2023-03-01T18:52:21.223517,1730748,1363,1875,-138,-1288,-659,-402,-31,137,-199
28035,8929,0,2023-03-01T18:52:21.229536,1730753,1363,1875,-138,-1288,-659,-402,-35,137,-197
28036,8930,0,2023-03-01T18:52:21.234713,1730758,1363,1875,-138,-1288,-659,-402,-35,137,-197
28037,8931,0,2023-03-01T18:52:21.241832,1730765,1363,1875,-138,-1288,-659,-402,-35,137,-197
28038,8932,0,2023-03-01T18:52:21.247005,1730771,1341,1833,-120,-1277,-644,-363,-35,137,-197
28039,8933,0,2023-03-01T18:52:21.252446,1730777,1341,1833,-120,-1277,-644,-363,-35,137,-197
28040,8934,0,2023-03-01T18:52:21.257548,1730782,1341,1833,-120,-1277,-644,-363,-35,137,-197
28041,8935,0,2023-03-01T18:52:21.263749,1730788,1339,1833,-120,-1278,-640,-377,-35,137,-197
28042,8936,0,2023-03-01T18:52:21.269317,1730793,1339,1833,-120,-1278,-640,-377,-35,137,-197
28043,8937,0,2023-03-01T18:52:21.273978,1730798,1339,1833,-120,-1278,-640,-377,-35,137,-197
28044,8938,0,2023-03-01T18:52:21.279359,1730804,1339,1833,-120,-1278,-640,-377,-35,137,-197
28045,8939,0,2023-03-01T18:52:21.284062,1730808,1357,1862,-134,-1283,-649,-376,-35,137,-197
28046,8940,0,2023-03-01T18:52:21.290242,1730814,1357,1862,-134,-1283,-649,-376,-35,137,-197
28047,8941,0,2023-03-01T18:52:21.295464,1730820,1357,1862,-134,-1283,-649,-376,-35,137,-197
28048,8942,0,2023-03-01T18:52:21.302161,1730826,1357,1862,-134,-1283,-649,-376,-35,137,-197
28049,8943,0,2023-03-01T18:52:21.306845,1730831,1337,1833,-112,-1305,-617,-373,-35,137,-197
28050,8944,0,2023-03-01T18:52:21.312426,1730837,1337,1833,-112,-1305,-617,-373,-35,137,-197
28051,8945,0,2023-03-01T18:52:21.317258,1730841,1337,1833,-112,-1305,-617,-373,-35,137,-197
28052,8946,0,2023-03-01T18:52:21.321964,1730846,1337,1833,-112,-1305,-617,-373,-35,137,-197
28053,8947,0,2023-03-01T18:52:21.326566,1730851,1353,1848,-134,-1295,-657,-386,-35,137,-197
28054,8948,0,2023-03-01T18:52:21.332418,1730856,1353,1848,-134,-1295,-657,-386,-35,137,-197
28055,8949,0,2023-03-01T18:52:21.337479,1730862,1353,1848,-134,-1295,-657,-386,-35,137,-197
28056,8950,0,2023-03-01T18:52:21.343491,1730868,1346,1845,-119,-1284,-642,-380,-35,137,-197
28057,8951,0,2023-03-01T18:52:21.348882,1730873,1346,1845,-119,-1284,-642,-380,-32,144,-204
28058,8952,0,2023-03-01T18:52:21.353782,1730878,1346,1845,-119,-1284,-642,-380,-32,144,-204
28059,8953,0,2023-03-01T18:52:21.359490,1730884,1346,1845,-119,-1284,-642,-380,-32,144,-204
28060,8954,0,2023-03-01T18:52:21.364473,1730889,1345,1840,-123,-1280,-658,-385,-32,144,-204
28061,8955,0,2023-03-01T18:52:21.369937,1730894,1345,1840,-123,-1280,-658,-385,-32,144,-204
28062,8956,0,2023-03-01T18:52:21.374637,1730898,1345,1840,-123,-1280,-658,-385,-32,144,-204
28063,8957,0,2023-03-01T18:52:21.380810,1730905,1345,1840,-123,-1280,-658,-385,-32,144,-204
28064,8958,0,2023-03-01T18:52:21.385559,1730910,1347,1846,-120,-1278,-656,-388,-32,144,-204
28065,8959,0,2023-03-01T18:52:21.391169,1730916,1347,1846,-120,-1278,-656,-388,-32,144,-204
28066,8960,0,2023-03-01T18:52:21.395709,1730920,1347,1846,-120,-1278,-656,-388,-32,144,-204
28067,8961,0,2023-03-01T18:52:21.402839,1730927,1347,1846,-120,-1278,-656,-388,-32,144,-204
28068,8962,0,2023-03-01T18:52:21.408707,1730932,1345,1844,-116,-1283,-653,-384,-32,144,-204
28069,8963,0,2023-03-01T18:52:21.414180,1730938,1345,1844,-116,-1283,-653,-384,-32,144,-204
28070,8964,0,2023-03-01T18:52:21.419987,1730945,1345,1844,-116,-1283,-653,-384,-32,144,-204
28071,8965,0,2023-03-01T18:52:21.424960,1730949,1349,1844,-118,-1288,-647,-377,-32,144,-204
28072,8966,0,2023-03-01T18:52:21.430424,1730955,1349,1844,-118,-1288,-647,-377,-32,144,-204
28073,8967,0,2023-03-01T18:52:21.435220,1730960,1349,1844,-118,-1288,-647,-377,-32,144,-204
28074,8968,0,2023-03-01T18:52:21.442456,1730966,1349,1844,-118,-1288,-647,-377,-32,144,-204
28075,8969,0,2023-03-01T18:52:21.447304,1730971,1344,1843,-114,-1285,-641,-387,-32,144,-204
28076,8970,0,2023-03-01T18:52:21.452698,1730977,1344,1843,-114,-1285,-641,-387,-32,144,-204
28077,8971,0,2023-03-01T18:52:21.457472,1730981,1344,1843,-114,-1285,-641,-387,-32,144,-204
28078,8972,0,2023-03-01T18:52:21.463230,1730988,1344,1843,-114,-1285,-641,-387,-32,144,-204
28079,8973,0,2023-03-01T18:52:21.468280,1730993,1345,1839,-119,-1274,-656,-377,-32,144,-204
28080,8974,0,2023-03-01T18:52:21.474382,1730999,1345,1839,-119,-1274,-656,-377,-32,144,-204
28081,8975,0,2023-03-01T18:52:21.480300,1731005,1345,1839,-119,-1274,-656,-377,-32,144,-204
28082,8976,0,2023-03-01T18:52:21.484927,1731009,1342,1846,-114,-1284,-652,-380,-34,134,-200
28083,8977,0,2023-03-01T18:52:21.489868,1731014,1342,1846,-114,-1284,-652,-380,-34,134,-200
28084,8978,0,2023-03-01T18:52:21.494653,1731019,1342,1846,-114,-1284,-652,-380,-34,134,-200
28085,8979,0,2023-03-01T18:52:21.500706,1731025,1342,1846,-114,-1284,-652,-380,-34,134,-200
28086,8980,0,2023-03-01T18:52:21.505614,1731030,1346,1843,-113,-1293,-651,-378,-34,134,-200
28087,8981,0,2023-03-01T18:52:21.511203,1731036,1346,1843,-113,-1293,-651,-378,-34,134,-200
28088,8982,0,2023-03-01T18:52:21.516141,1731041,1346,1843,-113,-1293,-651,-378,-34,134,-200
28089,8983,0,2023-03-01T18:52:21.521895,1731046,1346,1843,-113,-1293,-651,-378,-34,134,-200
28090,8984,0,2023-03-01T18:52:21.526734,1731051,1346,1848,-114,-1288,-644,-383,-34,134,-200
28091,8985,0,2023-03-01T18:52:21.531866,1731056,1346,1848,-114,-1288,-644,-383,-34,134,-200
28092,8986,0,2023-03-01T18:52:21.536917,1731061,1346,1848,-114,-1288,-644,-383,-34,134,-200
28093,8987,0,2023-03-01T18:52:21.542973,1731067,1346,1848,-114,-1288,-644,-383,-34,134,-200
28094,8988,0,2023-03-01T18:52:21.548058,1731073,1342,1848,-113,-1287,-654,-382,-34,134,-200
28095,8989,0,2023-03-01T18:52:21.553509,1731078,1342,1848,-113,-1287,-654,-382,-34,134,-200
28096,8990,0,2023-03-01T18:52:21.559389,1731084,1342,1848,-113,-1287,-654,-382,-34,134,-200
28097,8991,0,2023-03-01T18:52:21.564248,1731089,1345,1847,-112,-1285,-650,-380,-34,134,-200
28098,8992,0,2023-03-01T18:52:21.570117,1731094,1345,1847,-112,-1285,-650,-380,-34,134,-200
28099,8993,0,2023-03-01T18:52:21.574893,1731099,1345,1847,-112,-1285,-650,-380,-34,134,-200
28100,8994,0,2023-03-01T18:52:21.580240,1731104,1345,1847,-112,-1285,-650,-380,-34,134,-200
28101,8995,0,2023-03-01T18:52:21.585028,1731109,1342,1845,-115,-1283,-640,-384,-34,134,-200
28102,8996,0,2023-03-01T18:52:21.591053,1731116,1342,1845,-115,-1283,-640,-384,-34,134,-200
28103,8997,0,2023-03-01T18:52:21.595762,1731120,1342,1845,-115,-1283,-640,-384,-34,134,-200
28104,8998,0,2023-03-01T18:52:21.600782,1731125,1342,1845,-115,-1283,-640,-384,-34,134,-200
28105,8999,0,2023-03-01T18:52:21.605905,1731130,1343,1845,-109,-1281,-644,-383,-39,135,-197
28106,9000,0,2023-03-01T18:52:21.611160,1731135,1343,1845,-109,-1281,-644,-383,-39,135,-197
28107,9001,0,2023-03-01T18:52:21.616048,1731140,1343,1845,-109,-1281,-644,-383,-39,135,-197
28108,9002,0,2023-03-01T18:52:21.623546,1731147,1343,1845,-109,-1281,-644,-383,-39,135,-197
28109,9003,0,2023-03-01T18:52:21.628591,1731152,1344,1844,-102,-1277,-635,-385,-39,135,-197
28110,9004,0,2023-03-01T18:52:21.634364,1731159,1344,1844,-102,-1277,-635,-385,-39,135,-197
28111,9005,0,2023-03-01T18:52:21.640445,1731165,1344,1844,-102,-1277,-635,-385,-39,135,-197
28112,9006,0,2023-03-01T18:52:21.645221,1731170,1341,1846,-107,-1277,-644,-381,-39,135,-197
28113,9007,0,2023-03-01T18:52:21.650816,1731175,1341,1846,-107,-1277,-644,-381,-39,135,-197
28114,9008,0,2023-03-01T18:52:21.655892,1731180,1341,1846,-107,-1277,-644,-381,-39,135,-197
28115,9009,0,2023-03-01T18:52:21.662526,1731186,1341,1846,-107,-1277,-644,-381,-39,135,-197
28116,9010,0,2023-03-01T18:52:21.667564,1731191,1342,1847,-110,-1278,-641,-393,-39,135,-197
28117,9011,0,2023-03-01T18:52:21.672858,1731197,1342,1847,-110,-1278,-641,-393,-39,135,-197
28118,9012,0,2023-03-01T18:52:21.677954,1731202,1342,1847,-110,-1278,-641,-393,-39,135,-197
28119,9013,0,2023-03-01T18:52:21.684201,1731208,1345,1843,-109,-1290,-642,-378,-39,135,-197
28120,9014,0,2023-03-01T18:52:21.689882,1731214,1345,1843,-109,-1290,-642,-378,-39,135,-197
28121,9015,0,2023-03-01T18:52:21.694706,1731219,1345,1843,-109,-1290,-642,-378,-39,135,-197
28122,9016,0,2023-03-01T18:52:21.700833,1731225,1345,1843,-109,-1290,-642,-378,-39,135,-197
28123,9017,0,2023-03-01T18:52:21.705868,1731230,1345,1843,-111,-1284,-636,-377,-39,135,-197
28124,9018,0,2023-03-01T18:52:21.712187,1731236,1345,1843,-111,-1284,-636,-377,-39,135,-197
28125,9019,0,2023-03-01T18:52:21.717138,1731241,1345,1843,-111,-1284,-636,-377,-39,135,-197
28126,9020,0,2023-03-01T18:52:21.723421,1731248,1345,1843,-111,-1284,-636,-377,-39,135,-197
28127,9021,0,2023-03-01T18:52:21.728211,1731253,1343,1844,-103,-1284,-627,-384,-39,135,-197
28128,9022,0,2023-03-01T18:52:21.733927,1731258,1343,1844,-103,-1284,-627,-384,-39,135,-197
28129,9023,0,2023-03-01T18:52:21.740477,1731265,1343,1844,-103,-1284,-627,-384,-39,135,-197
28130,9024,0,2023-03-01T18:52:21.745365,1731269,1343,1844,-93,-1285,-624,-379,-32,142,-194
28131,9025,0,2023-03-01T18:52:21.750844,1731275,1343,1844,-93,-1285,-624,-379,-32,142,-194
28132,9026,0,2023-03-01T18:52:21.755750,1731280,1343,1844,-93,-1285,-624,-379,-32,142,-194
28133,9027,0,2023-03-01T18:52:21.762358,1731287,1343,1844,-93,-1285,-624,-379,-32,142,-194
28134,9028,0,2023-03-01T18:52:21.766989,1731291,1345,1846,-101,-1269,-630,-384,-32,142,-194
28135,9029,0,2023-03-01T18:52:21.772425,1731297,1345,1846,-101,-1269,-630,-384,-32,142,-194
28136,9030,0,2023-03-01T18:52:21.777523,1731302,1345,1846,-101,-1269,-630,-384,-32,142,-194
28137,9031,0,2023-03-01T18:52:21.783419,1731308,1345,1846,-101,-1269,-630,-384,-32,142,-194
28138,9032,0,2023-03-01T18:52:21.788523,1731313,1341,1845,-111,-1275,-627,-377,-32,142,-194
28139,9033,0,2023-03-01T18:52:21.793922,1731318,1341,1845,-111,-1275,-627,-377,-32,142,-194
28140,9034,0,2023-03-01T18:52:21.800294,1731324,1341,1845,-111,-1275,-627,-377,-32,142,-194
28141,9035,0,2023-03-01T18:52:21.805135,1731330,1340,1846,-101,-1271,-625,-382,-32,142,-194
28142,9036,0,2023-03-01T18:52:21.810467,1731335,1340,1846,-101,-1271,-625,-382,-32,142,-194
28143,9037,0,2023-03-01T18:52:21.815178,1731340,1340,1846,-101,-1271,-625,-382,-32,142,-194
28144,9038,0,2023-03-01T18:52:21.820789,1731345,1340,1846,-101,-1271,-625,-382,-32,142,-194
28145,9039,0,2023-03-01T18:52:21.826047,1731350,1342,1846,-109,-1278,-627,-385,-32,142,-194
28146,9040,0,2023-03-01T18:52:21.832026,1731356,1342,1846,-109,-1278,-627,-385,-32,142,-194
28147,9041,0,2023-03-01T18:52:21.836704,1731361,1342,1846,-109,-1278,-627,-385,-32,142,-194
28148,9042,0,2023-03-01T18:52:21.842644,1731366,1342,1846,-109,-1278,-627,-385,-32,142,-194
28149,9043,0,2023-03-01T18:52:21.849140,1731374,1342,1842,-108,-1271,-605,-373,-32,142,-194
28150,9044,0,2023-03-01T18:52:21.855274,1731379,1342,1842,-108,-1271,-605,-373,-32,142,-194
28151,9045,0,2023-03-01T18:52:21.861087,1731385,1342,1842,-108,-1271,-605,-373,-32,142,-194
28152,9046,0,2023-03-01T18:52:21.865688,1731390,1340,1850,-90,-1239,-532,-375,-21,137,-197
28153,9047,0,2023-03-01T18:52:21.870786,1731395,1340,1850,-90,-1239,-532,-375,-21,137,-197
28154,9048,0,2023-03-01T18:52:21.875409,1731400,1340,1850,-90,-1239,-532,-375,-21,137,-197
28155,9049,0,2023-03-01T18:52:21.881239,1731405,1340,1850,-90,-1239,-532,-375,-21,137,-197
28156,9050,0,2023-03-01T18:52:21.885948,1731410,1338,1847,-90,-1200,-500,-350,-21,137,-197
28157,9051,0,2023-03-01T18:52:21.891483,1731416,1338,1847,-90,-1200,-500,-350,-21,137,-197
28158,9052,0,2023-03-01T18:52:21.896043,1731421,1338,1847,-90,-1200,-500,-350,-21,137,-197
28159,9053,0,2023-03-01T18:52:21.901947,1731426,1338,1847,-90,-1200,-500,-350,-21,137,-197
28160,9054,0,2023-03-01T18:52:21.906972,1731431,1338,1845,-89,-1188,-488,-348,-21,137,-197
28161,9055,0,2023-03-01T18:52:21.912994,1731437,1338,1845,-89,-1188,-488,-348,-21,137,-197
28162,9056,0,2023-03-01T18:52:21.917950,1731442,1338,1845,-89,-1188,-488,-348,-21,137,-197
28163,9057,0,2023-03-01T18:52:21.923436,1731447,1338,1845,-89,-1188,-488,-348,-21,137,-197
28164,9058,0,2023-03-01T18:52:21.928669,1731452,1338,1843,-94,-1168,-483,-343,-21,137,-197
28165,9059,0,2023-03-01T18:52:21.934085,1731459,1338,1843,-94,-1168,-483,-343,-21,137,-197
28166,9060,0,2023-03-01T18:52:21.939023,1731464,1338,1843,-94,-1168,-483,-343,-21,137,-197
28167,9061,0,2023-03-01T18:52:21.944024,1731469,1338,1843,-94,-1168,-483,-343,-21,137,-197
28168,9062,0,2023-03-01T18:52:21.948591,1731473,1350,1853,-105,-1135,-509,-344,-21,137,-197
28169,9063,0,2023-03-01T18:52:21.954943,1731478,1350,1853,-105,-1135,-509,-344,-21,137,-197
28170,9064,0,2023-03-01T18:52:21.961114,1731485,1350,1853,-105,-1135,-509,-344,-21,137,-197
28171,9065,0,2023-03-01T18:52:21.965915,1731490,1338,1838,-106,-1071,-560,-322,-21,137,-197
28172,9066,0,2023-03-01T18:52:21.971433,1731495,1338,1838,-106,-1071,-560,-322,-21,137,-197
28173,9067,0,2023-03-01T18:52:21.976146,1731501,1338,1838,-106,-1071,-560,-322,-21,137,-197
28174,9068,0,2023-03-01T18:52:21.981832,1731506,1338,1838,-106,-1071,-560,-322,-21,137,-197
28175,9069,0,2023-03-01T18:52:21.986533,1731511,1340,1846,-95,-1054,-563,-340,-21,137,-197
28176,9070,0,2023-03-01T18:52:21.991901,1731516,1340,1846,-95,-1054,-563,-340,-21,137,-197
28177,9071,0,2023-03-01T18:52:21.996885,1731521,1340,1846,-95,-1054,-563,-340,-21,137,-197
28178,9072,0,2023-03-01T18:52:22.002990,1731527,1340,1846,-95,-1054,-563,-340,-21,137,-197
28179,9073,0,2023-03-01T18:52:22.007880,1731532,1340,1849,-91,-1061,-567,-331,-27,137,-201
28180,9074,0,2023-03-01T18:52:22.012923,1731537,1340,1849,-91,-1061,-567,-331,-27,137,-201
28181,9075,0,2023-03-01T18:52:22.017646,1731542,1340,1849,-91,-1061,-567,-331,-27,137,-201
28182,9076,0,2023-03-01T18:52:22.023401,1731548,1340,1849,-91,-1061,-567,-331,-27,137,-201
28183,9077,0,2023-03-01T18:52:22.028194,1731553,1334,1843,-94,-1049,-567,-319,-27,137,-201
28184,9078,0,2023-03-01T18:52:22.033894,1731558,1334,1843,-94,-1049,-567,-319,-27,137,-201
28185,9079,0,2023-03-01T18:52:22.039069,1731563,1334,1843,-94,-1049,-567,-319,-27,137,-201
28186,9080,0,2023-03-01T18:52:22.044001,1731568,1334,1843,-94,-1049,-567,-319,-27,137,-201
28187,9081,0,2023-03-01T18:52:22.049276,1731573,1339,1845,-90,-1037,-572,-319,-27,137,-201
28188,9082,0,2023-03-01T18:52:22.055004,1731579,1339,1845,-90,-1037,-572,-319,-27,137,-201
28189,9083,0,2023-03-01T18:52:22.061642,1731586,1339,1845,-90,-1037,-572,-319,-27,137,-201
28190,9084,0,2023-03-01T18:52:22.068143,1731593,1341,1842,-97,-1032,-576,-320,-27,137,-201
28191,9085,0,2023-03-01T18:52:22.073582,1731598,1341,1842,-97,-1032,-576,-320,-27,137,-201
28192,9086,0,2023-03-01T18:52:22.079214,1731603,1341,1842,-97,-1032,-576,-320,-27,137,-201
28193,9087,0,2023-03-01T18:52:22.085315,1731609,1342,1841,-99,-1027,-578,-326,-27,137,-201
28194,9088,0,2023-03-01T18:52:22.090803,1731615,1342,1841,-99,-1027,-578,-326,-27,137,-201
28195,9089,0,2023-03-01T18:52:22.095576,1731619,1342,1841,-99,-1027,-578,-326,-27,137,-201
28196,9090,0,2023-03-01T18:52:22.101344,1731625,1342,1841,-99,-1027,-578,-326,-27,137,-201
28197,9091,0,2023-03-01T18:52:22.106670,1731631,1344,1845,-92,-1038,-581,-328,-27,137,-201
28198,9092,0,2023-03-01T18:52:22.112403,1731637,1344,1845,-92,-1038,-581,-328,-27,137,-201
28199,9093,0,2023-03-01T18:52:22.117559,1731642,1344,1845,-92,-1038,-581,-328,-27,137,-201
28200,9094,0,2023-03-01T18:52:22.123238,1731648,1344,1845,-92,-1038,-581,-328,-27,137,-201
28201,9095,0,2023-03-01T18:52:22.128166,1731652,1342,1844,-92,-1062,-641,-344,-29,149,-201
28202,9096,0,2023-03-01T18:52:22.133799,1731658,1342,1844,-92,-1062,-641,-344,-29,149,-201
28203,9097,0,2023-03-01T18:52:22.139630,1731663,1342,1844,-92,-1062,-641,-344,-29,149,-201
28204,9098,0,2023-03-01T18:52:22.145220,1731668,1345,1840,-92,-1142,-745,-356,-29,149,-201
28205,9099,0,2023-03-01T18:52:22.150788,1731675,1345,1840,-92,-1142,-745,-356,-29,149,-201
28206,9100,0,2023-03-01T18:52:22.155961,1731680,1345,1840,-92,-1142,-745,-356,-29,149,-201
28207,9101,0,2023-03-01T18:52:22.161896,1731686,1345,1840,-92,-1142,-745,-356,-29,149,-201
28208,9102,0,2023-03-01T18:52:22.166734,1731691,1346,1843,-105,-1172,-786,-362,-29,149,-201
28209,9103,0,2023-03-01T18:52:22.172371,1731696,1346,1843,-105,-1172,-786,-362,-29,149,-201
28210,9104,0,2023-03-01T18:52:22.177198,1731701,1346,1843,-105,-1172,-786,-362,-29,149,-201
28211,9105,0,2023-03-01T18:52:22.183639,1731707,1346,1843,-105,-1172,-786,-362,-29,149,-201
28212,9106,0,2023-03-01T18:52:22.188273,1731713,1340,1846,-96,-1182,-754,-383,-29,149,-201
28213,9107,0,2023-03-01T18:52:22.193625,1731718,1340,1846,-96,-1182,-754,-383,-29,149,-201
28214,9108,0,2023-03-01T18:52:22.198351,1731723,1340,1846,-96,-1182,-754,-383,-29,149,-201
28215,9109,0,2023-03-01T18:52:22.203298,1731727,1340,1846,-96,-1182,-754,-383,-29,149,-201
28216,9110,0,2023-03-01T18:52:22.208123,1731732,1337,1842,-89,-1179,-750,-363,-29,149,-201
28217,9111,0,2023-03-01T18:52:22.213641,1731738,1337,1842,-89,-1179,-750,-363,-29,149,-201
28218,9112,0,2023-03-01T18:52:22.219550,1731744,1337,1842,-89,-1179,-750,-363,-29,149,-201
28219,9113,0,2023-03-01T18:52:22.224948,1731749,1336,1850,-81,-1153,-736,-360,-29,149,-201
28220,9114,0,2023-03-01T18:52:22.230855,1731756,1336,1850,-81,-1153,-736,-360,-29,149,-201
28221,9115,0,2023-03-01T18:52:22.235821,1731761,1336,1850,-81,-1153,-736,-360,-29,149,-201
28222,9116,0,2023-03-01T18:52:22.241742,1731766,1336,1850,-81,-1153,-736,-360,-29,149,-201
28223,9117,0,2023-03-01T18:52:22.246811,1731771,1335,1837,-88,-1148,-721,-352,-33,141,-197
28224,9118,0,2023-03-01T18:52:22.252525,1731777,1335,1837,-88,-1148,-721,-352,-33,141,-197
28225,9119,0,2023-03-01T18:52:22.258023,1731782,1335,1837,-88,-1148,-721,-352,-33,141,-197
28226,9120,0,2023-03-01T18:52:22.263802,1731788,1335,1837,-88,-1148,-721,-352,-33,141,-197
28227,9121,0,2023-03-01T18:52:22.268740,1731793,1342,1842,-93,-1242,-636,-373,-33,141,-197
28228,9122,0,2023-03-01T18:52:22.273902,1731799,1342,1842,-93,-1242,-636,-373,-33,141,-197
28229,9123,0,2023-03-01T18:52:22.278762,1731804,1342,1842,-93,-1242,-636,-373,-33,141,-197
28230,9124,0,2023-03-01T18:52:22.284005,1731808,1342,1842,-93,-1242,-636,-373,-33,141,-197
28231,9125,0,2023-03-01T18:52:22.288949,1731813,1343,1838,-102,-1276,-618,-374,-33,141,-197
28232,9126,0,2023-03-01T18:52:22.294879,1731819,1343,1838,-102,-1276,-618,-374,-33,141,-197
28233,9127,0,2023-03-01T18:52:22.300525,1731825,1343,1838,-102,-1276,-618,-374,-33,141,-197
28234,9128,0,2023-03-01T18:52:22.305215,1731829,1346,1844,-104,-1288,-608,-388,-33,141,-197
28235,9129,0,2023-03-01T18:52:22.311028,1731835,1346,1844,-104,-1288,-608,-388,-33,141,-197
28236,9130,0,2023-03-01T18:52:22.315722,1731841,1346,1844,-104,-1288,-608,-388,-33,141,-197
28237,9131,0,2023-03-01T18:52:22.321662,1731846,1346,1844,-104,-1288,-608,-388,-33,141,-197
28238,9132,0,2023-03-01T18:52:22.327070,1731851,1343,1844,-95,-1304,-620,-398,-33,141,-197
28239,9133,0,2023-03-01T18:52:22.332700,1731857,1343,1844,-95,-1304,-620,-398,-33,141,-197
28240,9134,0,2023-03-01T18:52:22.337966,1731862,1343,1844,-95,-1304,-620,-398,-33,141,-197
28241,9135,0,2023-03-01T18:52:22.343963,1731868,1343,1844,-95,-1304,-620,-398,-33,141,-197
28242,9136,0,2023-03-01T18:52:22.349177,1731873,1337,1844,-93,-1309,-633,-400,-33,141,-197
28243,9137,0,2023-03-01T18:52:22.354413,1731878,1337,1844,-93,-1309,-633,-400,-33,141,-197
28244,9138,0,2023-03-01T18:52:22.359711,1731884,1337,1844,-93,-1309,-633,-400,-33,141,-197
28245,9139,0,2023-03-01T18:52:22.364576,1731889,1334,1842,-82,-1300,-635,-385,-33,141,-197
28246,9140,0,2023-03-01T18:52:22.370194,1731895,1334,1842,-82,-1300,-635,-385,-33,141,-197
28247,9141,0,2023-03-01T18:52:22.374925,1731899,1334,1842,-82,-1300,-635,-385,-33,141,-197
28248,9142,0,2023-03-01T18:52:22.380400,1731905,1334,1842,-82,-1300,-635,-385,-33,141,-197
28249,9143,0,2023-03-01T18:52:22.385415,1731909,1337,1843,-80,-1287,-636,-386,-25,141,-195
28250,9144,0,2023-03-01T18:52:22.390963,1731915,1337,1843,-80,-1287,-636,-386,-25,141,-195
28251,9145,0,2023-03-01T18:52:22.395493,1731920,1337,1843,-80,-1287,-636,-386,-25,141,-195
28252,9146,0,2023-03-01T18:52:22.402262,1731927,1337,1843,-80,-1287,-636,-386,-25,141,-195
28253,9147,0,2023-03-01T18:52:22.407322,1731932,1341,1841,-80,-1259,-623,-385,-25,141,-195
28254,9148,0,2023-03-01T18:52:22.412969,1731938,1341,1841,-80,-1259,-623,-385,-25,141,-195
28255,9149,0,2023-03-01T18:52:22.417944,1731942,1341,1841,-80,-1259,-623,-385,-25,141,-195
28256,9150,0,2023-03-01T18:52:22.423742,1731948,1341,1841,-80,-1259,-623,-385,-25,141,-195
28257,9151,0,2023-03-01T18:52:22.429106,1731953,1340,1842,-89,-1263,-626,-372,-25,141,-195
28258,9152,0,2023-03-01T18:52:22.434750,1731959,1340,1842,-89,-1263,-626,-372,-25,141,-195
28259,9153,0,2023-03-01T18:52:22.440553,1731964,1340,1842,-89,-1263,-626,-372,-25,141,-195
28260,9154,0,2023-03-01T18:52:22.445639,1731970,1338,1845,-92,-1277,-607,-386,-25,141,-195
28261,9155,0,2023-03-01T18:52:22.451387,1731976,1338,1845,-92,-1277,-607,-386,-25,141,-195
28262,9156,0,2023-03-01T18:52:22.456383,1731981,1338,1845,-92,-1277,-607,-386,-25,141,-195
28263,9157,0,2023-03-01T18:52:22.461034,1731985,1338,1845,-92,-1277,-607,-386,-25,141,-195
28264,9158,0,2023-03-01T18:52:22.466108,1731990,1336,1844,-87,-1292,-601,-390,-25,141,-195
28265,9159,0,2023-03-01T18:52:22.472279,1731997,1336,1844,-87,-1292,-601,-390,-25,141,-195
28266,9160,0,2023-03-01T18:52:22.477006,1732001,1336,1844,-87,-1292,-601,-390,-25,141,-195
28267,9161,0,2023-03-01T18:52:22.482927,1732007,1336,1844,-87,-1292,-601,-390,-25,141,-195
28268,9162,0,2023-03-01T18:52:22.488141,1732013,1336,1846,-84,-1319,-602,-394,-25,141,-195
28269,9163,0,2023-03-01T18:52:22.493785,1732018,1336,1846,-84,-1319,-602,-394,-25,141,-195
28270,9164,0,2023-03-01T18:52:22.499859,1732024,1336,1846,-84,-1319,-602,-394,-25,141,-195
28271,9165,0,2023-03-01T18:52:22.504921,1732029,1336,1846,-84,-1319,-602,-394,-25,141,-195
28272,9166,0,2023-03-01T18:52:22.509955,1732034,1332,1843,-75,-1305,-620,-391,-34,142,-188
28273,9167,0,2023-03-01T18:52:22.515246,1732039,1332,1843,-75,-1305,-620,-391,-34,142,-188
28274,9168,0,2023-03-01T18:52:22.520367,1732044,1332,1843,-75,-1305,-620,-391,-34,142,-188
28275,9169,0,2023-03-01T18:52:22.525073,1732049,1336,1845,-75,-1300,-620,-392,-34,142,-188
28276,9170,0,2023-03-01T18:52:22.530740,1732055,1336,1845,-75,-1300,-620,-392,-34,142,-188
28277,9171,0,2023-03-01T18:52:22.535411,1732060,1336,1845,-75,-1300,-620,-392,-34,142,-188
28278,9172,0,2023-03-01T18:52:22.540948,1732066,1336,1845,-75,-1300,-620,-392,-34,142,-188
28279,9173,0,2023-03-01T18:52:22.545735,1732070,1337,1842,-69,-1280,-614,-380,-34,142,-188
28280,9174,0,2023-03-01T18:52:22.551062,1732075,1337,1842,-69,-1280,-614,-380,-34,142,-188
28281,9175,0,2023-03-01T18:52:22.555792,1732080,1337,1842,-69,-1280,-614,-380,-34,142,-188
28282,9176,0,2023-03-01T18:52:22.561587,1732086,1337,1842,-69,-1280,-614,-380,-34,142,-188
28283,9177,0,2023-03-01T18:52:22.566423,1732090,1339,1844,-77,-1281,-618,-383,-34,142,-188
28284,9178,0,2023-03-01T18:52:22.572147,1732097,1339,1844,-77,-1281,-618,-383,-34,142,-188
28285,9179,0,2023-03-01T18:52:22.577064,1732102,1339,1844,-77,-1281,-618,-383,-34,142,-188
28286,9180,0,2023-03-01T18:52:22.582978,1732107,1339,1844,-77,-1281,-618,-383,-34,142,-188
28287,9181,0,2023-03-01T18:52:22.588146,1732112,1337,1842,-78,-1267,-604,-394,-34,142,-188
28288,9182,0,2023-03-01T18:52:22.593627,1732118,1337,1842,-78,-1267,-604,-394,-34,142,-188
28289,9183,0,2023-03-01T18:52:22.598692,1732123,1337,1842,-78,-1267,-604,-394,-34,142,-188
28290,9184,0,2023-03-01T18:52:22.603979,1732128,1337,1842,-78,-1267,-604,-394,-34,142,-188
28291,9185,0,2023-03-01T18:52:22.608534,1732133,1334,1843,-90,-1272,-619,-387,-34,142,-188
28292,9186,0,2023-03-01T18:52:22.614848,1732139,1334,1843,-90,-1272,-619,-387,-34,142,-188
28293,9187,0,2023-03-01T18:52:22.620238,1732145,1334,1843,-90,-1272,-619,-387,-34,142,-188
28294,9188,0,2023-03-01T18:52:22.624752,1732149,1334,1843,-90,-1272,-619,-387,-34,142,-188
28295,9189,0,2023-03-01T18:52:22.629966,1732154,1335,1849,-64,-1283,-591,-389,-34,142,-188
28296,9190,0,2023-03-01T18:52:22.635457,1732160,1335,1849,-64,-1283,-591,-389,-34,142,-188
28297,9191,0,2023-03-01T18:52:22.640178,1732164,1335,1849,-64,-1283,-591,-389,-34,142,-188
28298,9192,0,2023-03-01T18:52:22.645406,1732169,1333,1840,-93,-1290,-624,-378,-26,148,-200
28299,9193,0,2023-03-01T18:52:22.651010,1732175,1333,1840,-93,-1290,-624,-378,-26,148,-200
28300,9194,0,2023-03-01T18:52:22.656007,1732180,1333,1840,-93,-1290,-624,-378,-26,148,-200
28301,9195,0,2023-03-01T18:52:22.662103,1732187,1333,1840,-93,-1290,-624,-378,-26,148,-200
28302,9196,0,2023-03-01T18:52:22.666963,1732191,1339,1847,-60,-1291,-610,-379,-26,148,-200
28303,9197,0,2023-03-01T18:52:22.672461,1732197,1339,1847,-60,-1291,-610,-379,-26,148,-200
28304,9198,0,2023-03-01T18:52:22.677460,1732202,1339,1847,-60,-1291,-610,-379,-26,148,-200
28305,9199,0,2023-03-01T18:52:22.684032,1732208,1339,1847,-60,-1291,-610,-379,-26,148,-200
28306,9200,0,2023-03-01T18:52:22.689290,1732213,1335,1838,-91,-1300,-629,-389,-26,148,-200
28307,9201,0,2023-03-01T18:52:22.695046,1732219,1335,1838,-91,-1300,-629,-389,-26,148,-200
28308,9202,0,2023-03-01T18:52:22.701236,1732226,1335,1838,-91,-1300,-629,-389,-26,148,-200
28309,9203,0,2023-03-01T18:52:22.706202,1732231,1337,1847,-61,-1263,-595,-387,-26,148,-200
28310,9204,0,2023-03-01T18:52:22.711638,1732236,1337,1847,-61,-1263,-595,-387,-26,148,-200
28311,9205,0,2023-03-01T18:52:22.716526,1732241,1337,1847,-61,-1263,-595,-387,-26,148,-200
28312,9206,0,2023-03-01T18:52:22.723371,1732247,1337,1847,-61,-1263,-595,-387,-26,148,-200
28313,9207,0,2023-03-01T18:52:22.728552,1732253,1334,1842,-96,-1288,-633,-393,-26,148,-200
28314,9208,0,2023-03-01T18:52:22.733904,1732258,1334,1842,-96,-1288,-633,-393,-26,148,-200
28315,9209,0,2023-03-01T18:52:22.740151,1732264,1334,1842,-96,-1288,-633,-393,-26,148,-200
28316,9210,0,2023-03-01T18:52:22.745213,1732270,1334,1853,-49,-1278,-571,-379,-26,148,-200
28317,9211,0,2023-03-01T18:52:22.750835,1732275,1334,1853,-49,-1278,-571,-379,-26,148,-200
28318,9212,0,2023-03-01T18:52:22.755786,1732280,1334,1853,-49,-1278,-571,-379,-26,148,-200
28319,9213,0,2023-03-01T18:52:22.760952,1732285,1334,1853,-49,-1278,-571,-379,-26,148,-200
28320,9214,0,2023-03-01T18:52:22.765786,1732290,1329,1841,-84,-1282,-649,-394,-30,136,-196
28321,9215,0,2023-03-01T18:52:22.771409,1732296,1329,1841,-84,-1282,-649,-394,-30,136,-196
28322,9216,0,2023-03-01T18:52:22.776815,1732301,1329,1841,-84,-1282,-649,-394,-30,136,-196
28323,9217,0,2023-03-01T18:52:22.782862,1732307,1329,1841,-84,-1282,-649,-394,-30,136,-196
28324,9218,0,2023-03-01T18:52:22.787876,1732312,1340,1852,-41,-1300,-563,-390,-30,136,-196
28325,9219,0,2023-03-01T18:52:22.794243,1732318,1340,1852,-41,-1300,-563,-390,-30,136,-196
28326,9220,0,2023-03-01T18:52:22.799417,1732324,1340,1852,-41,-1300,-563,-390,-30,136,-196
28327,9221,0,2023-03-01T18:52:22.805361,1732330,1329,1827,-92,-1276,-642,-367,-30,136,-196
28328,9222,0,2023-03-01T18:52:22.810645,1732335,1329,1827,-92,-1276,-642,-367,-30,136,-196
28329,9223,0,2023-03-01T18:52:22.815397,1732340,1329,1827,-92,-1276,-642,-367,-30,136,-196
28330,9224,0,2023-03-01T18:52:22.821314,1732345,1329,1827,-92,-1276,-642,-367,-30,136,-196
28331,9225,0,2023-03-01T18:52:22.826801,1732350,1337,1856,-37,-1308,-548,-401,-30,136,-196
28332,9226,0,2023-03-01T18:52:22.833012,1732358,1337,1856,-37,-1308,-548,-401,-30,136,-196
28333,9227,0,2023-03-01T18:52:22.839253,1732364,1337,1856,-37,-1308,-548,-401,-30,136,-196
28334,9228,0,2023-03-01T18:52:22.844945,1732369,1337,1856,-37,-1308,-548,-401,-30,136,-196
28335,9229,0,2023-03-01T18:52:22.849915,1732374,1332,1824,-101,-1292,-680,-379,-30,136,-196
28336,9230,0,2023-03-01T18:52:22.855344,1732379,1332,1824,-101,-1292,-680,-379,-30,136,-196
28337,9231,0,2023-03-01T18:52:22.861439,1732386,1332,1824,-101,-1292,-680,-379,-30,136,-196
28338,9232,0,2023-03-01T18:52:22.866217,1732390,1335,1855,-36,-1298,-539,-416,-30,136,-196
28339,9233,0,2023-03-01T18:52:22.871639,1732396,1335,1855,-36,-1298,-539,-416,-30,136,-196
28340,9234,0,2023-03-01T18:52:22.876182,1732401,1335,1855,-36,-1298,-539,-416,-30,136,-196
28341,9235,0,2023-03-01T18:52:22.882148,1732407,1335,1855,-36,-1298,-539,-416,-30,136,-196
28342,9236,0,2023-03-01T18:52:22.887538,1732412,1327,1831,-92,-1274,-666,-357,-30,136,-196
28343,9237,0,2023-03-01T18:52:22.893188,1732417,1327,1831,-92,-1274,-666,-357,-30,136,-196
28344,9238,0,2023-03-01T18:52:22.897768,1732422,1327,1831,-92,-1274,-666,-357,-30,136,-196
28345,9239,0,2023-03-01T18:52:22.903452,1732427,1327,1831,-92,-1274,-666,-357,-30,136,-196
28346,9240,0,2023-03-01T18:52:22.908553,1732432,1330,1859,-44,-1327,-565,-417,-28,144,-188
28347,9241,0,2023-03-01T18:52:22.914425,1732439,1330,1859,-44,-1327,-565,-417,-28,144,-188
28348,9242,0,2023-03-01T18:52:22.920585,1732445,1330,1859,-44,-1327,-565,-417,-28,144,-188
28349,9243,0,2023-03-01T18:52:22.925542,1732450,1330,1859,-44,-1327,-565,-417,-28,144,-188
28350,9244,0,2023-03-01T18:52:22.930539,1732455,1334,1833,-76,-1259,-639,-360,-28,144,-188
28351,9245,0,2023-03-01T18:52:22.935958,1732460,1334,1833,-76,-1259,-639,-360,-28,144,-188
28352,9246,0,2023-03-01T18:52:22.943134,1732467,1334,1833,-76,-1259,-639,-360,-28,144,-188
28353,9247,0,2023-03-01T18:52:22.948063,1732472,1332,1850,-43,-1297,-554,-399,-28,144,-188
28354,9248,0,2023-03-01T18:52:22.953371,1732477,1332,1850,-43,-1297,-554,-399,-28,144,-188
28355,9249,0,2023-03-01T18:52:22.958042,1732483,1332,1850,-43,-1297,-554,-399,-28,144,-188
28356,9250,0,2023-03-01T18:52:22.964241,1732489,1332,1850,-43,-1297,-554,-399,-28,144,-188
28357,9251,0,2023-03-01T18:52:22.969057,1732494,1337,1835,-71,-1280,-635,-365,-28,144,-188
28358,9252,0,2023-03-01T18:52:22.974922,1732499,1337,1835,-71,-1280,-635,-365,-28,144,-188
28359,9253,0,2023-03-01T18:52:22.980448,1732505,1337,1835,-71,-1280,-635,-365,-28,144,-188
28360,9254,0,2023-03-01T18:52:22.985492,1732509,1337,1835,-71,-1280,-635,-365,-28,144,-188
28361,9255,0,2023-03-01T18:52:22.990482,1732515,1332,1849,-48,-1295,-572,-401,-28,144,-188
28362,9256,0,2023-03-01T18:52:22.996153,1732520,1332,1849,-48,-1295,-572,-401,-28,144,-188
28363,9257,0,2023-03-01T18:52:23.002234,1732527,1332,1849,-48,-1295,-572,-401,-28,144,-188
28364,9258,0,2023-03-01T18:52:23.007048,1732532,1331,1839,-64,-1284,-615,-374,-28,144,-188
28365,9259,0,2023-03-01T18:52:23.012248,1732537,1331,1839,-64,-1284,-615,-374,-28,144,-188
28366,9260,0,2023-03-01T18:52:23.017240,1732542,1331,1839,-64,-1284,-615,-374,-28,144,-188
28367,9261,0,2023-03-01T18:52:23.023166,1732547,1331,1839,-64,-1284,-615,-374,-28,144,-188
28368,9262,0,2023-03-01T18:52:23.027721,1732552,1327,1848,-53,-1289,-586,-393,-27,143,-197
28369,9263,0,2023-03-01T18:52:23.033058,1732557,1327,1848,-53,-1289,-586,-393,-27,143,-197
28370,9264,0,2023-03-01T18:52:23.037925,1732562,1327,1848,-53,-1289,-586,-393,-27,143,-197
28371,9265,0,2023-03-01T18:52:23.043701,1732568,1327,1848,-53,-1289,-586,-393,-27,143,-197
28372,9266,0,2023-03-01T18:52:23.048358,1732573,1335,1842,-55,-1293,-597,-377,-27,143,-197
28373,9267,0,2023-03-01T18:52:23.054456,1732578,1335,1842,-55,-1293,-597,-377,-27,143,-197
28374,9268,0,2023-03-01T18:52:23.059424,1732584,1335,1842,-55,-1293,-597,-377,-27,143,-197
28375,9269,0,2023-03-01T18:52:23.065192,1732590,1335,1842,-55,-1293,-597,-377,-27,143,-197
28376,9270,0,2023-03-01T18:52:23.069796,1732594,1329,1839,-52,-1290,-591,-394,-27,143,-197
28377,9271,0,2023-03-01T18:52:23.075300,1732599,1329,1839,-52,-1290,-591,-394,-27,143,-197
28378,9272,0,2023-03-01T18:52:23.081515,1732605,1329,1839,-52,-1290,-591,-394,-27,143,-197
28379,9273,0,2023-03-01T18:52:23.086948,1732612,1332,1841,-62,-1297,-608,-374,-27,143,-197
28380,9274,0,2023-03-01T18:52:23.092550,1732617,1332,1841,-62,-1297,-608,-374,-27,143,-197
28381,9275,0,2023-03-01T18:52:23.097534,1732622,1332,1841,-62,-1297,-608,-374,-27,143,-197
28382,9276,0,2023-03-01T18:52:23.103461,1732628,1332,1841,-62,-1297,-608,-374,-27,143,-197
28383,9277,0,2023-03-01T18:52:23.108854,1732633,1329,1844,-43,-1277,-582,-381,-27,143,-197
28384,9278,0,2023-03-01T18:52:23.114646,1732639,1329,1844,-43,-1277,-582,-381,-27,143,-197
28385,9279,0,2023-03-01T18:52:23.121056,1732645,1329,1844,-43,-1277,-582,-381,-27,143,-197
28386,9280,0,2023-03-01T18:52:23.125924,1732651,1325,1840,-67,-1303,-617,-395,-27,143,-197
28387,9281,0,2023-03-01T18:52:23.131988,1732657,1325,1840,-67,-1303,-617,-395,-27,143,-197
28388,9282,0,2023-03-01T18:52:23.137082,1732662,1325,1840,-67,-1303,-617,-395,-27,143,-197
28389,9283,0,2023-03-01T18:52:23.143165,1732667,1325,1840,-67,-1303,-617,-395,-27,143,-197
28390,9284,0,2023-03-01T18:52:23.147865,1732672,1333,1841,-35,-1285,-589,-387,-23,139,-195
28391,9285,0,2023-03-01T18:52:23.153350,1732678,1333,1841,-35,-1285,-589,-387,-23,139,-195
28392,9286,0,2023-03-01T18:52:23.158403,1732682,1333,1841,-35,-1285,-589,-387,-23,139,-195
28393,9287,0,2023-03-01T18:52:23.164630,1732689,1333,1841,-35,-1285,-589,-387,-23,139,-195
28394,9288,0,2023-03-01T18:52:23.169382,1732694,1325,1838,-65,-1307,-625,-394,-23,139,-195
28395,9289,0,2023-03-01T18:52:23.174581,1732699,1325,1838,-65,-1307,-625,-394,-23,139,-195
28396,9290,0,2023-03-01T18:52:23.180565,1732705,1325,1838,-65,-1307,-625,-394,-23,139,-195
28397,9291,0,2023-03-01T18:52:23.185331,1732710,1325,1838,-65,-1307,-625,-394,-23,139,-195
28398,9292,0,2023-03-01T18:52:23.191422,1732715,1330,1845,-35,-1300,-579,-377,-23,139,-195
28399,9293,0,2023-03-01T18:52:23.197017,1732721,1330,1845,-35,-1300,-579,-377,-23,139,-195
28400,9294,0,2023-03-01T18:52:23.203400,1732727,1330,1845,-35,-1300,-579,-377,-23,139,-195
28401,9295,0,2023-03-01T18:52:23.208380,1732732,1324,1839,-51,-1292,-599,-385,-23,139,-195
28402,9296,0,2023-03-01T18:52:23.214051,1732739,1324,1839,-51,-1292,-599,-385,-23,139,-195
28403,9297,0,2023-03-01T18:52:23.219640,1732744,1324,1839,-51,-1292,-599,-385,-23,139,-195
28404,9298,0,2023-03-01T18:52:23.225334,1732750,1324,1839,-51,-1292,-599,-385,-23,139,-195
28405,9299,0,2023-03-01T18:52:23.230511,1732755,1324,1839,-51,-1292,-599,-385,-23,139,-195
28406,9300,0,2023-03-01T18:52:23.235309,1732760,1324,1839,-51,-1292,-599,-385,-23,139,-195
28407,9301,0,2023-03-01T18:52:23.240852,1732765,1324,1839,-51,-1292,-599,-385,-23,139,-195
28408,9302,0,2023-03-01T18:52:23.245938,1732770,1329,1842,-46,-1294,-602,-374,-23,139,-195
28409,9303,0,2023-03-01T18:52:23.251976,1732775,1329,1842,-46,-1294,-602,-374,-23,139,-195
28410,9304,0,2023-03-01T18:52:23.256922,1732782,1329,1842,-46,-1294,-602,-374,-23,139,-195
28411,9305,0,2023-03-01T18:52:23.262461,1732787,1329,1842,-46,-1294,-602,-374,-23,139,-195
28412,9306,0,2023-03-01T18:52:23.267505,1732792,1327,1837,-57,-1289,-604,-389,-23,139,-195
28413,9307,0,2023-03-01T18:52:23.273537,1732797,1327,1837,-57,-1289,-604,-389,-23,139,-195
28414,9308,0,2023-03-01T18:52:23.279099,1732803,1327,1837,-57,-1289,-604,-389,-23,139,-195
28415,9309,0,2023-03-01T18:52:23.285491,1732810,1327,1837,-57,-1289,-604,-389,-23,139,-195
28416,9310,0,2023-03-01T18:52:23.290416,1732814,1330,1841,-27,-1282,-563,-391,-25,145,-193
28417,9311,0,2023-03-01T18:52:23.295763,1732820,1330,1841,-27,-1282,-563,-391,-25,145,-193
28418,9312,0,2023-03-01T18:52:23.301846,1732826,1330,1841,-27,-1282,-563,-391,-25,145,-193
28419,9313,0,2023-03-01T18:52:23.307735,1732831,1325,1836,-60,-1298,-607,-390,-25,145,-193
28420,9314,0,2023-03-01T18:52:23.313911,1732838,1325,1836,-60,-1298,-607,-390,-25,145,-193
28421,9315,0,2023-03-01T18:52:23.318738,1732843,1325,1836,-60,-1298,-607,-390,-25,145,-193
28422,9316,0,2023-03-01T18:52:23.324603,1732849,1325,1836,-60,-1298,-607,-390,-25,145,-193
28423,9317,0,2023-03-01T18:52:23.329488,1732853,1329,1848,-28,-1290,-583,-383,-25,145,-193
28424,9318,0,2023-03-01T18:52:23.335333,1732859,1329,1848,-28,-1290,-583,-383,-25,145,-193
28425,9319,0,2023-03-01T18:52:23.341160,1732866,1329,1848,-28,-1290,-583,-383,-25,145,-193
28426,9320,0,2023-03-01T18:52:23.346177,1732871,1328,1839,-38,-1288,-601,-374,-25,145,-193
28427,9321,0,2023-03-01T18:52:23.352925,1732876,1328,1839,-38,-1288,-601,-374,-25,145,-193
28428,9322,0,2023-03-01T18:52:23.358039,1732882,1328,1839,-38,-1288,-601,-374,-25,145,-193
28429,9323,0,2023-03-01T18:52:23.364480,1732889,1328,1839,-38,-1288,-601,-374,-25,145,-193
28430,9324,0,2023-03-01T18:52:23.369450,1732894,1325,1842,-49,-1289,-602,-382,-25,145,-193
28431,9325,0,2023-03-01T18:52:23.374916,1732899,1325,1842,-49,-1289,-602,-382,-25,145,-193
28432,9326,0,2023-03-01T18:52:23.380869,1732905,1325,1842,-49,-1289,-602,-382,-25,145,-193
28433,9327,0,2023-03-01T18:52:23.385959,1732910,1325,1842,-49,-1289,-602,-382,-25,145,-193
28434,9328,0,2023-03-01T18:52:23.391174,1732916,1330,1845,-32,-1291,-582,-378,-25,145,-193
28435,9329,0,2023-03-01T18:52:23.396595,1732921,1330,1845,-32,-1291,-582,-378,-25,145,-193
28436,9330,0,2023-03-01T18:52:23.402836,1732927,1330,1845,-32,-1291,-582,-378,-25,145,-193
28437,9331,0,2023-03-01T18:52:23.407608,1732932,1324,1838,-37,-1279,-598,-382,-25,133,-197
28438,9332,0,2023-03-01T18:52:23.413127,1732937,1324,1838,-37,-1279,-598,-382,-25,133,-197
28439,9333,0,2023-03-01T18:52:23.418054,1732942,1324,1838,-37,-1279,-598,-382,-25,133,-197
28440,9334,0,2023-03-01T18:52:23.424107,1732948,1324,1838,-37,-1279,-598,-382,-25,133,-197
28441,9335,0,2023-03-01T18:52:23.429237,1732954,1326,1841,-38,-1293,-590,-399,-25,133,-197
28442,9336,0,2023-03-01T18:52:23.435303,1732959,1326,1841,-38,-1293,-590,-399,-25,133,-197
28443,9337,0,2023-03-01T18:52:23.441280,1732966,1326,1841,-38,-1293,-590,-399,-25,133,-197
28444,9338,0,2023-03-01T18:52:23.445904,1732970,1322,1843,-25,-1301,-598,-390,-25,133,-197
28445,9339,0,2023-03-01T18:52:23.451482,1732976,1322,1843,-25,-1301,-598,-390,-25,133,-197
28446,9340,0,2023-03-01T18:52:23.456512,1732981,1322,1843,-25,-1301,-598,-390,-25,133,-197
28447,9341,0,2023-03-01T18:52:23.462326,1732986,1322,1843,-25,-1301,-598,-390,-25,133,-197
28448,9342,0,2023-03-01T18:52:23.466974,1732992,1327,1836,-46,-1323,-616,-394,-25,133,-197
28449,9343,0,2023-03-01T18:52:23.472256,1732997,1327,1836,-46,-1323,-616,-394,-25,133,-197
28450,9344,0,2023-03-01T18:52:23.477022,1733002,1327,1836,-46,-1323,-616,-394,-25,133,-197
28451,9345,0,2023-03-01T18:52:23.483045,1733007,1327,1836,-46,-1323,-616,-394,-25,133,-197
28452,9346,0,2023-03-01T18:52:23.488230,1733012,1333,1845,-27,-1310,-585,-391,-25,133,-197
28453,9347,0,2023-03-01T18:52:23.494047,1733018,1333,1845,-27,-1310,-585,-391,-25,133,-197
28454,9348,0,2023-03-01T18:52:23.499605,1733024,1333,1845,-27,-1310,-585,-391,-25,133,-197
28455,9349,0,2023-03-01T18:52:23.504109,1733028,1333,1845,-27,-1310,-585,-391,-25,133,-197
28456,9350,0,2023-03-01T18:52:23.509087,1733033,1326,1838,-27,-1279,-597,-392,-25,133,-197
28457,9351,0,2023-03-01T18:52:23.514196,1733039,1326,1838,-27,-1279,-597,-392,-25,133,-197
28458,9352,0,2023-03-01T18:52:23.520660,1733044,1326,1838,-27,-1279,-597,-392,-25,133,-197
28459,9353,0,2023-03-01T18:52:23.525429,1733050,1326,1838,-27,-1279,-597,-392,-25,133,-197
28460,9354,0,2023-03-01T18:52:23.530311,1733055,1322,1843,-38,-1297,-598,-388,-25,133,-197
28461,9355,0,2023-03-01T18:52:23.534833,1733059,1322,1843,-38,-1297,-598,-388,-25,133,-197
28462,9356,0,2023-03-01T18:52:23.540594,1733065,1322,1843,-38,-1297,-598,-388,-25,133,-197
28463,9357,0,2023-03-01T18:52:23.545742,1733070,1322,1843,-38,-1297,-598,-388,-25,133,-197
28464,9358,0,2023-03-01T18:52:23.550596,1733075,1327,1842,-23,-1290,-588,-384,-28,144,-192
28465,9359,0,2023-03-01T18:52:23.558283,1733083,1327,1842,-23,-1290,-588,-384,-28,144,-192
28466,9360,0,2023-03-01T18:52:23.564595,1733089,1327,1842,-23,-1290,-588,-384,-28,144,-192
28467,9361,0,2023-03-01T18:52:23.569465,1733094,1320,1839,-42,-1295,-600,-389,-28,144,-192
28468,9362,0,2023-03-01T18:52:23.575355,1733099,1320,1839,-42,-1295,-600,-389,-28,144,-192
28469,9363,0,2023-03-01T18:52:23.581185,1733105,1320,1839,-42,-1295,-600,-389,-28,144,-192
28470,9364,0,2023-03-01T18:52:23.586958,1733111,1328,1841,-29,-1289,-599,-384,-28,144,-192
28471,9365,0,2023-03-01T18:52:23.591597,1733116,1328,1841,-29,-1289,-599,-384,-28,144,-192
28472,9366,0,2023-03-01T18:52:23.596302,1733121,1328,1841,-29,-1289,-599,-384,-28,144,-192
28473,9367,0,2023-03-01T18:52:23.601874,1733126,1328,1841,-29,-1289,-599,-384,-28,144,-192
28474,9368,0,2023-03-01T18:52:23.607177,1733132,1323,1841,-17,-1301,-599,-393,-28,144,-192
28475,9369,0,2023-03-01T18:52:23.612577,1733137,1323,1841,-17,-1301,-599,-393,-28,144,-192
28476,9370,0,2023-03-01T18:52:23.617808,1733142,1323,1841,-17,-1301,-599,-393,-28,144,-192
28477,9371,0,2023-03-01T18:52:23.623820,1733148,1323,1841,-17,-1301,-599,-393,-28,144,-192
28478,9372,0,2023-03-01T18:52:23.628830,1733153,1323,1834,-38,-1292,-606,-385,-28,144,-192
28479,9373,0,2023-03-01T18:52:23.633609,1733158,1323,1834,-38,-1292,-606,-385,-28,144,-192
28480,9374,0,2023-03-01T18:52:23.638714,1733163,1323,1834,-38,-1292,-606,-385,-28,144,-192
28481,9375,0,2023-03-01T18:52:23.645182,1733170,1323,1834,-38,-1292,-606,-385,-28,144,-192
28482,9376,0,2023-03-01T18:52:23.649951,1733174,1326,1840,-6,-1279,-583,-399,-28,144,-192
28483,9377,0,2023-03-01T18:52:23.654436,1733179,1326,1840,-6,-1279,-583,-399,-28,144,-192
28484,9378,0,2023-03-01T18:52:23.660066,1733184,1326,1840,-6,-1279,-583,-399,-28,144,-192
28485,9379,0,2023-03-01T18:52:23.665433,1733190,1326,1840,-6,-1279,-583,-399,-28,144,-192
28486,9380,0,2023-03-01T18:52:23.670198,1733194,1327,1840,-32,-1298,-615,-395,-18,144,-194
28487,9381,0,2023-03-01T18:52:23.675663,1733200,1327,1840,-32,-1298,-615,-395,-18,144,-194
28488,9382,0,2023-03-01T18:52:23.681314,1733206,1327,1840,-32,-1298,-615,-395,-18,144,-194
28489,9383,0,2023-03-01T18:52:23.686276,1733211,1327,1840,-32,-1298,-615,-395,-18,144,-194
28490,9384,0,2023-03-01T18:52:23.691291,1733216,1322,1842,-20,-1294,-589,-395,-18,144,-194
28491,9385,0,2023-03-01T18:52:23.697069,1733221,1322,1842,-20,-1294,-589,-395,-18,144,-194
28492,9386,0,2023-03-01T18:52:23.703458,1733228,1322,1842,-20,-1294,-589,-395,-18,144,-194
28493,9387,0,2023-03-01T18:52:23.708244,1733233,1321,1838,-19,-1297,-597,-387,-18,144,-194
28494,9388,0,2023-03-01T18:52:23.714068,1733238,1321,1838,-19,-1297,-597,-387,-18,144,-194
28495,9389,0,2023-03-01T18:52:23.719098,1733243,1321,1838,-19,-1297,-597,-387,-18,144,-194
28496,9390,0,2023-03-01T18:52:23.725669,1733250,1321,1838,-19,-1297,-597,-387,-18,144,-194
28497,9391,0,2023-03-01T18:52:23.731070,1733256,1322,1840,-18,-1305,-596,-386,-18,144,-194
28498,9392,0,2023-03-01T18:52:23.736456,1733261,1322,1840,-18,-1305,-596,-386,-18,144,-194
28499,9393,0,2023-03-01T18:52:23.743176,1733267,1322,1840,-18,-1305,-596,-386,-18,144,-194
28500,9394,0,2023-03-01T18:52:23.748382,1733272,1325,1841,-15,-1289,-597,-385,-18,144,-194
28501,9395,0,2023-03-01T18:52:23.753903,1733278,1325,1841,-15,-1289,-597,-385,-18,144,-194
28502,9396,0,2023-03-01T18:52:23.758822,1733283,1325,1841,-15,-1289,-597,-385,-18,144,-194
28503,9397,0,2023-03-01T18:52:23.764416,1733288,1325,1841,-15,-1289,-597,-385,-18,144,-194
28504,9398,0,2023-03-01T18:52:23.769434,1733294,1322,1842,-20,-1295,-599,-386,-18,144,-194
28505,9399,0,2023-03-01T18:52:23.775047,1733299,1322,1842,-20,-1295,-599,-386,-18,144,-194
28506,9400,0,2023-03-01T18:52:23.781992,1733306,1322,1842,-20,-1295,-599,-386,-18,144,-194
28507,9401,0,2023-03-01T18:52:23.787164,1733311,1322,1841,-21,-1293,-599,-386,-29,141,-191
28508,9402,0,2023-03-01T18:52:23.793142,1733317,1322,1841,-21,-1293,-599,-386,-29,141,-191
28509,9403,0,2023-03-01T18:52:23.797908,1733322,1322,1841,-21,-1293,-599,-386,-29,141,-191
28510,9404,0,2023-03-01T18:52:23.804006,1733328,1322,1841,-21,-1293,-599,-386,-29,141,-191
28511,9405,0,2023-03-01T18:52:23.808883,1733334,1319,1840,-7,-1296,-597,-384,-29,141,-191
28512,9406,0,2023-03-01T18:52:23.814518,1733339,1319,1840,-7,-1296,-597,-384,-29,141,-191
28513,9407,0,2023-03-01T18:52:23.820449,1733345,1319,1840,-7,-1296,-597,-384,-29,141,-191
28514,9408,0,2023-03-01T18:52:23.826860,1733351,1321,1840,-13,-1297,-604,-395,-29,141,-191
28515,9409,0,2023-03-01T18:52:23.832679,1733357,1321,1840,-13,-1297,-604,-395,-29,141,-191
28516,9410,0,2023-03-01T18:52:23.838131,1733362,1321,1840,-13,-1297,-604,-395,-29,141,-191
28517,9411,0,2023-03-01T18:52:23.844091,1733368,1321,1840,-13,-1297,-604,-395,-29,141,-191
28518,9412,0,2023-03-01T18:52:23.848923,1733373,1319,1839,-13,-1297,-595,-392,-29,141,-191
28519,9413,0,2023-03-01T18:52:23.854342,1733379,1319,1839,-13,-1297,-595,-392,-29,141,-191
28520,9414,0,2023-03-01T18:52:23.860071,1733385,1319,1839,-13,-1297,-595,-392,-29,141,-191
28521,9415,0,2023-03-01T18:52:23.865800,1733390,1319,1839,-13,-1297,-595,-392,-29,141,-191
28522,9416,0,2023-03-01T18:52:23.870848,1733395,1321,1837,-6,-1291,-594,-385,-29,141,-191
28523,9417,0,2023-03-01T18:52:23.876669,1733401,1321,1837,-6,-1291,-594,-385,-29,141,-191
28524,9418,0,2023-03-01T18:52:23.882568,1733407,1321,1837,-6,-1291,-594,-385,-29,141,-191
28525,9419,0,2023-03-01T18:52:23.887278,1733411,1321,1840,-14,-1286,-596,-389,-29,141,-191
28526,9420,0,2023-03-01T18:52:23.893136,1733417,1321,1840,-14,-1286,-596,-389,-29,141,-191
28527,9421,0,2023-03-01T18:52:23.897974,1733423,1321,1840,-14,-1286,-596,-389,-29,141,-191
28528,9422,0,2023-03-01T18:52:23.904135,1733429,1321,1840,-14,-1286,-596,-389,-29,141,-191
28529,9423,0,2023-03-01T18:52:23.908702,1733433,1321,1840,-14,-1291,-604,-393,-29,141,-191
28530,9424,0,2023-03-01T18:52:23.913826,1733438,1321,1840,-14,-1291,-604,-393,-29,141,-191
28531,9425,0,2023-03-01T18:52:23.918863,1733443,1321,1840,-14,-1291,-604,-393,-29,141,-191
28532,9426,0,2023-03-01T18:52:23.925330,1733450,1321,1840,-14,-1291,-604,-393,-29,141,-191
28533,9427,0,2023-03-01T18:52:23.930595,1733454,1322,1841,-7,-1299,-603,-392,-26,138,-194
28534,9428,0,2023-03-01T18:52:23.936585,1733462,1322,1841,-7,-1299,-603,-392,-26,138,-194
28535,9429,0,2023-03-01T18:52:23.942808,1733468,1322,1841,-7,-1299,-603,-392,-26,138,-194
28536,9430,0,2023-03-01T18:52:23.947945,1733472,1323,1842,-5,-1291,-600,-395,-26,138,-194
28537,9431,0,2023-03-01T18:52:23.953557,1733478,1323,1842,-5,-1291,-600,-395,-26,138,-194
28538,9432,0,2023-03-01T18:52:23.958412,1733483,1323,1842,-5,-1291,-600,-395,-26,138,-194
28539,9433,0,2023-03-01T18:52:23.963512,1733488,1323,1842,-5,-1291,-600,-395,-26,138,-194
28540,9434,0,2023-03-01T18:52:23.968217,1733492,1318,1841,1,-1294,-606,-394,-26,138,-194
28541,9435,0,2023-03-01T18:52:23.973888,1733498,1318,1841,1,-1294,-606,-394,-26,138,-194
28542,9436,0,2023-03-01T18:52:23.978689,1733502,1318,1841,1,-1294,-606,-394,-26,138,-194
28543,9437,0,2023-03-01T18:52:23.984677,1733510,1318,1841,1,-1294,-606,-394,-26,138,-194
28544,9438,0,2023-03-01T18:52:23.989456,1733514,1319,1840,-3,-1288,-607,-396,-26,138,-194
28545,9439,0,2023-03-01T18:52:23.994948,1733519,1319,1840,-3,-1288,-607,-396,-26,138,-194
28546,9440,0,2023-03-01T18:52:24.000286,1733525,1319,1840,-3,-1288,-607,-396,-26,138,-194
28547,9441,0,2023-03-01T18:52:24.006262,1733530,1319,1840,-3,-1288,-607,-396,-26,138,-194
28548,9442,0,2023-03-01T18:52:24.011207,1733535,1318,1844,-10,-1299,-599,-388,-26,138,-194
28549,9443,0,2023-03-01T18:52:24.017212,1733541,1318,1844,-10,-1299,-599,-388,-26,138,-194
28550,9444,0,2023-03-01T18:52:24.023154,1733548,1318,1844,-10,-1299,-599,-388,-26,138,-194
28551,9445,0,2023-03-01T18:52:24.027914,1733553,1319,1837,0,-1281,-602,-385,-26,138,-194
28552,9446,0,2023-03-01T18:52:24.033516,1733558,1319,1837,0,-1281,-602,-385,-26,138,-194
28553,9447,0,2023-03-01T18:52:24.038434,1733563,1319,1837,0,-1281,-602,-385,-26,138,-194
28554,9448,0,2023-03-01T18:52:24.045246,1733570,1319,1837,0,-1281,-602,-385,-26,138,-194
28555,9449,0,2023-03-01T18:52:24.050205,1733574,1316,1841,1,-1296,-605,-388,-32,146,-198
28556,9450,0,2023-03-01T18:52:24.055994,1733580,1316,1841,1,-1296,-605,-388,-32,146,-198
28557,9451,0,2023-03-01T18:52:24.062396,1733586,1316,1841,1,-1296,-605,-388,-32,146,-198
28558,9452,0,2023-03-01T18:52:24.067446,1733592,1318,1836,-2,-1291,-614,-387,-32,146,-198
28559,9453,0,2023-03-01T18:52:24.072245,1733597,1318,1836,-2,-1291,-614,-387,-32,146,-198
28560,9454,0,2023-03-01T18:52:24.077359,1733602,1318,1836,-2,-1291,-614,-387,-32,146,-198
28561,9455,0,2023-03-01T18:52:24.083387,1733608,1318,1836,-2,-1291,-614,-387,-32,146,-198
28562,9456,0,2023-03-01T18:52:24.088233,1733612,1317,1841,-2,-1300,-612,-396,-32,146,-198
28563,9457,0,2023-03-01T18:52:24.093977,1733618,1317,1841,-2,-1300,-612,-396,-32,146,-198
28564,9458,0,2023-03-01T18:52:24.098677,1733623,1317,1841,-2,-1300,-612,-396,-32,146,-198
28565,9459,0,2023-03-01T18:52:24.104508,1733628,1317,1841,-2,-1300,-612,-396,-32,146,-198
28566,9460,0,2023-03-01T18:52:24.109546,1733634,1317,1839,1,-1295,-606,-389,-32,146,-198
28567,9461,0,2023-03-01T18:52:24.114890,1733640,1317,1839,1,-1295,-606,-389,-32,146,-198
28568,9462,0,2023-03-01T18:52:24.121055,1733646,1317,1839,1,-1295,-606,-389,-32,146,-198
28569,9463,0,2023-03-01T18:52:24.126060,1733650,1317,1839,1,-1295,-606,-389,-32,146,-198
28570,9464,0,2023-03-01T18:52:24.131127,1733655,1318,1837,3,-1297,-609,-399,-32,146,-198
28571,9465,0,2023-03-01T18:52:24.136835,1733661,1318,1837,3,-1297,-609,-399,-32,146,-198
28572,9466,0,2023-03-01T18:52:24.143039,1733667,1318,1837,3,-1297,-609,-399,-32,146,-198
28573,9467,0,2023-03-01T18:52:24.148671,1733672,1319,1837,6,-1297,-618,-397,-32,146,-198
28574,9468,0,2023-03-01T18:52:24.154139,1733679,1319,1837,6,-1297,-618,-397,-32,146,-198
28575,9469,0,2023-03-01T18:52:24.158913,1733684,1319,1837,6,-1297,-618,-397,-32,146,-198
28576,9470,0,2023-03-01T18:52:24.164576,1733689,1319,1837,6,-1297,-618,-397,-32,146,-198
28577,9471,0,2023-03-01T18:52:24.169433,1733694,1316,1836,-1,-1303,-609,-405,-32,146,-198
28578,9472,0,2023-03-01T18:52:24.175112,1733699,1316,1836,-1,-1303,-609,-405,-32,146,-198
28579,9473,0,2023-03-01T18:52:24.180638,1733705,1316,1836,-1,-1303,-609,-405,-32,146,-198
28580,9474,0,2023-03-01T18:52:24.186002,1733710,1316,1836,-1,-1303,-609,-405,-32,146,-198
28581,9475,0,2023-03-01T18:52:24.190878,1733715,1318,1837,7,-1298,-609,-389,-28,142,-194
28582,9476,0,2023-03-01T18:52:24.196658,1733721,1318,1837,7,-1298,-609,-389,-28,142,-194
28583,9477,0,2023-03-01T18:52:24.203140,1733727,1318,1837,7,-1298,-609,-389,-28,142,-194
28584,9478,0,2023-03-01T18:52:24.208185,1733733,1315,1839,8,-1297,-613,-388,-28,142,-194
28585,9479,0,2023-03-01T18:52:24.213912,1733738,1315,1839,8,-1297,-613,-388,-28,142,-194
28586,9480,0,2023-03-01T18:52:24.218671,1733743,1315,1839,8,-1297,-613,-388,-28,142,-194
28587,9481,0,2023-03-01T18:52:24.224821,1733749,1315,1839,8,-1297,-613,-388,-28,142,-194
28588,9482,0,2023-03-01T18:52:24.229741,1733754,1319,1841,5,-1301,-615,-404,-28,142,-194
28589,9483,0,2023-03-01T18:52:24.235717,1733761,1319,1841,5,-1301,-615,-404,-28,142,-194
28590,9484,0,2023-03-01T18:52:24.241759,1733767,1319,1841,5,-1301,-615,-404,-28,142,-194
28591,9485,0,2023-03-01T18:52:24.247257,1733771,1319,1841,5,-1301,-615,-404,-28,142,-194
28592,9486,0,2023-03-01T18:52:24.252136,1733777,1312,1838,11,-1304,-605,-396,-28,142,-194
28593,9487,0,2023-03-01T18:52:24.257809,1733782,1312,1838,11,-1304,-605,-396,-28,142,-194
28594,9488,0,2023-03-01T18:52:24.264209,1733788,1312,1838,11,-1304,-605,-396,-28,142,-194
28595,9489,0,2023-03-01T18:52:24.269477,1733793,1312,1840,12,-1292,-607,-394,-28,142,-194
28596,9490,0,2023-03-01T18:52:24.274963,1733799,1312,1840,12,-1292,-607,-394,-28,142,-194
28597,9491,0,2023-03-01T18:52:24.280678,1733805,1312,1840,12,-1292,-607,-394,-28,142,-194
28598,9492,0,2023-03-01T18:52:24.287021,1733811,1312,1840,12,-1292,-607,-394,-28,142,-194
28599,9493,0,2023-03-01T18:52:24.292044,1733817,1316,1836,5,-1293,-613,-390,-28,142,-194
28600,9494,0,2023-03-01T18:52:24.297372,1733821,1316,1836,5,-1293,-613,-390,-28,142,-194
28601,9495,0,2023-03-01T18:52:24.303832,1733828,1316,1836,5,-1293,-613,-390,-28,142,-194
28602,9496,0,2023-03-01T18:52:24.309007,1733833,1319,1837,14,-1291,-606,-400,-28,144,-186
28603,9497,0,2023-03-01T18:52:24.314890,1733839,1319,1837,14,-1291,-606,-400,-28,144,-186
28604,9498,0,2023-03-01T18:52:24.320333,1733844,1319,1837,14,-1291,-606,-400,-28,144,-186
28605,9499,0,2023-03-01T18:52:24.325086,1733850,1319,1837,14,-1291,-606,-400,-28,144,-186
28606,9500,0,2023-03-01T18:52:24.330222,1733855,1312,1835,18,-1304,-605,-392,-28,144,-186
28607,9501,0,2023-03-01T18:52:24.335837,1733860,1312,1835,18,-1304,-605,-392,-28,144,-186
28608,9502,0,2023-03-01T18:52:24.342031,1733866,1312,1835,18,-1304,-605,-392,-28,144,-186
28609,9503,0,2023-03-01T18:52:24.347045,1733871,1312,1835,18,-1304,-605,-392,-28,144,-186
28610,9504,0,2023-03-01T18:52:24.352035,1733876,1314,1843,10,-1300,-608,-397,-28,144,-186
28611,9505,0,2023-03-01T18:52:24.357625,1733882,1314,1843,10,-1300,-608,-397,-28,144,-186
28612,9506,0,2023-03-01T18:52:24.363431,1733888,1314,1843,10,-1300,-608,-397,-28,144,-186
28613,9507,0,2023-03-01T18:52:24.368777,1733894,1313,1833,18,-1295,-607,-396,-28,144,-186
28614,9508,0,2023-03-01T18:52:24.376547,1733901,1313,1833,18,-1295,-607,-396,-28,144,-186
28615,9509,0,2023-03-01T18:52:24.382719,1733907,1313,1833,18,-1295,-607,-396,-28,144,-186
28616,9510,0,2023-03-01T18:52:24.387610,1733912,1317,1837,13,-1304,-611,-397,-28,144,-186
28617,9511,0,2023-03-01T18:52:24.393340,1733917,1317,1837,13,-1304,-611,-397,-28,144,-186
28618,9512,0,2023-03-01T18:52:24.398255,1733922,1317,1837,13,-1304,-611,-397,-28,144,-186
28619,9513,0,2023-03-01T18:52:24.404131,1733928,1317,1837,13,-1304,-611,-397,-28,144,-186
28620,9514,0,2023-03-01T18:52:24.408989,1733934,1313,1836,9,-1292,-607,-391,-28,144,-186
28621,9515,0,2023-03-01T18:52:24.414233,1733939,1313,1836,9,-1292,-607,-391,-28,144,-186
28622,9516,0,2023-03-01T18:52:24.419458,1733944,1313,1836,9,-1292,-607,-391,-28,144,-186
28623,9517,0,2023-03-01T18:52:24.424361,1733949,1313,1836,9,-1292,-607,-391,-28,144,-186
28624,9518,0,2023-03-01T18:52:24.429892,1733954,1315,1838,17,-1298,-612,-390,-28,144,-186
28625,9519,0,2023-03-01T18:52:24.435660,1733960,1315,1838,17,-1298,-612,-390,-28,144,-186
28626,9520,0,2023-03-01T18:52:24.442180,1733966,1315,1838,17,-1298,-612,-390,-28,144,-186
28627,9521,0,2023-03-01T18:52:24.447453,1733971,1315,1838,17,-1298,-612,-390,-28,144,-186
28628,9522,0,2023-03-01T18:52:24.452304,1733977,1315,1838,17,-1298,-612,-390,-23,137,-189
28629,9523,0,2023-03-01T18:52:24.457271,1733982,1315,1838,17,-1298,-612,-390,-23,137,-189
28630,9524,0,2023-03-01T18:52:24.462916,1733988,1315,1838,17,-1298,-612,-390,-23,137,-189
28631,9525,0,2023-03-01T18:52:24.467710,1733992,1314,1833,21,-1289,-611,-393,-23,137,-189
28632,9526,0,2023-03-01T18:52:24.472868,1733997,1314,1833,21,-1289,-611,-393,-23,137,-189
28633,9527,0,2023-03-01T18:52:24.477759,1734002,1314,1833,21,-1289,-611,-393,-23,137,-189
28634,9528,0,2023-03-01T18:52:24.483333,1734007,1314,1833,21,-1289,-611,-393,-23,137,-189
28635,9529,0,2023-03-01T18:52:24.488288,1734012,1315,1838,18,-1298,-619,-394,-23,137,-189
28636,9530,0,2023-03-01T18:52:24.493902,1734019,1315,1838,18,-1298,-619,-394,-23,137,-189
28637,9531,0,2023-03-01T18:52:24.498990,1734023,1315,1838,18,-1298,-619,-394,-23,137,-189
28638,9532,0,2023-03-01T18:52:24.504281,1734029,1315,1838,18,-1298,-619,-394,-23,137,-189
28639,9533,0,2023-03-01T18:52:24.509032,1734034,1313,1837,20,-1291,-608,-401,-23,137,-189
28640,9534,0,2023-03-01T18:52:24.514567,1734039,1313,1837,20,-1291,-608,-401,-23,137,-189
28641,9535,0,2023-03-01T18:52:24.519872,1734044,1313,1837,20,-1291,-608,-401,-23,137,-189
28642,9536,0,2023-03-01T18:52:24.525390,1734049,1313,1837,20,-1291,-608,-401,-23,137,-189
28643,9537,0,2023-03-01T18:52:24.530456,1734054,1308,1836,26,-1299,-613,-393,-23,137,-189
28644,9538,0,2023-03-01T18:52:24.536149,1734061,1308,1836,26,-1299,-613,-393,-23,137,-189
28645,9539,0,2023-03-01T18:52:24.542846,1734067,1308,1836,26,-1299,-613,-393,-23,137,-189
28646,9540,0,2023-03-01T18:52:24.547722,1734072,1314,1839,24,-1301,-617,-398,-23,137,-189
28647,9541,0,2023-03-01T18:52:24.552814,1734078,1314,1839,24,-1301,-617,-398,-23,137,-189
28648,9542,0,2023-03-01T18:52:24.558043,1734082,1314,1839,24,-1301,-617,-398,-23,137,-189
28649,9543,0,2023-03-01T18:52:24.563826,1734088,1314,1839,24,-1301,-617,-398,-23,137,-189
28650,9544,0,2023-03-01T18:52:24.568697,1734093,1312,1840,27,-1306,-612,-398,-24,148,-192
28651,9545,0,2023-03-01T18:52:24.574327,1734098,1312,1840,27,-1306,-612,-398,-24,148,-192
28652,9546,0,2023-03-01T18:52:24.579905,1734105,1312,1840,27,-1306,-612,-398,-24,148,-192
28653,9547,0,2023-03-01T18:52:24.585777,1734110,1312,1840,27,-1306,-612,-398,-24,148,-192
28654,9548,0,2023-03-01T18:52:24.590480,1734115,1313,1838,22,-1307,-607,-394,-24,148,-192
28655,9549,0,2023-03-01T18:52:24.595987,1734120,1313,1838,22,-1307,-607,-394,-24,148,-192
28656,9550,0,2023-03-01T18:52:24.602140,1734126,1313,1838,22,-1307,-607,-394,-24,148,-192
28657,9551,0,2023-03-01T18:52:24.607138,1734131,1313,1838,22,-1307,-607,-394,-24,148,-192
28658,9552,0,2023-03-01T18:52:24.612193,1734136,1309,1839,26,-1297,-598,-396,-24,148,-192
28659,9553,0,2023-03-01T18:52:24.617570,1734141,1309,1839,26,-1297,-598,-396,-24,148,-192
28660,9554,0,2023-03-01T18:52:24.623509,1734148,1309,1839,26,-1297,-598,-396,-24,148,-192
28661,9555,0,2023-03-01T18:52:24.628372,1734153,1311,1837,33,-1287,-601,-387,-24,148,-192
28662,9556,0,2023-03-01T18:52:24.633971,1734158,1311,1837,33,-1287,-601,-387,-24,148,-192
28663,9557,0,2023-03-01T18:52:24.638565,1734163,1311,1837,33,-1287,-601,-387,-24,148,-192
28664,9558,0,2023-03-01T18:52:24.644216,1734169,1311,1837,33,-1287,-601,-387,-24,148,-192
28665,9559,0,2023-03-01T18:52:24.648791,1734173,1311,1836,25,-1279,-592,-396,-24,148,-192
28666,9560,0,2023-03-01T18:52:24.655177,1734179,1311,1836,25,-1279,-592,-396,-24,148,-192
28667,9561,0,2023-03-01T18:52:24.661064,1734185,1311,1836,25,-1279,-592,-396,-24,148,-192
28668,9562,0,2023-03-01T18:52:24.667178,1734192,1311,1836,25,-1279,-592,-396,-24,148,-192
28669,9563,0,2023-03-01T18:52:24.672097,1734197,1310,1834,28,-1280,-598,-390,-24,148,-192
28670,9564,0,2023-03-01T18:52:24.677575,1734202,1310,1834,28,-1280,-598,-390,-24,148,-192
28671,9565,0,2023-03-01T18:52:24.683481,1734208,1310,1834,28,-1280,-598,-390,-24,148,-192
28672,9566,0,2023-03-01T18:52:24.688402,1734213,1308,1836,30,-1284,-594,-384,-22,138,-184
28673,9567,0,2023-03-01T18:52:24.693924,1734218,1308,1836,30,-1284,-594,-384,-22,138,-184
28674,9568,0,2023-03-01T18:52:24.698547,1734223,1308,1836,30,-1284,-594,-384,-22,138,-184
28675,9569,0,2023-03-01T18:52:24.704460,1734230,1308,1836,30,-1284,-594,-384,-22,138,-184
28676,9570,0,2023-03-01T18:52:24.709510,1734234,1308,1836,37,-1282,-598,-389,-22,138,-184
28677,9571,0,2023-03-01T18:52:24.715292,1734240,1308,1836,37,-1282,-598,-389,-22,138,-184
28678,9572,0,2023-03-01T18:52:24.719828,1734245,1308,1836,37,-1282,-598,-389,-22,138,-184
28679,9573,0,2023-03-01T18:52:24.724916,1734249,1308,1836,37,-1282,-598,-389,-22,138,-184
28680,9574,0,2023-03-01T18:52:24.729980,1734254,1310,1836,34,-1293,-604,-393,-22,138,-184
28681,9575,0,2023-03-01T18:52:24.735325,1734260,1310,1836,34,-1293,-604,-393,-22,138,-184
28682,9576,0,2023-03-01T18:52:24.740808,1734265,1310,1836,34,-1293,-604,-393,-22,138,-184
28683,9577,0,2023-03-01T18:52:24.746637,1734272,1310,1836,34,-1293,-604,-393,-22,138,-184
28684,9578,0,2023-03-01T18:52:24.751280,1734276,1309,1835,30,-1281,-590,-388,-22,138,-184
28685,9579,0,2023-03-01T18:52:24.756506,1734281,1309,1835,30,-1281,-590,-388,-22,138,-184
28686,9580,0,2023-03-01T18:52:24.761528,1734286,1309,1835,30,-1281,-590,-388,-22,138,-184
28687,9581,0,2023-03-01T18:52:24.766383,1734291,1309,1835,30,-1281,-590,-388,-22,138,-184
28688,9582,0,2023-03-01T18:52:24.771683,1734296,1309,1835,38,-1285,-602,-386,-22,138,-184
28689,9583,0,2023-03-01T18:52:24.777220,1734301,1309,1835,38,-1285,-602,-386,-22,138,-184
28690,9584,0,2023-03-01T18:52:24.783261,1734307,1309,1835,38,-1285,-602,-386,-22,138,-184
28691,9585,0,2023-03-01T18:52:24.788017,1734312,1309,1835,33,-1280,-600,-379,-22,138,-184
28692,9586,0,2023-03-01T18:52:24.793444,1734318,1309,1835,33,-1280,-600,-379,-22,138,-184
28693,9587,0,2023-03-01T18:52:24.798630,1734323,1309,1835,33,-1280,-600,-379,-22,138,-184
28694,9588,0,2023-03-01T18:52:24.805009,1734330,1309,1835,33,-1280,-600,-379,-22,138,-184
28695,9589,0,2023-03-01T18:52:24.809850,1734334,1310,1836,31,-1280,-596,-386,-22,138,-184
28696,9590,0,2023-03-01T18:52:24.815133,1734339,1310,1836,31,-1280,-596,-386,-22,138,-184
28697,9591,0,2023-03-01T18:52:24.821494,1734346,1310,1836,31,-1280,-596,-386,-22,138,-184
28698,9592,0,2023-03-01T18:52:24.826556,1734350,1310,1836,31,-1280,-596,-386,-22,138,-184
28699,9593,0,2023-03-01T18:52:24.831847,1734356,1309,1839,40,-1278,-591,-388,-26,152,-194
