,Unnamed: 0,imu,server_time,arduino_time,ax,ay,az,gx,gy,gz,mx,my,mz
28700,9594,0,2023-03-01T18:52:24.838187,1734363,1309,1839,40,-1278,-591,-388,-26,152,-194
28701,9595,0,2023-03-01T18:52:24.843825,1734369,1309,1839,40,-1278,-591,-388,-26,152,-194
28702,9596,0,2023-03-01T18:52:24.848601,1734373,1306,1831,39,-1286,-597,-394,-26,152,-194
28703,9597,0,2023-03-01T18:52:24.853336,1734378,1306,1831,39,-1286,-597,-394,-26,152,-194
28704,9598,0,2023-03-01T18:52:24.858056,1734383,1306,1831,39,-1286,-597,-394,-26,152,-194
28705,9599,0,2023-03-01T18:52:24.863654,1734388,1306,1831,39,-1286,-597,-394,-26,152,-194
28706,9600,0,2023-03-01T18:52:24.868450,1734393,1309,1836,40,-1287,-598,-393,-26,152,-194
28707,9601,0,2023-03-01T18:52:24.873817,1734398,1309,1836,40,-1287,-598,-393,-26,152,-194
28708,9602,0,2023-03-01T18:52:24.878694,1734403,1309,1836,40,-1287,-598,-393,-26,152,-194
28709,9603,0,2023-03-01T18:52:24.884812,1734410,1309,1836,40,-1287,-598,-393,-26,152,-194
28710,9604,0,2023-03-01T18:52:24.889625,1734414,1305,1834,43,-1283,-592,-393,-26,152,-194
28711,9605,0,2023-03-01T18:52:24.894743,1734419,1305,1834,43,-1283,-592,-393,-26,152,-194
28712,9606,0,2023-03-01T18:52:24.899575,1734424,1305,1834,43,-1283,-592,-393,-26,152,-194
28713,9607,0,2023-03-01T18:52:24.905086,1734429,1305,1834,43,-1283,-592,-393,-26,152,-194
28714,9608,0,2023-03-01T18:52:24.910011,1734434,1304,1835,41,-1278,-592,-401,-26,152,-194
28715,9609,0,2023-03-01T18:52:24.915497,1734439,1304,1835,41,-1278,-592,-401,-26,152,-194
28716,9610,0,2023-03-01T18:52:24.920518,1734445,1304,1835,41,-1278,-592,-401,-26,152,-194
28717,9611,0,2023-03-01T18:52:24.925988,1734451,1304,1835,41,-1278,-592,-401,-26,152,-194
28718,9612,0,2023-03-01T18:52:24.930661,1734455,1303,1834,39,-1286,-599,-396,-26,152,-194
28719,9613,0,2023-03-01T18:52:24.935928,1734461,1303,1834,39,-1286,-599,-396,-26,152,-194
28720,9614,0,2023-03-01T18:52:24.941895,1734466,1303,1834,39,-1286,-599,-396,-26,152,-194
28721,9615,0,2023-03-01T18:52:24.946916,1734471,1303,1834,39,-1286,-599,-396,-26,152,-194
28722,9616,0,2023-03-01T18:52:24.951383,1734476,1303,1832,43,-1277,-599,-394,-21,147,-185
28723,9617,0,2023-03-01T18:52:24.957002,1734481,1303,1832,43,-1277,-599,-394,-21,147,-185
28724,9618,0,2023-03-01T18:52:24.963005,1734488,1303,1832,43,-1277,-599,-394,-21,147,-185
28725,9619,0,2023-03-01T18:52:24.968023,1734493,1306,1836,40,-1284,-601,-383,-21,147,-185
28726,9620,0,2023-03-01T18:52:24.973741,1734498,1306,1836,40,-1284,-601,-383,-21,147,-185
28727,9621,0,2023-03-01T18:52:24.978310,1734503,1306,1836,40,-1284,-601,-383,-21,147,-185
28728,9622,0,2023-03-01T18:52:24.984379,1734509,1306,1836,40,-1284,-601,-383,-21,147,-185
28729,9623,0,2023-03-01T18:52:24.988952,1734513,1307,1840,53,-1273,-607,-394,-21,147,-185
28730,9624,0,2023-03-01T18:52:24.994485,1734519,1307,1840,53,-1273,-607,-394,-21,147,-185
28731,9625,0,2023-03-01T18:52:24.999930,1734524,1307,1840,53,-1273,-607,-394,-21,147,-185
28732,9626,0,2023-03-01T18:52:25.005750,1734530,1307,1840,53,-1273,-607,-394,-21,147,-185
28733,9627,0,2023-03-01T18:52:25.010639,1734535,1304,1836,46,-1281,-606,-384,-21,147,-185
28734,9628,0,2023-03-01T18:52:25.016559,1734541,1304,1836,46,-1281,-606,-384,-21,147,-185
28735,9629,0,2023-03-01T18:52:25.022834,1734547,1304,1836,46,-1281,-606,-384,-21,147,-185
28736,9630,0,2023-03-01T18:52:25.028662,1734553,1305,1833,44,-1276,-595,-386,-21,147,-185
28737,9631,0,2023-03-01T18:52:25.034323,1734558,1305,1833,44,-1276,-595,-386,-21,147,-185
28738,9632,0,2023-03-01T18:52:25.040387,1734564,1305,1833,44,-1276,-595,-386,-21,147,-185
28739,9633,0,2023-03-01T18:52:25.046665,1734572,1305,1833,44,-1276,-595,-386,-21,147,-185
28740,9634,0,2023-03-01T18:52:25.051249,1734576,1303,1835,54,-1286,-602,-394,-21,147,-185
28741,9635,0,2023-03-01T18:52:25.057194,1734582,1303,1835,54,-1286,-602,-394,-21,147,-185
28742,9636,0,2023-03-01T18:52:25.063444,1734588,1303,1835,54,-1286,-602,-394,-21,147,-185
28743,9637,0,2023-03-01T18:52:25.068394,1734593,1308,1833,47,-1291,-603,-386,-21,147,-185
28744,9638,0,2023-03-01T18:52:25.074016,1734598,1308,1833,47,-1291,-603,-386,-21,147,-185
28745,9639,0,2023-03-01T18:52:25.079238,1734603,1308,1833,47,-1291,-603,-386,-21,147,-185
28746,9640,0,2023-03-01T18:52:25.085323,1734609,1308,1833,47,-1291,-603,-386,-21,147,-185
28747,9641,0,2023-03-01T18:52:25.090438,1734615,1301,1836,53,-1284,-593,-394,-16,140,-184
28748,9642,0,2023-03-01T18:52:25.095998,1734621,1301,1836,53,-1284,-593,-394,-16,140,-184
28749,9643,0,2023-03-01T18:52:25.102098,1734627,1301,1836,53,-1284,-593,-394,-16,140,-184
28750,9644,0,2023-03-01T18:52:25.106938,1734631,1301,1836,53,-1284,-593,-394,-16,140,-184
28751,9645,0,2023-03-01T18:52:25.111789,1734636,1302,1831,50,-1287,-604,-389,-16,140,-184
28752,9646,0,2023-03-01T18:52:25.116525,1734641,1302,1831,50,-1287,-604,-389,-16,140,-184
28753,9647,0,2023-03-01T18:52:25.122231,1734646,1302,1831,50,-1287,-604,-389,-16,140,-184
28754,9648,0,2023-03-01T18:52:25.127400,1734651,1302,1831,50,-1287,-604,-389,-16,140,-184
28755,9649,0,2023-03-01T18:52:25.132301,1734657,1300,1834,46,-1291,-603,-394,-16,140,-184
28756,9650,0,2023-03-01T18:52:25.137601,1734662,1300,1834,46,-1291,-603,-394,-16,140,-184
28757,9651,0,2023-03-01T18:52:25.143472,1734668,1300,1834,46,-1291,-603,-394,-16,140,-184
28758,9652,0,2023-03-01T18:52:25.148763,1734673,1304,1831,57,-1294,-598,-390,-16,140,-184
28759,9653,0,2023-03-01T18:52:25.154291,1734679,1304,1831,57,-1294,-598,-390,-16,140,-184
28760,9654,0,2023-03-01T18:52:25.159103,1734683,1304,1831,57,-1294,-598,-390,-16,140,-184
28761,9655,0,2023-03-01T18:52:25.165113,1734689,1304,1831,57,-1294,-598,-390,-16,140,-184
28762,9656,0,2023-03-01T18:52:25.170057,1734694,1302,1834,57,-1292,-586,-390,-16,140,-184
28763,9657,0,2023-03-01T18:52:25.175572,1734700,1302,1834,57,-1292,-586,-390,-16,140,-184
28764,9658,0,2023-03-01T18:52:25.181948,1734707,1302,1834,57,-1292,-586,-390,-16,140,-184
28765,9659,0,2023-03-01T18:52:25.186565,1734711,1302,1834,57,-1292,-586,-390,-16,140,-184
28766,9660,0,2023-03-01T18:52:25.191489,1734716,1304,1834,63,-1273,-599,-393,-16,140,-184
28767,9661,0,2023-03-01T18:52:25.196787,1734721,1304,1834,63,-1273,-599,-393,-16,140,-184
28768,9662,0,2023-03-01T18:52:25.202610,1734727,1304,1834,63,-1273,-599,-393,-16,140,-184
28769,9663,0,2023-03-01T18:52:25.207640,1734732,1304,1834,63,-1273,-599,-393,-16,140,-184
28770,9664,0,2023-03-01T18:52:25.212371,1734736,1299,1833,57,-1277,-598,-387,-25,141,-191
28771,9665,0,2023-03-01T18:52:25.217958,1734743,1299,1833,57,-1277,-598,-387,-25,141,-191
28772,9666,0,2023-03-01T18:52:25.224065,1734749,1299,1833,57,-1277,-598,-387,-25,141,-191
28773,9667,0,2023-03-01T18:52:25.229203,1734754,1304,1833,51,-1275,-594,-385,-25,141,-191
28774,9668,0,2023-03-01T18:52:25.234768,1734759,1304,1833,51,-1275,-594,-385,-25,141,-191
28775,9669,0,2023-03-01T18:52:25.240351,1734765,1304,1833,51,-1275,-594,-385,-25,141,-191
28776,9670,0,2023-03-01T18:52:25.245648,1734770,1304,1833,51,-1275,-594,-385,-25,141,-191
28777,9671,0,2023-03-01T18:52:25.251250,1734775,1302,1835,64,-1263,-597,-389,-25,141,-191
28778,9672,0,2023-03-01T18:52:25.256946,1734781,1302,1835,64,-1263,-597,-389,-25,141,-191
28779,9673,0,2023-03-01T18:52:25.263723,1734789,1302,1835,64,-1263,-597,-389,-25,141,-191
28780,9674,0,2023-03-01T18:52:25.268536,1734793,1304,1834,59,-1273,-595,-388,-25,141,-191
28781,9675,0,2023-03-01T18:52:25.274045,1734798,1304,1834,59,-1273,-595,-388,-25,141,-191
28782,9676,0,2023-03-01T18:52:25.278924,1734803,1304,1834,59,-1273,-595,-388,-25,141,-191
28783,9677,0,2023-03-01T18:52:25.285540,1734810,1304,1834,59,-1273,-595,-388,-25,141,-191
28784,9678,0,2023-03-01T18:52:25.290464,1734815,1298,1837,56,-1267,-606,-394,-25,141,-191
28785,9679,0,2023-03-01T18:52:25.296170,1734820,1298,1837,56,-1267,-606,-394,-25,141,-191
28786,9680,0,2023-03-01T18:52:25.302167,1734827,1298,1837,56,-1267,-606,-394,-25,141,-191
28787,9681,0,2023-03-01T18:52:25.307569,1734832,1298,1837,56,-1267,-606,-394,-25,141,-191
28788,9682,0,2023-03-01T18:52:25.312515,1734837,1303,1837,66,-1289,-604,-388,-25,141,-191
28789,9683,0,2023-03-01T18:52:25.318510,1734843,1303,1837,66,-1289,-604,-388,-25,141,-191
28790,9684,0,2023-03-01T18:52:25.324552,1734849,1303,1837,66,-1289,-604,-388,-25,141,-191
28791,9685,0,2023-03-01T18:52:25.330014,1734854,1300,1831,58,-1279,-616,-398,-25,141,-191
28792,9686,0,2023-03-01T18:52:25.335685,1734860,1300,1831,58,-1279,-616,-398,-25,141,-191
28793,9687,0,2023-03-01T18:52:25.341673,1734865,1300,1831,58,-1279,-616,-398,-25,141,-191
28794,9688,0,2023-03-01T18:52:25.347370,1734872,1300,1831,58,-1279,-616,-398,-25,141,-191
28795,9689,0,2023-03-01T18:52:25.352061,1734877,1304,1832,68,-1294,-610,-396,-25,151,-181
28796,9690,0,2023-03-01T18:52:25.357851,1734882,1304,1832,68,-1294,-610,-396,-25,151,-181
28797,9691,0,2023-03-01T18:52:25.363502,1734888,1304,1832,68,-1294,-610,-396,-25,151,-181
28798,9692,0,2023-03-01T18:52:25.368847,1734893,1304,1832,68,-1294,-610,-396,-25,151,-181
28799,9693,0,2023-03-01T18:52:25.373946,1734898,1299,1830,63,-1275,-606,-389,-25,151,-181
28800,9694,0,2023-03-01T18:52:25.379343,1734904,1299,1830,63,-1275,-606,-389,-25,151,-181
28801,9695,0,2023-03-01T18:52:25.385123,1734909,1299,1830,63,-1275,-606,-389,-25,151,-181
28802,9696,0,2023-03-01T18:52:25.390064,1734915,1300,1834,68,-1285,-615,-394,-25,151,-181
28803,9697,0,2023-03-01T18:52:25.395957,1734921,1300,1834,68,-1285,-615,-394,-25,151,-181
28804,9698,0,2023-03-01T18:52:25.401399,1734926,1300,1834,68,-1285,-615,-394,-25,151,-181
28805,9699,0,2023-03-01T18:52:25.406005,1734931,1300,1834,68,-1285,-615,-394,-25,151,-181
28806,9700,0,2023-03-01T18:52:25.411034,1734935,1299,1832,68,-1282,-605,-393,-25,151,-181
28807,9701,0,2023-03-01T18:52:25.416528,1734941,1299,1832,68,-1282,-605,-393,-25,151,-181
28808,9702,0,2023-03-01T18:52:25.422692,1734947,1299,1832,68,-1282,-605,-393,-25,151,-181
28809,9703,0,2023-03-01T18:52:25.427867,1734952,1299,1832,68,-1282,-605,-393,-25,151,-181
28810,9704,0,2023-03-01T18:52:25.432784,1734958,1304,1831,68,-1286,-602,-404,-25,151,-181
28811,9705,0,2023-03-01T18:52:25.438363,1734963,1304,1831,68,-1286,-602,-404,-25,151,-181
28812,9706,0,2023-03-01T18:52:25.444129,1734969,1304,1831,68,-1286,-602,-404,-25,151,-181
28813,9707,0,2023-03-01T18:52:25.449035,1734973,1301,1835,63,-1281,-609,-393,-25,151,-181
28814,9708,0,2023-03-01T18:52:25.454204,1734979,1301,1835,63,-1281,-609,-393,-25,151,-181
28815,9709,0,2023-03-01T18:52:25.459146,1734983,1301,1835,63,-1281,-609,-393,-25,151,-181
28816,9710,0,2023-03-01T18:52:25.465479,1734990,1301,1835,63,-1281,-609,-393,-25,151,-181
28817,9711,0,2023-03-01T18:52:25.470321,1734994,1304,1836,75,-1281,-606,-406,-20,144,-180
28818,9712,0,2023-03-01T18:52:25.475662,1735000,1304,1836,75,-1281,-606,-406,-20,144,-180
28819,9713,0,2023-03-01T18:52:25.482186,1735007,1304,1836,75,-1281,-606,-406,-20,144,-180
28820,9714,0,2023-03-01T18:52:25.487934,1735013,1304,1836,75,-1281,-606,-406,-20,144,-180
28821,9715,0,2023-03-01T18:52:25.492850,1735017,1302,1833,74,-1294,-604,-398,-20,144,-180
28822,9716,0,2023-03-01T18:52:25.498626,1735023,1302,1833,74,-1294,-604,-398,-20,144,-180
28823,9717,0,2023-03-01T18:52:25.504572,1735029,1302,1833,74,-1294,-604,-398,-20,144,-180
28824,9718,0,2023-03-01T18:52:25.509169,1735033,1302,1833,75,-1281,-607,-389,-20,144,-180
28825,9719,0,2023-03-01T18:52:25.514618,1735040,1302,1833,75,-1281,-607,-389,-20,144,-180
28826,9720,0,2023-03-01T18:52:25.519659,1735044,1302,1833,75,-1281,-607,-389,-20,144,-180
28827,9721,0,2023-03-01T18:52:25.524626,1735049,1302,1833,75,-1281,-607,-389,-20,144,-180
28828,9722,0,2023-03-01T18:52:25.529700,1735054,1298,1837,73,-1278,-606,-396,-20,144,-180
28829,9723,0,2023-03-01T18:52:25.535089,1735060,1298,1837,73,-1278,-606,-396,-20,144,-180
28830,9724,0,2023-03-01T18:52:25.541547,1735065,1298,1837,73,-1278,-606,-396,-20,144,-180
28831,9725,0,2023-03-01T18:52:25.546611,1735071,1298,1837,73,-1278,-606,-396,-20,144,-180
28832,9726,0,2023-03-01T18:52:25.551361,1735076,1301,1833,71,-1281,-617,-389,-20,144,-180
28833,9727,0,2023-03-01T18:52:25.556645,1735081,1301,1833,71,-1281,-617,-389,-20,144,-180
28834,9728,0,2023-03-01T18:52:25.562387,1735087,1301,1833,71,-1281,-617,-389,-20,144,-180
28835,9729,0,2023-03-01T18:52:25.567336,1735092,1301,1833,71,-1281,-617,-389,-20,144,-180
28836,9730,0,2023-03-01T18:52:25.572285,1735097,1300,1836,73,-1288,-606,-398,-20,144,-180
28837,9731,0,2023-03-01T18:52:25.577950,1735103,1300,1836,73,-1288,-606,-398,-20,144,-180
28838,9732,0,2023-03-01T18:52:25.582990,1735107,1300,1836,73,-1288,-606,-398,-20,144,-180
28839,9733,0,2023-03-01T18:52:25.587957,1735112,1300,1836,73,-1288,-606,-398,-20,144,-180
28840,9734,0,2023-03-01T18:52:25.592886,1735117,1300,1830,82,-1289,-614,-395,-27,147,-185
28841,9735,0,2023-03-01T18:52:25.598662,1735123,1300,1830,82,-1289,-614,-395,-27,147,-185
28842,9736,0,2023-03-01T18:52:25.604497,1735129,1300,1830,82,-1289,-614,-395,-27,147,-185
28843,9737,0,2023-03-01T18:52:25.609384,1735134,1294,1831,75,-1290,-624,-396,-27,147,-185
28844,9738,0,2023-03-01T18:52:25.615256,1735140,1294,1831,75,-1290,-624,-396,-27,147,-185
28845,9739,0,2023-03-01T18:52:25.620987,1735145,1294,1831,75,-1290,-624,-396,-27,147,-185
28846,9740,0,2023-03-01T18:52:25.627415,1735151,1294,1831,75,-1290,-624,-396,-27,147,-185
28847,9741,0,2023-03-01T18:52:25.632313,1735157,1296,1832,81,-1289,-610,-400,-27,147,-185
28848,9742,0,2023-03-01T18:52:25.638358,1735162,1296,1832,81,-1289,-610,-400,-27,147,-185
28849,9743,0,2023-03-01T18:52:25.645092,1735169,1296,1832,81,-1289,-610,-400,-27,147,-185
28850,9744,0,2023-03-01T18:52:25.650215,1735175,1298,1833,78,-1290,-605,-399,-27,147,-185
28851,9745,0,2023-03-01T18:52:25.655758,1735180,1298,1833,78,-1290,-605,-399,-27,147,-185
28852,9746,0,2023-03-01T18:52:25.661009,1735186,1298,1833,78,-1290,-605,-399,-27,147,-185
28853,9747,0,2023-03-01T18:52:25.666435,1735191,1298,1833,78,-1290,-605,-399,-27,147,-185
28854,9748,0,2023-03-01T18:52:25.671453,1735196,1296,1830,76,-1282,-602,-388,-27,147,-185
28855,9749,0,2023-03-01T18:52:25.677443,1735201,1296,1830,76,-1282,-602,-388,-27,147,-185
28856,9750,0,2023-03-01T18:52:25.684375,1735208,1296,1830,76,-1282,-602,-388,-27,147,-185
28857,9751,0,2023-03-01T18:52:25.689255,1735214,1294,1830,82,-1287,-607,-398,-27,147,-185
28858,9752,0,2023-03-01T18:52:25.694722,1735220,1294,1830,82,-1287,-607,-398,-27,147,-185
28859,9753,0,2023-03-01T18:52:25.701838,1735226,1294,1830,82,-1287,-607,-398,-27,147,-185
28860,9754,0,2023-03-01T18:52:25.707720,1735232,1294,1830,82,-1287,-607,-398,-27,147,-185
28861,9755,0,2023-03-01T18:52:25.713305,1735237,1294,1830,82,-1287,-607,-398,-27,147,-185
28862,9756,0,2023-03-01T18:52:25.718373,1735243,1294,1830,82,-1287,-607,-398,-27,147,-185
28863,9757,0,2023-03-01T18:52:25.723321,1735247,1294,1830,82,-1287,-607,-398,-27,147,-185
28864,9758,0,2023-03-01T18:52:25.728460,1735252,1294,1830,82,-1287,-607,-398,-27,147,-185
28865,9759,0,2023-03-01T18:52:25.733440,1735258,1297,1832,82,-1284,-601,-403,-25,147,-185
28866,9760,0,2023-03-01T18:52:25.739417,1735264,1297,1832,82,-1284,-601,-403,-25,147,-185
28867,9761,0,2023-03-01T18:52:25.744839,1735269,1297,1832,82,-1284,-601,-403,-25,147,-185
28868,9762,0,2023-03-01T18:52:25.749583,1735274,1298,1834,83,-1279,-599,-400,-25,147,-185
28869,9763,0,2023-03-01T18:52:25.754990,1735279,1298,1834,83,-1279,-599,-400,-25,147,-185
28870,9764,0,2023-03-01T18:52:25.760681,1735285,1298,1834,83,-1279,-599,-400,-25,147,-185
28871,9765,0,2023-03-01T18:52:25.766570,1735291,1298,1834,83,-1279,-599,-400,-25,147,-185
28872,9766,0,2023-03-01T18:52:25.771429,1735296,1299,1832,89,-1286,-605,-401,-25,147,-185
28873,9767,0,2023-03-01T18:52:25.777156,1735302,1299,1832,89,-1286,-605,-401,-25,147,-185
28874,9768,0,2023-03-01T18:52:25.783130,1735308,1299,1832,89,-1286,-605,-401,-25,147,-185
28875,9769,0,2023-03-01T18:52:25.787962,1735313,1299,1832,89,-1286,-605,-401,-25,147,-185
28876,9770,0,2023-03-01T18:52:25.793270,1735317,1300,1829,83,-1285,-600,-389,-25,147,-185
28877,9771,0,2023-03-01T18:52:25.798872,1735323,1300,1829,83,-1285,-600,-389,-25,147,-185
28878,9772,0,2023-03-01T18:52:25.804529,1735329,1300,1829,83,-1285,-600,-389,-25,147,-185
28879,9773,0,2023-03-01T18:52:25.810131,1735334,1296,1831,88,-1276,-597,-388,-25,147,-185
28880,9774,0,2023-03-01T18:52:25.816144,1735341,1296,1831,88,-1276,-597,-388,-25,147,-185
28881,9775,0,2023-03-01T18:52:25.822155,1735347,1296,1831,88,-1276,-597,-388,-25,147,-185
28882,9776,0,2023-03-01T18:52:25.828210,1735352,1296,1831,88,-1276,-597,-388,-25,147,-185
28883,9777,0,2023-03-01T18:52:25.833242,1735358,1296,1831,84,-1282,-599,-392,-25,147,-185
28884,9778,0,2023-03-01T18:52:25.839020,1735363,1296,1831,84,-1282,-599,-392,-25,147,-185
28885,9779,0,2023-03-01T18:52:25.844596,1735369,1296,1831,84,-1282,-599,-392,-25,147,-185
28886,9780,0,2023-03-01T18:52:25.849763,1735374,1294,1829,86,-1271,-601,-388,-21,139,-189
28887,9781,0,2023-03-01T18:52:25.855594,1735379,1294,1829,86,-1271,-601,-388,-21,139,-189
28888,9782,0,2023-03-01T18:52:25.861417,1735386,1294,1829,86,-1271,-601,-388,-21,139,-189
28889,9783,0,2023-03-01T18:52:25.866253,1735391,1294,1829,86,-1271,-601,-388,-21,139,-189
28890,9784,0,2023-03-01T18:52:25.871530,1735396,1300,1833,92,-1278,-599,-394,-21,139,-189
28891,9785,0,2023-03-01T18:52:25.877337,1735402,1300,1833,92,-1278,-599,-394,-21,139,-189
28892,9786,0,2023-03-01T18:52:25.883340,1735408,1300,1833,92,-1278,-599,-394,-21,139,-189
28893,9787,0,2023-03-01T18:52:25.888626,1735413,1300,1833,92,-1278,-599,-394,-21,139,-189
28894,9788,0,2023-03-01T18:52:25.893434,1735417,1296,1831,91,-1268,-602,-383,-21,139,-189
28895,9789,0,2023-03-01T18:52:25.898870,1735424,1296,1831,91,-1268,-602,-383,-21,139,-189
28896,9790,0,2023-03-01T18:52:25.905161,1735430,1296,1831,91,-1268,-602,-383,-21,139,-189
28897,9791,0,2023-03-01T18:52:25.909974,1735435,1296,1831,89,-1268,-593,-391,-21,139,-189
28898,9792,0,2023-03-01T18:52:25.915755,1735440,1296,1831,89,-1268,-593,-391,-21,139,-189
28899,9793,0,2023-03-01T18:52:25.922144,1735447,1296,1831,89,-1268,-593,-391,-21,139,-189
28900,9794,0,2023-03-01T18:52:25.927919,1735452,1296,1831,89,-1268,-593,-391,-21,139,-189
28901,9795,0,2023-03-01T18:52:25.933278,1735457,1291,1829,91,-1275,-591,-392,-21,139,-189
28902,9796,0,2023-03-01T18:52:25.939001,1735463,1291,1829,91,-1275,-591,-392,-21,139,-189
28903,9797,0,2023-03-01T18:52:25.945053,1735470,1291,1829,91,-1275,-591,-392,-21,139,-189
28904,9798,0,2023-03-01T18:52:25.950374,1735475,1293,1830,91,-1267,-596,-385,-21,139,-189
28905,9799,0,2023-03-01T18:52:25.956265,1735481,1293,1830,91,-1267,-596,-385,-21,139,-189
28906,9800,0,2023-03-01T18:52:25.961943,1735486,1293,1830,91,-1267,-596,-385,-21,139,-189
28907,9801,0,2023-03-01T18:52:25.966837,1735491,1293,1830,91,-1267,-596,-385,-21,139,-189
28908,9802,0,2023-03-01T18:52:25.971810,1735496,1295,1833,97,-1265,-608,-395,-21,139,-189
28909,9803,0,2023-03-01T18:52:25.977274,1735501,1295,1833,97,-1265,-608,-395,-21,139,-189
28910,9804,0,2023-03-01T18:52:25.982476,1735506,1295,1833,97,-1265,-608,-395,-21,139,-189
28911,9805,0,2023-03-01T18:52:25.988200,1735512,1295,1833,97,-1265,-608,-395,-21,139,-189
28912,9806,0,2023-03-01T18:52:25.992918,1735518,1296,1829,92,-1271,-602,-390,-17,145,-185
28913,9807,0,2023-03-01T18:52:25.997923,1735523,1296,1829,92,-1271,-602,-390,-17,145,-185
28914,9808,0,2023-03-01T18:52:26.003816,1735528,1296,1829,92,-1271,-602,-390,-17,145,-185
28915,9809,0,2023-03-01T18:52:26.008532,1735533,1296,1829,92,-1271,-602,-390,-17,145,-185
28916,9810,0,2023-03-01T18:52:26.013417,1735538,1292,1828,96,-1276,-600,-397,-17,145,-185
28917,9811,0,2023-03-01T18:52:26.018619,1735543,1292,1828,96,-1276,-600,-397,-17,145,-185
28918,9812,0,2023-03-01T18:52:26.023723,1735548,1292,1828,96,-1276,-600,-397,-17,145,-185
28919,9813,0,2023-03-01T18:52:26.028365,1735553,1292,1828,96,-1276,-600,-397,-17,145,-185
28920,9814,0,2023-03-01T18:52:26.033212,1735558,1294,1832,94,-1279,-602,-396,-17,145,-185
28921,9815,0,2023-03-01T18:52:26.038331,1735563,1294,1832,94,-1279,-602,-396,-17,145,-185
28922,9816,0,2023-03-01T18:52:26.043981,1735568,1294,1832,94,-1279,-602,-396,-17,145,-185
28923,9817,0,2023-03-01T18:52:26.048942,1735573,1294,1832,94,-1279,-602,-396,-17,145,-185
28924,9818,0,2023-03-01T18:52:26.053849,1735578,1291,1832,96,-1272,-613,-396,-17,145,-185
28925,9819,0,2023-03-01T18:52:26.059552,1735584,1291,1832,96,-1272,-613,-396,-17,145,-185
28926,9820,0,2023-03-01T18:52:26.066318,1735590,1291,1832,96,-1272,-613,-396,-17,145,-185
28927,9821,0,2023-03-01T18:52:26.071367,1735596,1298,1831,96,-1279,-608,-394,-17,145,-185
28928,9822,0,2023-03-01T18:52:26.076941,1735602,1298,1831,96,-1279,-608,-394,-17,145,-185
28929,9823,0,2023-03-01T18:52:26.082675,1735608,1298,1831,96,-1279,-608,-394,-17,145,-185
28930,9824,0,2023-03-01T18:52:26.087222,1735612,1298,1831,96,-1279,-608,-394,-17,145,-185
28931,9825,0,2023-03-01T18:52:26.092282,1735617,1293,1829,101,-1272,-607,-402,-17,145,-185
28932,9826,0,2023-03-01T18:52:26.097944,1735622,1293,1829,101,-1272,-607,-402,-17,145,-185
28933,9827,0,2023-03-01T18:52:26.104349,1735628,1293,1829,101,-1272,-607,-402,-17,145,-185
28934,9828,0,2023-03-01T18:52:26.110342,1735634,1293,1831,102,-1277,-614,-391,-19,153,-189
28935,9829,0,2023-03-01T18:52:26.115191,1735640,1293,1831,102,-1277,-614,-391,-19,153,-189
28936,9830,0,2023-03-01T18:52:26.120318,1735645,1293,1831,102,-1277,-614,-391,-19,153,-189
28937,9831,0,2023-03-01T18:52:26.125025,1735650,1293,1831,102,-1277,-614,-391,-19,153,-189
28938,9832,0,2023-03-01T18:52:26.129747,1735654,1289,1830,103,-1284,-621,-391,-19,153,-189
28939,9833,0,2023-03-01T18:52:26.135393,1735660,1289,1830,103,-1284,-621,-391,-19,153,-189
28940,9834,0,2023-03-01T18:52:26.140770,1735665,1289,1830,103,-1284,-621,-391,-19,153,-189
28941,9835,0,2023-03-01T18:52:26.145355,1735670,1289,1830,103,-1284,-621,-391,-19,153,-189
28942,9836,0,2023-03-01T18:52:26.149977,1735674,1293,1827,111,-1279,-622,-394,-19,153,-189
28943,9837,0,2023-03-01T18:52:26.155459,1735681,1293,1827,111,-1279,-622,-394,-19,153,-189
28944,9838,0,2023-03-01T18:52:26.161066,1735686,1293,1827,111,-1279,-622,-394,-19,153,-189
28945,9839,0,2023-03-01T18:52:26.166974,1735692,1293,1827,111,-1279,-622,-394,-19,153,-189
28946,9840,0,2023-03-01T18:52:26.172196,1735697,1288,1830,98,-1278,-628,-403,-19,153,-189
28947,9841,0,2023-03-01T18:52:26.177400,1735702,1288,1830,98,-1278,-628,-403,-19,153,-189
28948,9842,0,2023-03-01T18:52:26.183207,1735708,1288,1830,98,-1278,-628,-403,-19,153,-189
28949,9843,0,2023-03-01T18:52:26.188091,1735712,1288,1830,98,-1278,-628,-403,-19,153,-189
28950,9844,0,2023-03-01T18:52:26.192862,1735717,1289,1825,110,-1280,-619,-401,-19,153,-189
28951,9845,0,2023-03-01T18:52:26.198073,1735723,1289,1825,110,-1280,-619,-401,-19,153,-189
28952,9846,0,2023-03-01T18:52:26.204266,1735729,1289,1825,110,-1280,-619,-401,-19,153,-189
28953,9847,0,2023-03-01T18:52:26.209565,1735734,1289,1825,110,-1280,-619,-401,-19,153,-189
28954,9848,0,2023-03-01T18:52:26.214252,1735739,1290,1828,113,-1291,-620,-409,-19,153,-189
28955,9849,0,2023-03-01T18:52:26.219506,1735744,1290,1828,113,-1291,-620,-409,-19,153,-189
28956,9850,0,2023-03-01T18:52:26.225954,1735750,1290,1828,113,-1291,-620,-409,-19,153,-189
28957,9851,0,2023-03-01T18:52:26.230977,1735755,1292,1825,99,-1285,-630,-400,-23,145,-187
28958,9852,0,2023-03-01T18:52:26.236561,1735761,1292,1825,99,-1285,-630,-400,-23,145,-187
28959,9853,0,2023-03-01T18:52:26.242061,1735767,1292,1825,99,-1285,-630,-400,-23,145,-187
28960,9854,0,2023-03-01T18:52:26.247860,1735773,1292,1825,99,-1285,-630,-400,-23,145,-187
28961,9855,0,2023-03-01T18:52:26.253111,1735778,1287,1830,117,-1273,-618,-397,-23,145,-187
28962,9856,0,2023-03-01T18:52:26.258402,1735783,1287,1830,117,-1273,-618,-397,-23,145,-187
28963,9857,0,2023-03-01T18:52:26.264644,1735789,1287,1830,117,-1273,-618,-397,-23,145,-187
28964,9858,0,2023-03-01T18:52:26.269482,1735794,1290,1831,105,-1280,-621,-396,-23,145,-187
28965,9859,0,2023-03-01T18:52:26.274776,1735799,1290,1831,105,-1280,-621,-396,-23,145,-187
28966,9860,0,2023-03-01T18:52:26.280003,1735804,1290,1831,105,-1280,-621,-396,-23,145,-187
28967,9861,0,2023-03-01T18:52:26.285552,1735810,1290,1831,105,-1280,-621,-396,-23,145,-187
28968,9862,0,2023-03-01T18:52:26.290652,1735815,1292,1830,105,-1280,-619,-395,-23,145,-187
28969,9863,0,2023-03-01T18:52:26.296311,1735821,1292,1830,105,-1280,-619,-395,-23,145,-187
28970,9864,0,2023-03-01T18:52:26.301908,1735827,1292,1830,105,-1280,-619,-395,-23,145,-187
28971,9865,0,2023-03-01T18:52:26.307619,1735832,1292,1830,105,-1280,-619,-395,-23,145,-187
28972,9866,0,2023-03-01T18:52:26.312417,1735837,1295,1829,113,-1278,-619,-398,-23,145,-187
28973,9867,0,2023-03-01T18:52:26.318143,1735842,1295,1829,113,-1278,-619,-398,-23,145,-187
28974,9868,0,2023-03-01T18:52:26.323985,1735848,1295,1829,113,-1278,-619,-398,-23,145,-187
28975,9869,0,2023-03-01T18:52:26.329092,1735854,1295,1829,113,-1278,-619,-398,-23,145,-187
28976,9870,0,2023-03-01T18:52:26.334346,1735859,1287,1827,101,-1273,-618,-400,-23,145,-187
28977,9871,0,2023-03-01T18:52:26.340043,1735865,1287,1827,101,-1273,-618,-400,-23,145,-187
28978,9872,0,2023-03-01T18:52:26.346314,1735871,1287,1827,101,-1273,-618,-400,-23,145,-187
28979,9873,0,2023-03-01T18:52:26.351557,1735876,1291,1832,112,-1293,-607,-406,-23,145,-187
28980,9874,0,2023-03-01T18:52:26.356900,1735881,1291,1832,112,-1293,-607,-406,-23,145,-187
28981,9875,0,2023-03-01T18:52:26.364425,1735888,1291,1832,112,-1293,-607,-406,-23,145,-187
28982,9876,0,2023-03-01T18:52:26.369343,1735894,1291,1832,112,-1293,-607,-406,-23,145,-187
28983,9877,0,2023-03-01T18:52:26.374376,1735899,1288,1832,121,-1288,-625,-393,-16,146,-186
28984,9878,0,2023-03-01T18:52:26.380093,1735905,1288,1832,121,-1288,-625,-393,-16,146,-186
28985,9879,0,2023-03-01T18:52:26.386545,1735911,1288,1832,121,-1288,-625,-393,-16,146,-186
28986,9880,0,2023-03-01T18:52:26.391536,1735916,1287,1826,111,-1274,-621,-407,-16,146,-186
28987,9881,0,2023-03-01T18:52:26.397105,1735921,1287,1826,111,-1274,-621,-407,-16,146,-186
28988,9882,0,2023-03-01T18:52:26.402540,1735927,1287,1826,111,-1274,-621,-407,-16,146,-186
28989,9883,0,2023-03-01T18:52:26.408420,1735932,1287,1826,111,-1274,-621,-407,-16,146,-186
28990,9884,0,2023-03-01T18:52:26.413512,1735938,1287,1827,115,-1270,-620,-399,-16,146,-186
28991,9885,0,2023-03-01T18:52:26.418967,1735944,1287,1827,115,-1270,-620,-399,-16,146,-186
28992,9886,0,2023-03-01T18:52:26.425269,1735950,1287,1827,115,-1270,-620,-399,-16,146,-186
28993,9887,0,2023-03-01T18:52:26.430549,1735955,1289,1828,117,-1273,-617,-409,-16,146,-186
28994,9888,0,2023-03-01T18:52:26.436127,1735960,1289,1828,117,-1273,-617,-409,-16,146,-186
28995,9889,0,2023-03-01T18:52:26.441598,1735966,1289,1828,117,-1273,-617,-409,-16,146,-186
28996,9890,0,2023-03-01T18:52:26.446750,1735971,1289,1828,117,-1273,-617,-409,-16,146,-186
28997,9891,0,2023-03-01T18:52:26.451745,1735976,1286,1828,118,-1279,-629,-403,-16,146,-186
28998,9892,0,2023-03-01T18:52:26.457522,1735982,1286,1828,118,-1279,-629,-403,-16,146,-186
28999,9893,0,2023-03-01T18:52:26.463334,1735988,1286,1828,118,-1279,-629,-403,-16,146,-186
29000,9894,0,2023-03-01T18:52:26.468726,1735993,1286,1828,118,-1279,-629,-403,-16,146,-186
29001,9895,0,2023-03-01T18:52:26.474416,1735999,1288,1831,115,-1277,-622,-399,-16,146,-186
29002,9896,0,2023-03-01T18:52:26.479814,1736004,1288,1831,115,-1277,-622,-399,-16,146,-186
29003,9897,0,2023-03-01T18:52:26.485930,1736010,1288,1831,115,-1277,-622,-399,-16,146,-186
29004,9898,0,2023-03-01T18:52:26.490696,1736015,1286,1831,115,-1267,-619,-404,-17,147,-191
29005,9899,0,2023-03-01T18:52:26.495941,1736020,1286,1831,115,-1267,-619,-404,-17,147,-191
29006,9900,0,2023-03-01T18:52:26.501019,1736026,1286,1831,115,-1267,-619,-404,-17,147,-191
29007,9901,0,2023-03-01T18:52:26.506336,1736031,1286,1831,115,-1267,-619,-404,-17,147,-191
29008,9902,0,2023-03-01T18:52:26.511212,1736036,1289,1828,121,-1289,-626,-403,-17,147,-191
29009,9903,0,2023-03-01T18:52:26.516427,1736041,1289,1828,121,-1289,-626,-403,-17,147,-191
29010,9904,0,2023-03-01T18:52:26.522339,1736047,1289,1828,121,-1289,-626,-403,-17,147,-191
29011,9905,0,2023-03-01T18:52:26.527902,1736052,1289,1828,121,-1289,-626,-403,-17,147,-191
29012,9906,0,2023-03-01T18:52:26.533235,1736057,1284,1827,123,-1280,-617,-412,-17,147,-191
29013,9907,0,2023-03-01T18:52:26.538043,1736062,1284,1827,123,-1280,-617,-412,-17,147,-191
29014,9908,0,2023-03-01T18:52:26.543941,1736069,1284,1827,123,-1280,-617,-412,-17,147,-191
29015,9909,0,2023-03-01T18:52:26.549261,1736074,1284,1827,123,-1280,-617,-412,-17,147,-191
29016,9910,0,2023-03-01T18:52:26.554029,1736079,1287,1828,119,-1289,-627,-406,-17,147,-191
29017,9911,0,2023-03-01T18:52:26.559587,1736084,1287,1828,119,-1289,-627,-406,-17,147,-191
29018,9912,0,2023-03-01T18:52:26.565960,1736090,1287,1828,119,-1289,-627,-406,-17,147,-191
29019,9913,0,2023-03-01T18:52:26.571222,1736095,1286,1826,123,-1285,-623,-403,-17,147,-191
29020,9914,0,2023-03-01T18:52:26.577268,1736101,1286,1826,123,-1285,-623,-403,-17,147,-191
29021,9915,0,2023-03-01T18:52:26.583207,1736108,1286,1826,123,-1285,-623,-403,-17,147,-191
29022,9916,0,2023-03-01T18:52:26.588155,1736113,1286,1826,123,-1285,-623,-403,-17,147,-191
29023,9917,0,2023-03-01T18:52:26.593321,1736118,1287,1826,122,-1278,-623,-391,-17,147,-191
29024,9918,0,2023-03-01T18:52:26.599089,1736123,1287,1826,122,-1278,-623,-391,-17,147,-191
29025,9919,0,2023-03-01T18:52:26.605472,1736130,1287,1826,122,-1278,-623,-391,-17,147,-191
29026,9920,0,2023-03-01T18:52:26.610267,1736135,1281,1828,119,-1284,-619,-395,-17,147,-191
29027,9921,0,2023-03-01T18:52:26.615729,1736140,1281,1828,119,-1284,-619,-395,-17,147,-191
29028,9922,0,2023-03-01T18:52:26.620906,1736145,1281,1828,119,-1284,-619,-395,-17,147,-191
29029,9923,0,2023-03-01T18:52:26.625667,1736150,1281,1828,119,-1284,-619,-395,-17,147,-191
29030,9924,0,2023-03-01T18:52:26.630490,1736155,1283,1829,130,-1283,-618,-402,-19,143,-183
29031,9925,0,2023-03-01T18:52:26.636296,1736161,1283,1829,130,-1283,-618,-402,-19,143,-183
29032,9926,0,2023-03-01T18:52:26.641784,1736166,1283,1829,130,-1283,-618,-402,-19,143,-183
29033,9927,0,2023-03-01T18:52:26.647149,1736172,1283,1829,130,-1283,-618,-402,-19,143,-183
29034,9928,0,2023-03-01T18:52:26.651989,1736176,1287,1830,132,-1285,-625,-405,-19,143,-183
29035,9929,0,2023-03-01T18:52:26.657321,1736182,1287,1830,132,-1285,-625,-405,-19,143,-183
29036,9930,0,2023-03-01T18:52:26.663269,1736187,1287,1830,132,-1285,-625,-405,-19,143,-183
29037,9931,0,2023-03-01T18:52:26.668208,1736193,1287,1830,132,-1285,-625,-405,-19,143,-183
29038,9932,0,2023-03-01T18:52:26.672876,1736198,1283,1827,132,-1275,-619,-403,-19,143,-183
29039,9933,0,2023-03-01T18:52:26.678142,1736203,1283,1827,132,-1275,-619,-403,-19,143,-183
29040,9934,0,2023-03-01T18:52:26.683882,1736209,1283,1827,132,-1275,-619,-403,-19,143,-183
29041,9935,0,2023-03-01T18:52:26.689003,1736213,1283,1827,132,-1275,-619,-403,-19,143,-183
29042,9936,0,2023-03-01T18:52:26.693893,1736218,1284,1828,129,-1280,-613,-400,-19,143,-183
29043,9937,0,2023-03-01T18:52:26.699347,1736224,1284,1828,129,-1280,-613,-400,-19,143,-183
29044,9938,0,2023-03-01T18:52:26.705272,1736229,1284,1828,129,-1280,-613,-400,-19,143,-183
29045,9939,0,2023-03-01T18:52:26.710476,1736235,1288,1826,127,-1282,-615,-389,-19,143,-183
29046,9940,0,2023-03-01T18:52:26.715942,1736241,1288,1826,127,-1282,-615,-389,-19,143,-183
29047,9941,0,2023-03-01T18:52:26.722182,1736247,1288,1826,127,-1282,-615,-389,-19,143,-183
29048,9942,0,2023-03-01T18:52:26.727736,1736252,1288,1826,127,-1282,-615,-389,-19,143,-183
29049,9943,0,2023-03-01T18:52:26.732835,1736257,1280,1826,122,-1280,-611,-399,-19,143,-183
29050,9944,0,2023-03-01T18:52:26.738802,1736263,1280,1826,122,-1280,-611,-399,-19,143,-183
29051,9945,0,2023-03-01T18:52:26.745383,1736269,1280,1826,122,-1280,-611,-399,-19,143,-183
29052,9946,0,2023-03-01T18:52:26.750397,1736275,1286,1827,132,-1273,-617,-400,-20,142,-180
29053,9947,0,2023-03-01T18:52:26.756311,1736281,1286,1827,132,-1273,-617,-400,-20,142,-180
29054,9948,0,2023-03-01T18:52:26.762081,1736287,1286,1827,132,-1273,-617,-400,-20,142,-180
29055,9949,0,2023-03-01T18:52:26.767021,1736292,1286,1827,132,-1273,-617,-400,-20,142,-180
29056,9950,0,2023-03-01T18:52:26.772826,1736297,1282,1826,128,-1273,-616,-408,-20,142,-180
29057,9951,0,2023-03-01T18:52:26.778791,1736303,1282,1826,128,-1273,-616,-408,-20,142,-180
29058,9952,0,2023-03-01T18:52:26.784542,1736309,1282,1826,128,-1273,-616,-408,-20,142,-180
29059,9953,0,2023-03-01T18:52:26.789671,1736314,1282,1826,128,-1273,-616,-408,-20,142,-180
29060,9954,0,2023-03-01T18:52:26.794525,1736320,1284,1828,136,-1286,-609,-413,-20,142,-180
29061,9955,0,2023-03-01T18:52:26.800342,1736325,1284,1828,136,-1286,-609,-413,-20,142,-180
29062,9956,0,2023-03-01T18:52:26.806373,1736331,1284,1828,136,-1286,-609,-413,-20,142,-180
29063,9957,0,2023-03-01T18:52:26.811371,1736336,1284,1825,140,-1277,-618,-407,-20,142,-180
29064,9958,0,2023-03-01T18:52:26.817382,1736341,1284,1825,140,-1277,-618,-407,-20,142,-180
29065,9959,0,2023-03-01T18:52:26.822511,1736347,1284,1825,140,-1277,-618,-407,-20,142,-180
29066,9960,0,2023-03-01T18:52:26.827680,1736352,1284,1825,140,-1277,-618,-407,-20,142,-180
29067,9961,0,2023-03-01T18:52:26.833380,1736357,1282,1826,137,-1278,-603,-396,-20,142,-180
29068,9962,0,2023-03-01T18:52:26.838753,1736364,1282,1826,137,-1278,-603,-396,-20,142,-180
29069,9963,0,2023-03-01T18:52:26.844588,1736369,1282,1826,137,-1278,-603,-396,-20,142,-180
29070,9964,0,2023-03-01T18:52:26.849660,1736374,1282,1826,137,-1278,-603,-396,-20,142,-180
29071,9965,0,2023-03-01T18:52:26.855272,1736380,1281,1825,134,-1281,-604,-394,-20,142,-180
29072,9966,0,2023-03-01T18:52:26.861880,1736386,1281,1825,134,-1281,-604,-394,-20,142,-180
29073,9967,0,2023-03-01T18:52:26.867392,1736392,1281,1825,134,-1281,-604,-394,-20,142,-180
29074,9968,0,2023-03-01T18:52:26.872819,1736397,1284,1825,133,-1275,-603,-404,-20,142,-180
29075,9969,0,2023-03-01T18:52:26.878404,1736402,1284,1825,133,-1275,-603,-404,-20,142,-180
29076,9970,0,2023-03-01T18:52:26.884660,1736410,1284,1825,133,-1275,-603,-404,-20,142,-180
29077,9971,0,2023-03-01T18:52:26.889487,1736414,1284,1825,133,-1275,-603,-404,-20,142,-180
29078,9972,0,2023-03-01T18:52:26.894329,1736419,1280,1824,138,-1274,-623,-396,-20,152,-188
29079,9973,0,2023-03-01T18:52:26.899679,1736424,1280,1824,138,-1274,-623,-396,-20,152,-188
29080,9974,0,2023-03-01T18:52:26.905330,1736430,1280,1824,138,-1274,-623,-396,-20,152,-188
29081,9975,0,2023-03-01T18:52:26.910452,1736435,1282,1824,137,-1281,-614,-404,-20,152,-188
29082,9976,0,2023-03-01T18:52:26.916136,1736440,1282,1824,137,-1281,-614,-404,-20,152,-188
29083,9977,0,2023-03-01T18:52:26.921559,1736446,1282,1824,137,-1281,-614,-404,-20,152,-188
29084,9978,0,2023-03-01T18:52:26.927034,1736451,1282,1824,137,-1281,-614,-404,-20,152,-188
29085,9979,0,2023-03-01T18:52:26.931874,1736457,1279,1826,136,-1278,-613,-399,-20,152,-188
29086,9980,0,2023-03-01T18:52:26.937661,1736462,1279,1826,136,-1278,-613,-399,-20,152,-188
29087,9981,0,2023-03-01T18:52:26.943572,1736468,1279,1826,136,-1278,-613,-399,-20,152,-188
29088,9982,0,2023-03-01T18:52:26.948700,1736473,1279,1826,136,-1278,-613,-399,-20,152,-188
29089,9983,0,2023-03-01T18:52:26.953712,1736478,1280,1826,138,-1274,-611,-407,-20,152,-188
29090,9984,0,2023-03-01T18:52:26.959679,1736484,1280,1826,138,-1274,-611,-407,-20,152,-188
29091,9985,0,2023-03-01T18:52:26.966119,1736491,1280,1826,138,-1274,-611,-407,-20,152,-188
29092,9986,0,2023-03-01T18:52:26.971204,1736496,1279,1825,144,-1271,-607,-394,-20,152,-188
29093,9987,0,2023-03-01T18:52:26.976864,1736502,1279,1825,144,-1271,-607,-394,-20,152,-188
29094,9988,0,2023-03-01T18:52:26.982344,1736507,1279,1825,144,-1271,-607,-394,-20,152,-188
29095,9989,0,2023-03-01T18:52:26.988233,1736512,1279,1825,144,-1271,-607,-394,-20,152,-188
29096,9990,0,2023-03-01T18:52:26.993413,1736518,1281,1827,137,-1277,-614,-403,-20,152,-188
29097,9991,0,2023-03-01T18:52:26.998822,1736523,1281,1827,137,-1277,-614,-403,-20,152,-188
29098,9992,0,2023-03-01T18:52:27.005127,1736529,1281,1827,137,-1277,-614,-403,-20,152,-188
29099,9993,0,2023-03-01T18:52:27.009950,1736535,1281,1827,137,-1277,-614,-403,-20,152,-188
29100,9994,0,2023-03-01T18:52:27.014832,1736540,1278,1827,144,-1280,-609,-408,-20,146,-176
29101,9995,0,2023-03-01T18:52:27.020949,1736545,1278,1827,144,-1280,-609,-408,-20,146,-176
29102,9996,0,2023-03-01T18:52:27.027021,1736552,1278,1827,144,-1280,-609,-408,-20,146,-176
29103,9997,0,2023-03-01T18:52:27.031833,1736556,1278,1823,144,-1273,-612,-406,-20,146,-176
29104,9998,0,2023-03-01T18:52:27.037572,1736562,1278,1823,144,-1273,-612,-406,-20,146,-176
29105,9999,0,2023-03-01T18:52:27.043256,1736567,1278,1823,144,-1273,-612,-406,-20,146,-176
29106,0,0,2023-03-01T18:52:27.057227,1736582,1278,1825,142,-1277,-610,-395,-20,146,-176
29107,1,0,2023-03-01T18:52:27.063324,1736588,1278,1825,142,-1277,-610,-395,-20,146,-176
29108,2,0,2023-03-01T18:52:27.068354,1736593,1278,1825,142,-1277,-610,-395,-20,146,-176
29109,3,0,2023-03-01T18:52:27.073174,1736598,1276,1824,145,-1276,-613,-408,-20,146,-176
29110,4,0,2023-03-01T18:52:27.079255,1736603,1276,1824,145,-1276,-613,-408,-20,146,-176
29111,5,0,2023-03-01T18:52:27.084972,1736609,1276,1824,145,-1276,-613,-408,-20,146,-176
29112,6,0,2023-03-01T18:52:27.090178,1736614,1276,1824,145,-1276,-613,-408,-20,146,-176
29113,7,0,2023-03-01T18:52:27.095139,1736620,1279,1829,146,-1275,-614,-401,-20,146,-176
29114,8,0,2023-03-01T18:52:27.101034,1736626,1279,1829,146,-1275,-614,-401,-20,146,-176
29115,9,0,2023-03-01T18:52:27.107347,1736632,1279,1829,146,-1275,-614,-401,-20,146,-176
29116,10,0,2023-03-01T18:52:27.112105,1736637,1280,1826,147,-1270,-611,-397,-20,146,-176
29117,11,0,2023-03-01T18:52:27.117271,1736642,1280,1826,147,-1270,-611,-397,-20,146,-176
29118,12,0,2023-03-01T18:52:27.122318,1736647,1280,1826,147,-1270,-611,-397,-20,146,-176
29119,13,0,2023-03-01T18:52:27.127623,1736652,1280,1826,147,-1270,-611,-397,-20,146,-176
29120,14,0,2023-03-01T18:52:27.133124,1736657,1282,1826,149,-1292,-621,-408,-24,150,-186
29121,15,0,2023-03-01T18:52:27.138779,1736664,1282,1826,149,-1292,-621,-408,-24,150,-186
29122,16,0,2023-03-01T18:52:27.144314,1736669,1282,1826,149,-1292,-621,-408,-24,150,-186
29123,17,0,2023-03-01T18:52:27.149282,1736674,1282,1826,149,-1292,-621,-408,-24,150,-186
29124,18,0,2023-03-01T18:52:27.154458,1736679,1282,1822,154,-1275,-617,-403,-24,150,-186
29125,19,0,2023-03-01T18:52:27.159905,1736684,1282,1822,154,-1275,-617,-403,-24,150,-186
29126,20,0,2023-03-01T18:52:27.165061,1736690,1282,1822,154,-1275,-617,-403,-24,150,-186
29127,21,0,2023-03-01T18:52:27.169959,1736694,1282,1822,154,-1275,-617,-403,-24,150,-186
29128,22,0,2023-03-01T18:52:27.174830,1736699,1279,1822,152,-1276,-614,-403,-24,150,-186
29129,23,0,2023-03-01T18:52:27.180768,1736706,1279,1822,152,-1276,-614,-403,-24,150,-186
29130,24,0,2023-03-01T18:52:27.186522,1736712,1279,1822,152,-1276,-614,-403,-24,150,-186
29131,25,0,2023-03-01T18:52:27.191317,1736716,1277,1822,155,-1277,-609,-402,-24,150,-186
29132,26,0,2023-03-01T18:52:27.196769,1736721,1277,1822,155,-1277,-609,-402,-24,150,-186
29133,27,0,2023-03-01T18:52:27.201945,1736727,1277,1822,155,-1277,-609,-402,-24,150,-186
29134,28,0,2023-03-01T18:52:27.206472,1736731,1277,1822,155,-1277,-609,-402,-24,150,-186
29135,29,0,2023-03-01T18:52:27.212262,1736736,1275,1824,159,-1267,-607,-406,-24,150,-186
29136,30,0,2023-03-01T18:52:27.217648,1736742,1275,1824,159,-1267,-607,-406,-24,150,-186
29137,31,0,2023-03-01T18:52:27.223626,1736749,1275,1824,159,-1267,-607,-406,-24,150,-186
29138,32,0,2023-03-01T18:52:27.228748,1736754,1275,1824,159,-1267,-607,-406,-24,150,-186
29139,33,0,2023-03-01T18:52:27.233406,1736758,1280,1823,146,-1283,-621,-399,-24,150,-186
29140,34,0,2023-03-01T18:52:27.239713,1736764,1280,1823,146,-1283,-621,-399,-24,150,-186
29141,35,0,2023-03-01T18:52:27.246094,1736771,1280,1823,146,-1283,-621,-399,-24,150,-186
29142,36,0,2023-03-01T18:52:27.250969,1736775,1277,1823,160,-1273,-612,-407,-24,150,-186
29143,37,0,2023-03-01T18:52:27.256551,1736781,1277,1823,160,-1273,-612,-407,-24,150,-186
29144,38,0,2023-03-01T18:52:27.261818,1736786,1277,1823,160,-1273,-612,-407,-24,150,-186
29145,39,0,2023-03-01T18:52:27.267626,1736792,1277,1823,160,-1273,-612,-407,-24,150,-186
29146,40,0,2023-03-01T18:52:27.272256,1736797,1275,1825,154,-1288,-625,-403,-21,147,-185
29147,41,0,2023-03-01T18:52:27.277658,1736802,1275,1825,154,-1288,-625,-403,-21,147,-185
29148,42,0,2023-03-01T18:52:27.283190,1736808,1275,1825,154,-1288,-625,-403,-21,147,-185
29149,43,0,2023-03-01T18:52:27.288016,1736813,1275,1825,154,-1288,-625,-403,-21,147,-185
29150,44,0,2023-03-01T18:52:27.292907,1736817,1273,1819,159,-1287,-618,-396,-21,147,-185
29151,45,0,2023-03-01T18:52:27.298372,1736823,1273,1819,159,-1287,-618,-396,-21,147,-185
29152,46,0,2023-03-01T18:52:27.304182,1736828,1273,1819,159,-1287,-618,-396,-21,147,-185
29153,47,0,2023-03-01T18:52:27.308922,1736834,1273,1819,159,-1287,-618,-396,-21,147,-185
29154,48,0,2023-03-01T18:52:27.314216,1736839,1273,1819,159,-1287,-618,-396,-21,147,-185
29155,49,0,2023-03-01T18:52:27.318806,1736844,1273,1819,159,-1287,-618,-396,-21,147,-185
29156,50,0,2023-03-01T18:52:27.324128,1736849,1273,1819,159,-1287,-618,-396,-21,147,-185
29157,51,0,2023-03-01T18:52:27.328894,1736853,1273,1819,159,-1287,-618,-396,-21,147,-185
29158,52,0,2023-03-01T18:52:27.333485,1736858,1280,1822,155,-1273,-624,-404,-21,147,-185
29159,53,0,2023-03-01T18:52:27.338842,1736863,1280,1822,155,-1273,-624,-404,-21,147,-185
29160,54,0,2023-03-01T18:52:27.344540,1736869,1280,1822,155,-1273,-624,-404,-21,147,-185
29161,55,0,2023-03-01T18:52:27.349414,1736875,1280,1822,155,-1273,-624,-404,-21,147,-185
29162,56,0,2023-03-01T18:52:27.354163,1736879,1275,1826,160,-1269,-625,-411,-21,147,-185
29163,57,0,2023-03-01T18:52:27.359907,1736885,1275,1826,160,-1269,-625,-411,-21,147,-185
29164,58,0,2023-03-01T18:52:27.365564,1736890,1275,1826,160,-1269,-625,-411,-21,147,-185
29165,59,0,2023-03-01T18:52:27.370454,1736895,1275,1826,160,-1269,-625,-411,-21,147,-185
29166,60,0,2023-03-01T18:52:27.375341,1736900,1274,1822,159,-1269,-624,-407,-21,147,-185
29167,61,0,2023-03-01T18:52:27.381412,1736906,1274,1822,159,-1269,-624,-407,-21,147,-185
29168,62,0,2023-03-01T18:52:27.386408,1736911,1274,1822,159,-1269,-624,-407,-21,147,-185
29169,63,0,2023-03-01T18:52:27.391149,1736915,1274,1826,156,-1277,-620,-404,-21,147,-185
29170,64,0,2023-03-01T18:52:27.396840,1736922,1274,1826,156,-1277,-620,-404,-21,145,-183
29171,65,0,2023-03-01T18:52:27.402154,1736927,1274,1826,156,-1277,-620,-404,-21,145,-183
29172,66,0,2023-03-01T18:52:27.407757,1736932,1274,1826,156,-1277,-620,-404,-21,145,-183
29173,67,0,2023-03-01T18:52:27.412715,1736937,1275,1823,170,-1272,-623,-400,-21,145,-183
29174,68,0,2023-03-01T18:52:27.418356,1736943,1275,1823,170,-1272,-623,-400,-21,145,-183
29175,69,0,2023-03-01T18:52:27.424180,1736949,1275,1823,170,-1272,-623,-400,-21,145,-183
29176,70,0,2023-03-01T18:52:27.429160,1736953,1275,1823,170,-1272,-623,-400,-21,145,-183
29177,71,0,2023-03-01T18:52:27.433950,1736958,1273,1822,165,-1265,-618,-407,-21,145,-183
29178,72,0,2023-03-01T18:52:27.439611,1736965,1273,1822,165,-1265,-618,-407,-21,145,-183
29179,73,0,2023-03-01T18:52:27.445322,1736970,1273,1822,165,-1265,-618,-407,-21,145,-183
29180,74,0,2023-03-01T18:52:27.450039,1736975,1273,1822,165,-1265,-618,-407,-21,145,-183
29181,75,0,2023-03-01T18:52:27.455253,1736980,1269,1819,168,-1268,-620,-398,-21,145,-183
29182,76,0,2023-03-01T18:52:27.461844,1736986,1269,1819,168,-1268,-620,-398,-21,145,-183
29183,77,0,2023-03-01T18:52:27.468209,1736993,1269,1819,168,-1268,-620,-398,-21,145,-183
29184,78,0,2023-03-01T18:52:27.472871,1736997,1276,1821,156,-1279,-618,-399,-21,145,-183
29185,79,0,2023-03-01T18:52:27.478273,1737003,1276,1821,156,-1279,-618,-399,-21,145,-183
29186,80,0,2023-03-01T18:52:27.484050,1737009,1276,1821,156,-1279,-618,-399,-21,145,-183
29187,81,0,2023-03-01T18:52:27.489021,1737014,1276,1821,156,-1279,-618,-399,-21,145,-183
29188,82,0,2023-03-01T18:52:27.494285,1737019,1275,1823,164,-1268,-619,-411,-21,145,-183
29189,83,0,2023-03-01T18:52:27.499598,1737024,1275,1823,164,-1268,-619,-411,-21,145,-183
29190,84,0,2023-03-01T18:52:27.504373,1737029,1275,1823,164,-1268,-619,-411,-21,145,-183
29191,85,0,2023-03-01T18:52:27.509011,1737033,1275,1823,164,-1268,-619,-411,-21,145,-183
29192,86,0,2023-03-01T18:52:27.514063,1737038,1276,1823,167,-1280,-632,-409,-21,145,-183
29193,87,0,2023-03-01T18:52:27.519714,1737044,1276,1823,167,-1280,-632,-409,-21,145,-183
29194,88,0,2023-03-01T18:52:27.525622,1737050,1276,1823,167,-1280,-632,-409,-21,145,-183
29195,89,0,2023-03-01T18:52:27.530885,1737056,1276,1823,167,-1280,-632,-409,-21,145,-183
29196,90,0,2023-03-01T18:52:27.535997,1737061,1270,1823,169,-1283,-615,-395,-11,151,-185
29197,91,0,2023-03-01T18:52:27.541418,1737066,1270,1823,169,-1283,-615,-395,-11,151,-185
29198,92,0,2023-03-01T18:52:27.546305,1737071,1270,1823,169,-1283,-615,-395,-11,151,-185
29199,93,0,2023-03-01T18:52:27.551270,1737076,1274,1822,170,-1283,-615,-404,-11,151,-185
29200,94,0,2023-03-01T18:52:27.556676,1737081,1274,1822,170,-1283,-615,-404,-11,151,-185
29201,95,0,2023-03-01T18:52:27.561895,1737086,1274,1822,170,-1283,-615,-404,-11,151,-185
29202,96,0,2023-03-01T18:52:27.567262,1737092,1274,1822,170,-1283,-615,-404,-11,151,-185
29203,97,0,2023-03-01T18:52:27.572028,1737097,1274,1822,169,-1290,-619,-406,-11,151,-185
29204,98,0,2023-03-01T18:52:27.577440,1737102,1274,1822,169,-1290,-619,-406,-11,151,-185
29205,99,0,2023-03-01T18:52:27.583123,1737108,1274,1822,169,-1290,-619,-406,-11,151,-185
29206,100,0,2023-03-01T18:52:27.587870,1737112,1274,1822,169,-1290,-619,-406,-11,151,-185
29207,101,0,2023-03-01T18:52:27.592743,1737117,1274,1819,171,-1284,-623,-409,-11,151,-185
29208,102,0,2023-03-01T18:52:27.599040,1737123,1274,1819,171,-1284,-623,-409,-11,151,-185
29209,103,0,2023-03-01T18:52:27.605028,1737129,1274,1819,171,-1284,-623,-409,-11,151,-185
29210,104,0,2023-03-01T18:52:27.609639,1737135,1274,1819,171,-1284,-623,-409,-11,151,-185
29211,105,0,2023-03-01T18:52:27.614348,1737139,1272,1821,169,-1288,-621,-409,-11,151,-185
29212,106,0,2023-03-01T18:52:27.619753,1737145,1272,1821,169,-1288,-621,-409,-11,151,-185
29213,107,0,2023-03-01T18:52:27.625752,1737150,1272,1821,169,-1288,-621,-409,-11,151,-185
29214,108,0,2023-03-01T18:52:27.630759,1737155,1272,1821,169,-1288,-621,-409,-11,151,-185
29215,109,0,2023-03-01T18:52:27.635829,1737160,1271,1818,168,-1276,-616,-406,-11,151,-185
29216,110,0,2023-03-01T18:52:27.641748,1737166,1271,1818,168,-1276,-616,-406,-11,151,-185
29217,111,0,2023-03-01T18:52:27.646289,1737170,1271,1818,168,-1276,-616,-406,-11,151,-185
29218,112,0,2023-03-01T18:52:27.651296,1737176,1269,1821,180,-1283,-621,-412,-16,152,-180
29219,113,0,2023-03-01T18:52:27.656597,1737182,1269,1821,180,-1283,-621,-412,-16,152,-180
29220,114,0,2023-03-01T18:52:27.661870,1737187,1269,1821,180,-1283,-621,-412,-16,152,-180
29221,115,0,2023-03-01T18:52:27.666891,1737191,1269,1821,180,-1283,-621,-412,-16,152,-180
29222,116,0,2023-03-01T18:52:27.672014,1737196,1272,1820,177,-1293,-631,-413,-16,152,-180
29223,117,0,2023-03-01T18:52:27.677196,1737202,1272,1820,177,-1293,-631,-413,-16,152,-180
29224,118,0,2023-03-01T18:52:27.682235,1737207,1272,1820,177,-1293,-631,-413,-16,152,-180
29225,119,0,2023-03-01T18:52:27.687166,1737211,1272,1820,177,-1293,-631,-413,-16,152,-180
29226,120,0,2023-03-01T18:52:27.692681,1737217,1272,1821,178,-1287,-623,-418,-16,152,-180
29227,121,0,2023-03-01T18:52:27.697296,1737222,1272,1821,178,-1287,-623,-418,-16,152,-180
29228,122,0,2023-03-01T18:52:27.702657,1737227,1272,1821,178,-1287,-623,-418,-16,152,-180
29229,123,0,2023-03-01T18:52:27.708174,1737233,1272,1821,178,-1287,-623,-418,-16,152,-180
29230,124,0,2023-03-01T18:52:27.712921,1737237,1272,1819,177,-1283,-620,-410,-16,152,-180
29231,125,0,2023-03-01T18:52:27.719081,1737243,1272,1819,177,-1283,-620,-410,-16,152,-180
29232,126,0,2023-03-01T18:52:27.724876,1737249,1272,1819,177,-1283,-620,-410,-16,152,-180
29233,127,0,2023-03-01T18:52:27.729524,1737254,1272,1819,177,-1283,-620,-410,-16,152,-180
29234,128,0,2023-03-01T18:52:27.734754,1737260,1268,1821,180,-1282,-620,-400,-16,152,-180
29235,129,0,2023-03-01T18:52:27.739717,1737265,1268,1821,180,-1282,-620,-400,-16,152,-180
29236,130,0,2023-03-01T18:52:27.746006,1737271,1268,1821,180,-1282,-620,-400,-16,152,-180
29237,131,0,2023-03-01T18:52:27.750966,1737276,1268,1821,180,-1282,-620,-400,-16,152,-180
29238,132,0,2023-03-01T18:52:27.755862,1737281,1269,1823,179,-1282,-621,-402,-16,152,-180
29239,133,0,2023-03-01T18:52:27.761957,1737286,1269,1823,179,-1282,-621,-402,-16,152,-180
29240,134,0,2023-03-01T18:52:27.767146,1737291,1269,1823,179,-1282,-621,-402,-16,152,-180
29241,135,0,2023-03-01T18:52:27.771860,1737296,1269,1821,177,-1280,-616,-404,-16,152,-180
29242,136,0,2023-03-01T18:52:27.777290,1737302,1269,1821,177,-1280,-616,-404,-16,152,-180
29243,137,0,2023-03-01T18:52:27.782787,1737308,1269,1821,177,-1280,-616,-404,-16,152,-180
29244,138,0,2023-03-01T18:52:27.787467,1737312,1269,1821,177,-1280,-616,-404,-16,152,-180
29245,139,0,2023-03-01T18:52:27.792652,1737317,1268,1818,183,-1287,-612,-407,-21,151,-183
29246,140,0,2023-03-01T18:52:27.799020,1737323,1268,1818,183,-1287,-612,-407,-21,151,-183
29247,141,0,2023-03-01T18:52:27.805160,1737329,1268,1818,183,-1287,-612,-407,-21,151,-183
29248,142,0,2023-03-01T18:52:27.810466,1737335,1268,1818,183,-1287,-612,-407,-21,151,-183
29249,143,0,2023-03-01T18:52:27.815768,1737340,1266,1820,180,-1283,-622,-407,-21,151,-183
29250,144,0,2023-03-01T18:52:27.821508,1737347,1266,1820,180,-1283,-622,-407,-21,151,-183
29251,145,0,2023-03-01T18:52:27.827002,1737352,1266,1820,180,-1283,-622,-407,-21,151,-183
29252,146,0,2023-03-01T18:52:27.831947,1737357,1264,1817,178,-1282,-619,-412,-21,151,-183
29253,147,0,2023-03-01T18:52:27.837562,1737362,1264,1817,178,-1282,-619,-412,-21,151,-183
29254,148,0,2023-03-01T18:52:27.842854,1737367,1264,1817,178,-1282,-619,-412,-21,151,-183
29255,149,0,2023-03-01T18:52:27.848131,1737373,1264,1817,178,-1282,-619,-412,-21,151,-183
29256,150,0,2023-03-01T18:52:27.853005,1737377,1268,1818,180,-1283,-628,-410,-21,151,-183
29257,151,0,2023-03-01T18:52:27.859021,1737383,1268,1818,180,-1283,-628,-410,-21,151,-183
29258,152,0,2023-03-01T18:52:27.865065,1737390,1268,1818,180,-1283,-628,-410,-21,151,-183
29259,153,0,2023-03-01T18:52:27.869447,1737395,1268,1818,180,-1283,-628,-410,-21,151,-183
29260,154,0,2023-03-01T18:52:27.874541,1737399,1269,1820,183,-1277,-621,-413,-21,151,-183
29261,155,0,2023-03-01T18:52:27.880044,1737405,1269,1820,183,-1277,-621,-413,-21,151,-183
29262,156,0,2023-03-01T18:52:27.886265,1737411,1269,1820,183,-1277,-621,-413,-21,151,-183
29263,157,0,2023-03-01T18:52:27.891367,1737416,1267,1819,187,-1294,-625,-406,-21,151,-183
29264,158,0,2023-03-01T18:52:27.896598,1737421,1267,1819,187,-1294,-625,-406,-21,151,-183
29265,159,0,2023-03-01T18:52:27.902487,1737426,1267,1819,187,-1294,-625,-406,-21,151,-183
29266,160,0,2023-03-01T18:52:27.908224,1737433,1267,1819,187,-1294,-625,-406,-21,151,-183
29267,161,0,2023-03-01T18:52:27.913169,1737438,1269,1818,191,-1297,-631,-407,-17,149,-173
29268,162,0,2023-03-01T18:52:27.918686,1737443,1269,1818,191,-1297,-631,-407,-17,149,-173
29269,163,0,2023-03-01T18:52:27.924332,1737449,1269,1818,191,-1297,-631,-407,-17,149,-173
29270,164,0,2023-03-01T18:52:27.929140,1737454,1269,1818,191,-1297,-631,-407,-17,149,-173
29271,165,0,2023-03-01T18:52:27.933782,1737458,1269,1821,191,-1287,-624,-413,-17,149,-173
29272,166,0,2023-03-01T18:52:27.939428,1737464,1269,1821,191,-1287,-624,-413,-17,149,-173
29273,167,0,2023-03-01T18:52:27.945586,1737470,1269,1821,191,-1287,-624,-413,-17,149,-173
29274,168,0,2023-03-01T18:52:27.950275,1737475,1269,1821,191,-1287,-624,-413,-17,149,-173
29275,169,0,2023-03-01T18:52:27.955087,1737480,1267,1815,186,-1298,-625,-418,-17,149,-173
29276,170,0,2023-03-01T18:52:27.960489,1737485,1267,1815,186,-1298,-625,-418,-17,149,-173
29277,171,0,2023-03-01T18:52:27.967612,1737492,1267,1815,186,-1298,-625,-418,-17,149,-173
29278,172,0,2023-03-01T18:52:27.972695,1737497,1268,1816,189,-1285,-618,-411,-17,149,-173
29279,173,0,2023-03-01T18:52:27.978034,1737502,1268,1816,189,-1285,-618,-411,-17,149,-173
29280,174,0,2023-03-01T18:52:27.983575,1737508,1268,1816,189,-1285,-618,-411,-17,149,-173
29281,175,0,2023-03-01T18:52:27.989290,1737513,1268,1816,189,-1285,-618,-411,-17,149,-173
29282,176,0,2023-03-01T18:52:27.994671,1737519,1265,1818,190,-1297,-624,-408,-17,149,-173
29283,177,0,2023-03-01T18:52:28.000123,1737525,1265,1818,190,-1297,-624,-408,-17,149,-173
29284,178,0,2023-03-01T18:52:28.005738,1737530,1265,1818,190,-1297,-624,-408,-17,149,-173
29285,179,0,2023-03-01T18:52:28.010940,1737535,1265,1818,190,-1297,-624,-408,-17,149,-173
29286,180,0,2023-03-01T18:52:28.016149,1737540,1267,1819,187,-1294,-624,-409,-17,149,-173
29287,181,0,2023-03-01T18:52:28.022454,1737547,1267,1819,187,-1294,-624,-409,-17,149,-173
29288,182,0,2023-03-01T18:52:28.028088,1737553,1267,1819,187,-1294,-624,-409,-17,149,-173
29289,183,0,2023-03-01T18:52:28.032660,1737558,1264,1816,191,-1293,-617,-412,-16,146,-178
29290,184,0,2023-03-01T18:52:28.038175,1737563,1264,1816,191,-1293,-617,-412,-16,146,-178
29291,185,0,2023-03-01T18:52:28.043772,1737569,1264,1816,191,-1293,-617,-412,-16,146,-178
29292,186,0,2023-03-01T18:52:28.048534,1737573,1264,1816,191,-1293,-617,-412,-16,146,-178
29293,187,0,2023-03-01T18:52:28.054919,1737579,1266,1819,195,-1293,-625,-415,-16,146,-178
29294,188,0,2023-03-01T18:52:28.059504,1737584,1266,1819,195,-1293,-625,-415,-16,146,-178
29295,189,0,2023-03-01T18:52:28.064798,1737589,1266,1819,195,-1293,-625,-415,-16,146,-178
29296,190,0,2023-03-01T18:52:28.069976,1737594,1266,1819,195,-1293,-625,-415,-16,146,-178
29297,191,0,2023-03-01T18:52:28.075014,1737600,1263,1818,195,-1268,-624,-414,-16,146,-178
29298,192,0,2023-03-01T18:52:28.080558,1737606,1263,1818,195,-1268,-624,-414,-16,146,-178
29299,193,0,2023-03-01T18:52:28.086631,1737611,1263,1818,195,-1268,-624,-414,-16,146,-178
29300,194,0,2023-03-01T18:52:28.091769,1737616,1263,1818,195,-1268,-624,-414,-16,146,-178
29301,195,0,2023-03-01T18:52:28.097314,1737622,1263,1816,191,-1283,-624,-411,-16,146,-178
29302,196,0,2023-03-01T18:52:28.105669,1737630,1263,1816,191,-1283,-624,-411,-16,146,-178
29303,197,0,2023-03-01T18:52:28.111283,1737636,1263,1816,191,-1283,-624,-411,-16,146,-178
29304,198,0,2023-03-01T18:52:28.116396,1737640,1262,1815,190,-1276,-622,-414,-16,146,-178
29305,199,0,2023-03-01T18:52:28.124068,1737649,1262,1815,190,-1276,-622,-414,-16,146,-178
29306,200,0,2023-03-01T18:52:28.128695,1737654,1262,1815,190,-1276,-622,-414,-16,146,-178
29307,201,0,2023-03-01T18:52:28.133611,1737658,1263,1816,198,-1288,-631,-420,-16,146,-178
29308,202,0,2023-03-01T18:52:28.139515,1737664,1263,1816,198,-1288,-631,-420,-16,146,-178
29309,203,0,2023-03-01T18:52:28.144678,1737669,1263,1816,198,-1288,-631,-420,-16,146,-178
29310,204,0,2023-03-01T18:52:28.149818,1737674,1263,1816,198,-1288,-631,-420,-16,146,-178
29311,205,0,2023-03-01T18:52:28.155249,1737679,1263,1818,198,-1284,-623,-403,-16,146,-178
29312,206,0,2023-03-01T18:52:28.160518,1737686,1263,1818,198,-1284,-623,-403,-16,146,-178
29313,207,0,2023-03-01T18:52:28.167158,1737692,1263,1818,198,-1284,-623,-403,-16,146,-178
29314,208,0,2023-03-01T18:52:28.172231,1737697,1261,1816,205,-1289,-616,-414,-13,153,-177
29315,209,0,2023-03-01T18:52:28.177605,1737702,1261,1816,205,-1289,-616,-414,-13,153,-177
29316,210,0,2023-03-01T18:52:28.183054,1737708,1261,1816,205,-1289,-616,-414,-13,153,-177
29317,211,0,2023-03-01T18:52:28.188380,1737713,1261,1816,205,-1289,-616,-414,-13,153,-177
29318,212,0,2023-03-01T18:52:28.193664,1737718,1266,1819,200,-1295,-605,-407,-13,153,-177
29319,213,0,2023-03-01T18:52:28.199699,1737724,1266,1819,200,-1295,-605,-407,-13,153,-177
29320,214,0,2023-03-01T18:52:28.205468,1737731,1266,1819,200,-1295,-605,-407,-13,153,-177
29321,215,0,2023-03-01T18:52:28.210333,1737735,1266,1819,200,-1295,-605,-407,-13,153,-177
29322,216,0,2023-03-01T18:52:28.215282,1737740,1263,1817,203,-1277,-604,-406,-13,153,-177
29323,217,0,2023-03-01T18:52:28.221731,1737746,1263,1817,203,-1277,-604,-406,-13,153,-177
29324,218,0,2023-03-01T18:52:28.227378,1737752,1263,1817,203,-1277,-604,-406,-13,153,-177
29325,219,0,2023-03-01T18:52:28.232058,1737757,1262,1816,199,-1275,-597,-392,-13,153,-177
29326,220,0,2023-03-01T18:52:28.237934,1737762,1262,1816,199,-1275,-597,-392,-13,153,-177
29327,221,0,2023-03-01T18:52:28.243683,1737768,1262,1816,199,-1275,-597,-392,-13,153,-177
29328,222,0,2023-03-01T18:52:28.249577,1737775,1262,1816,199,-1275,-597,-392,-13,153,-177
29329,223,0,2023-03-01T18:52:28.254590,1737779,1266,1820,204,-1275,-586,-399,-13,153,-177
29330,224,0,2023-03-01T18:52:28.260001,1737785,1266,1820,204,-1275,-586,-399,-13,153,-177
29331,225,0,2023-03-01T18:52:28.265468,1737790,1266,1820,204,-1275,-586,-399,-13,153,-177
29332,226,0,2023-03-01T18:52:28.270022,1737795,1266,1820,204,-1275,-586,-399,-13,153,-177
29333,227,0,2023-03-01T18:52:28.275046,1737799,1263,1816,196,-1283,-594,-402,-13,153,-177
29334,228,0,2023-03-01T18:52:28.280535,1737805,1263,1816,196,-1283,-594,-402,-13,153,-177
29335,229,0,2023-03-01T18:52:28.286836,1737811,1263,1816,196,-1283,-594,-402,-13,153,-177
29336,230,0,2023-03-01T18:52:28.291916,1737817,1263,1816,196,-1283,-594,-402,-13,153,-177
29337,231,0,2023-03-01T18:52:28.296841,1737822,1266,1814,203,-1279,-596,-401,-12,146,-172
29338,232,0,2023-03-01T18:52:28.303101,1737828,1266,1814,203,-1279,-596,-401,-12,146,-172
29339,233,0,2023-03-01T18:52:28.308001,1737833,1266,1814,203,-1279,-596,-401,-12,146,-172
29340,234,0,2023-03-01T18:52:28.312787,1737837,1262,1817,207,-1273,-591,-405,-12,146,-172
29341,235,0,2023-03-01T18:52:28.318580,1737843,1262,1817,207,-1273,-591,-405,-12,146,-172
29342,236,0,2023-03-01T18:52:28.324089,1737848,1262,1817,207,-1273,-591,-405,-12,146,-172
29343,237,0,2023-03-01T18:52:28.330813,1737856,1262,1817,207,-1273,-591,-405,-12,146,-172
29344,238,0,2023-03-01T18:52:28.335862,1737861,1262,1812,205,-1283,-603,-400,-12,146,-172
29345,239,0,2023-03-01T18:52:28.342042,1737867,1262,1812,205,-1283,-603,-400,-12,146,-172
29346,240,0,2023-03-01T18:52:28.347238,1737872,1262,1812,205,-1283,-603,-400,-12,146,-172
29347,241,0,2023-03-01T18:52:28.352497,1737877,1265,1817,209,-1281,-614,-414,-12,146,-172
29348,242,0,2023-03-01T18:52:28.357955,1737882,1265,1817,209,-1281,-614,-414,-12,146,-172
29349,243,0,2023-03-01T18:52:28.363534,1737888,1265,1817,209,-1281,-614,-414,-12,146,-172
29350,244,0,2023-03-01T18:52:28.369311,1737894,1265,1817,209,-1281,-614,-414,-12,146,-172
29351,245,0,2023-03-01T18:52:28.374366,1737900,1258,1816,216,-1283,-609,-398,-12,146,-172
29352,246,0,2023-03-01T18:52:28.380149,1737905,1258,1816,216,-1283,-609,-398,-12,146,-172
29353,247,0,2023-03-01T18:52:28.386570,1737911,1258,1816,216,-1283,-609,-398,-12,146,-172
29354,248,0,2023-03-01T18:52:28.391522,1737916,1258,1816,216,-1283,-609,-398,-12,146,-172
29355,249,0,2023-03-01T18:52:28.396318,1737921,1261,1813,207,-1290,-608,-408,-12,146,-172
29356,250,0,2023-03-01T18:52:28.402473,1737927,1261,1813,207,-1290,-608,-408,-12,146,-172
29357,251,0,2023-03-01T18:52:28.408394,1737932,1261,1813,207,-1290,-608,-408,-12,146,-172
29358,252,0,2023-03-01T18:52:28.413237,1737937,1259,1813,214,-1278,-605,-408,-12,146,-172
29359,253,0,2023-03-01T18:52:28.418941,1737944,1259,1813,214,-1278,-605,-408,-12,146,-172
29360,254,0,2023-03-01T18:52:28.425171,1737950,1259,1813,214,-1278,-605,-408,-12,146,-172
29361,255,0,2023-03-01T18:52:28.430671,1737955,1259,1813,214,-1278,-605,-408,-12,146,-172
29362,256,0,2023-03-01T18:52:28.435833,1737960,1255,1814,216,-1280,-608,-408,-20,146,-170
29363,257,0,2023-03-01T18:52:28.442112,1737966,1255,1814,216,-1280,-608,-408,-20,146,-170
29364,258,0,2023-03-01T18:52:28.447887,1737972,1255,1814,216,-1280,-608,-408,-20,146,-170
29365,259,0,2023-03-01T18:52:28.452665,1737977,1260,1815,217,-1278,-602,-403,-20,146,-170
29366,260,0,2023-03-01T18:52:28.458101,1737982,1260,1815,217,-1278,-602,-403,-20,146,-170
29367,261,0,2023-03-01T18:52:28.463826,1737989,1260,1815,217,-1278,-602,-403,-20,146,-170
29368,262,0,2023-03-01T18:52:28.469839,1737995,1260,1815,217,-1278,-602,-403,-20,146,-170
29369,263,0,2023-03-01T18:52:28.474824,1738000,1258,1817,215,-1298,-597,-399,-20,146,-170
29370,264,0,2023-03-01T18:52:28.480381,1738005,1258,1817,215,-1298,-597,-399,-20,146,-170
29371,265,0,2023-03-01T18:52:28.487021,1738011,1258,1817,215,-1298,-597,-399,-20,146,-170
29372,266,0,2023-03-01T18:52:28.492225,1738016,1258,1817,215,-1298,-597,-399,-20,146,-170
29373,267,0,2023-03-01T18:52:28.497413,1738021,1258,1814,207,-1293,-594,-407,-20,146,-170
29374,268,0,2023-03-01T18:52:28.502520,1738027,1258,1814,207,-1293,-594,-407,-20,146,-170
29375,269,0,2023-03-01T18:52:28.508033,1738033,1258,1814,207,-1293,-594,-407,-20,146,-170
29376,270,0,2023-03-01T18:52:28.513155,1738038,1258,1817,215,-1285,-589,-409,-20,146,-170
29377,271,0,2023-03-01T18:52:28.519308,1738044,1258,1817,215,-1285,-589,-409,-20,146,-170
29378,272,0,2023-03-01T18:52:28.525884,1738050,1258,1817,215,-1285,-589,-409,-20,146,-170
29379,273,0,2023-03-01T18:52:28.530706,1738055,1258,1817,215,-1285,-589,-409,-20,146,-170
29380,274,0,2023-03-01T18:52:28.535668,1738060,1259,1815,213,-1290,-592,-406,-20,146,-170
29381,275,0,2023-03-01T18:52:28.541269,1738065,1259,1815,213,-1290,-592,-406,-20,146,-170
29382,276,0,2023-03-01T18:52:28.546618,1738071,1259,1815,213,-1290,-592,-406,-20,146,-170
29383,277,0,2023-03-01T18:52:28.551579,1738077,1259,1815,213,-1290,-592,-406,-20,146,-170
29384,278,0,2023-03-01T18:52:28.556360,1738081,1257,1814,220,-1283,-594,-406,-20,150,-168
29385,279,0,2023-03-01T18:52:28.562200,1738087,1257,1814,220,-1283,-594,-406,-20,150,-168
29386,280,0,2023-03-01T18:52:28.566987,1738092,1257,1814,220,-1283,-594,-406,-20,150,-168
29387,281,0,2023-03-01T18:52:28.571911,1738097,1257,1814,220,-1283,-594,-406,-20,150,-168
29388,282,0,2023-03-01T18:52:28.576853,1738101,1257,1817,221,-1290,-588,-408,-20,150,-168
29389,283,0,2023-03-01T18:52:28.583360,1738108,1257,1817,221,-1290,-588,-408,-20,150,-168
29390,284,0,2023-03-01T18:52:28.588922,1738114,1257,1817,221,-1290,-588,-408,-20,150,-168
29391,285,0,2023-03-01T18:52:28.594234,1738119,1260,1810,215,-1267,-600,-402,-20,150,-168
29392,286,0,2023-03-01T18:52:28.599987,1738125,1260,1810,215,-1267,-600,-402,-20,150,-168
29393,287,0,2023-03-01T18:52:28.606174,1738131,1260,1810,215,-1267,-600,-402,-20,150,-168
29394,288,0,2023-03-01T18:52:28.611013,1738136,1260,1810,215,-1267,-600,-402,-20,150,-168
29395,289,0,2023-03-01T18:52:28.615988,1738140,1259,1812,222,-1281,-590,-409,-20,150,-168
29396,290,0,2023-03-01T18:52:28.621860,1738146,1259,1812,222,-1281,-590,-409,-20,150,-168
29397,291,0,2023-03-01T18:52:28.626831,1738151,1259,1812,222,-1281,-590,-409,-20,150,-168
29398,292,0,2023-03-01T18:52:28.631844,1738157,1259,1812,222,-1281,-590,-409,-20,150,-168
29399,293,0,2023-03-01T18:52:28.636743,1738162,1254,1816,224,-1284,-601,-413,-20,150,-168
