,Unnamed: 0,imu,server_time,arduino_time,ax,ay,az,gx,gy,gz,mx,my,mz
29400,294,0,2023-03-01T18:52:28.642640,1738167,1254,1816,224,-1284,-601,-413,-20,150,-168
29401,295,0,2023-03-01T18:52:28.647632,1738172,1254,1816,224,-1284,-601,-413,-20,150,-168
29402,296,0,2023-03-01T18:52:28.652206,1738177,1256,1812,224,-1287,-604,-419,-20,150,-168
29403,297,0,2023-03-01T18:52:28.658556,1738182,1256,1812,224,-1287,-604,-419,-20,150,-168
29404,298,0,2023-03-01T18:52:28.664111,1738188,1256,1812,224,-1287,-604,-419,-20,150,-168
29405,299,0,2023-03-01T18:52:28.669519,1738194,1256,1812,224,-1287,-604,-419,-20,150,-168
29406,300,0,2023-03-01T18:52:28.674489,1738200,1253,1812,220,-1291,-604,-413,-20,150,-168
29407,301,0,2023-03-01T18:52:28.680137,1738205,1253,1812,220,-1291,-604,-413,-20,150,-168
29408,302,0,2023-03-01T18:52:28.687321,1738212,1253,1812,220,-1291,-604,-413,-20,150,-168
29409,303,0,2023-03-01T18:52:28.692909,1738217,1253,1812,220,-1291,-604,-413,-20,150,-168
29410,304,0,2023-03-01T18:52:28.697873,1738222,1257,1809,231,-1285,-592,-408,-18,152,-176
29411,305,0,2023-03-01T18:52:28.703654,1738228,1257,1809,231,-1285,-592,-408,-18,152,-176
29412,306,0,2023-03-01T18:52:28.708597,1738233,1257,1809,231,-1285,-592,-408,-18,152,-176
29413,307,0,2023-03-01T18:52:28.713245,1738237,1251,1811,228,-1287,-602,-413,-18,152,-176
29414,308,0,2023-03-01T18:52:28.718925,1738244,1251,1811,228,-1287,-602,-413,-18,152,-176
29415,309,0,2023-03-01T18:52:28.724535,1738249,1251,1811,228,-1287,-602,-413,-18,152,-176
29416,310,0,2023-03-01T18:52:28.729807,1738255,1251,1811,228,-1287,-602,-413,-18,152,-176
29417,311,0,2023-03-01T18:52:28.734874,1738260,1253,1813,230,-1282,-599,-419,-18,152,-176
29418,312,0,2023-03-01T18:52:28.740299,1738265,1253,1813,230,-1282,-599,-419,-18,152,-176
29419,313,0,2023-03-01T18:52:28.746539,1738271,1253,1813,230,-1282,-599,-419,-18,152,-176
29420,314,0,2023-03-01T18:52:28.751369,1738276,1253,1813,230,-1282,-599,-419,-18,152,-176
29421,315,0,2023-03-01T18:52:28.756592,1738281,1252,1812,223,-1287,-599,-412,-18,152,-176
29422,316,0,2023-03-01T18:52:28.762594,1738288,1252,1812,223,-1287,-599,-412,-18,152,-176
29423,317,0,2023-03-01T18:52:28.767494,1738292,1252,1812,223,-1287,-599,-412,-18,152,-176
29424,318,0,2023-03-01T18:52:28.772348,1738297,1252,1812,223,-1287,-599,-412,-18,152,-176
29425,319,0,2023-03-01T18:52:28.777218,1738302,1258,1811,231,-1289,-608,-412,-18,152,-176
29426,320,0,2023-03-01T18:52:28.782991,1738308,1258,1811,231,-1289,-608,-412,-18,152,-176
29427,321,0,2023-03-01T18:52:28.787835,1738312,1258,1811,231,-1289,-608,-412,-18,152,-176
29428,322,0,2023-03-01T18:52:28.792759,1738317,1251,1811,230,-1287,-602,-407,-18,152,-176
29429,323,0,2023-03-01T18:52:28.798349,1738323,1251,1811,230,-1287,-602,-407,-18,152,-176
29430,324,0,2023-03-01T18:52:28.804198,1738329,1251,1811,230,-1287,-602,-407,-18,152,-176
29431,325,0,2023-03-01T18:52:28.809075,1738334,1251,1811,230,-1287,-602,-407,-18,152,-176
29432,326,0,2023-03-01T18:52:28.814001,1738339,1254,1813,234,-1295,-602,-409,-7,147,-177
29433,327,0,2023-03-01T18:52:28.819441,1738344,1254,1813,234,-1295,-602,-409,-7,147,-177
29434,328,0,2023-03-01T18:52:28.826068,1738351,1254,1813,234,-1295,-602,-409,-7,147,-177
29435,329,0,2023-03-01T18:52:28.830909,1738355,1254,1813,234,-1295,-602,-409,-7,147,-177
29436,330,0,2023-03-01T18:52:28.835967,1738360,1251,1811,232,-1295,-590,-415,-7,147,-177
29437,331,0,2023-03-01T18:52:28.841636,1738366,1251,1811,232,-1295,-590,-415,-7,147,-177
29438,332,0,2023-03-01T18:52:28.847093,1738372,1251,1811,232,-1295,-590,-415,-7,147,-177
29439,333,0,2023-03-01T18:52:28.851694,1738377,1251,1811,232,-1295,-590,-415,-7,147,-177
29440,334,0,2023-03-01T18:52:28.856547,1738381,1248,1807,234,-1290,-594,-405,-7,147,-177
29441,335,0,2023-03-01T18:52:28.862411,1738387,1248,1807,234,-1290,-594,-405,-7,147,-177
29442,336,0,2023-03-01T18:52:28.867728,1738392,1248,1807,234,-1290,-594,-405,-7,147,-177
29443,337,0,2023-03-01T18:52:28.872634,1738397,1248,1807,234,-1290,-594,-405,-7,147,-177
29444,338,0,2023-03-01T18:52:28.877763,1738402,1252,1810,226,-1297,-611,-408,-7,147,-177
29445,339,0,2023-03-01T18:52:28.883966,1738408,1252,1810,226,-1297,-611,-408,-7,147,-177
29446,340,0,2023-03-01T18:52:28.889132,1738414,1252,1810,226,-1297,-611,-408,-7,147,-177
29447,341,0,2023-03-01T18:52:28.893906,1738419,1254,1809,234,-1288,-609,-404,-7,147,-177
29448,342,0,2023-03-01T18:52:28.899555,1738424,1254,1809,234,-1288,-609,-404,-7,147,-177
29449,343,0,2023-03-01T18:52:28.905767,1738430,1254,1809,234,-1288,-609,-404,-7,147,-177
29450,344,0,2023-03-01T18:52:28.910751,1738435,1254,1809,234,-1288,-609,-404,-7,147,-177
29451,345,0,2023-03-01T18:52:28.916097,1738440,1251,1810,236,-1291,-597,-413,-7,147,-177
29452,346,0,2023-03-01T18:52:28.922070,1738446,1251,1810,236,-1291,-597,-413,-7,147,-177
29453,347,0,2023-03-01T18:52:28.927539,1738452,1251,1810,236,-1291,-597,-413,-7,147,-177
29454,348,0,2023-03-01T18:52:28.932573,1738457,1251,1810,236,-1291,-597,-413,-7,147,-177
29455,349,0,2023-03-01T18:52:28.937499,1738462,1250,1808,231,-1289,-597,-412,-7,153,-169
29456,350,0,2023-03-01T18:52:28.943662,1738468,1250,1808,231,-1289,-597,-412,-7,153,-169
29457,351,0,2023-03-01T18:52:28.948559,1738473,1250,1808,231,-1289,-597,-412,-7,153,-169
29458,352,0,2023-03-01T18:52:28.953789,1738478,1251,1811,236,-1295,-601,-410,-7,153,-169
29459,353,0,2023-03-01T18:52:28.958958,1738483,1251,1811,236,-1295,-601,-410,-7,153,-169
29460,354,0,2023-03-01T18:52:28.964963,1738489,1251,1811,236,-1295,-601,-410,-7,153,-169
29461,355,0,2023-03-01T18:52:28.970528,1738496,1251,1811,236,-1295,-601,-410,-7,153,-169
29462,356,0,2023-03-01T18:52:28.975055,1738500,1254,1811,238,-1288,-594,-407,-7,153,-169
29463,357,0,2023-03-01T18:52:28.980926,1738506,1254,1811,238,-1288,-594,-407,-7,153,-169
29464,358,0,2023-03-01T18:52:28.986762,1738512,1254,1811,238,-1288,-594,-407,-7,153,-169
29465,359,0,2023-03-01T18:52:28.991795,1738516,1254,1811,238,-1288,-594,-407,-7,153,-169
29466,360,0,2023-03-01T18:52:28.996619,1738521,1246,1812,239,-1292,-600,-407,-7,153,-169
29467,361,0,2023-03-01T18:52:29.002444,1738527,1246,1812,239,-1292,-600,-407,-7,153,-169
29468,362,0,2023-03-01T18:52:29.009599,1738533,1246,1812,239,-1292,-600,-407,-7,153,-169
29469,363,0,2023-03-01T18:52:29.015455,1738541,1248,1810,244,-1299,-602,-404,-7,153,-169
29470,364,0,2023-03-01T18:52:29.020918,1738546,1248,1810,244,-1299,-602,-404,-7,153,-169
29471,365,0,2023-03-01T18:52:29.026590,1738551,1248,1810,244,-1299,-602,-404,-7,153,-169
29472,366,0,2023-03-01T18:52:29.031332,1738556,1248,1810,244,-1299,-602,-404,-7,153,-169
29473,367,0,2023-03-01T18:52:29.035984,1738561,1248,1808,242,-1292,-599,-417,-7,153,-169
29474,368,0,2023-03-01T18:52:29.042144,1738566,1248,1808,242,-1292,-599,-417,-7,153,-169
29475,369,0,2023-03-01T18:52:29.047884,1738572,1248,1808,242,-1292,-599,-417,-7,153,-169
29476,370,0,2023-03-01T18:52:29.053255,1738577,1248,1808,242,-1292,-599,-417,-7,153,-169
29477,371,0,2023-03-01T18:52:29.057898,1738583,1251,1814,248,-1287,-595,-415,-7,153,-169
29478,372,0,2023-03-01T18:52:29.063694,1738589,1251,1814,248,-1287,-595,-415,-7,153,-169
29479,373,0,2023-03-01T18:52:29.068575,1738593,1251,1814,248,-1287,-595,-415,-7,153,-169
29480,374,0,2023-03-01T18:52:29.073366,1738598,1246,1809,244,-1279,-591,-414,-17,149,-177
29481,375,0,2023-03-01T18:52:29.078509,1738603,1246,1809,244,-1279,-591,-414,-17,149,-177
29482,376,0,2023-03-01T18:52:29.083562,1738608,1246,1809,244,-1279,-591,-414,-17,149,-177
29483,377,0,2023-03-01T18:52:29.088446,1738613,1246,1809,244,-1279,-591,-414,-17,149,-177
29484,378,0,2023-03-01T18:52:29.093657,1738618,1248,1809,247,-1280,-589,-413,-17,149,-177
29485,379,0,2023-03-01T18:52:29.098905,1738624,1248,1809,247,-1280,-589,-413,-17,149,-177
29486,380,0,2023-03-01T18:52:29.103926,1738629,1248,1809,247,-1280,-589,-413,-17,149,-177
29487,381,0,2023-03-01T18:52:29.109343,1738634,1248,1809,247,-1280,-589,-413,-17,149,-177
29488,382,0,2023-03-01T18:52:29.113944,1738639,1247,1803,243,-1301,-597,-404,-17,149,-177
29489,383,0,2023-03-01T18:52:29.119548,1738644,1247,1803,243,-1301,-597,-404,-17,149,-177
29490,384,0,2023-03-01T18:52:29.126352,1738651,1247,1803,243,-1301,-597,-404,-17,149,-177
29491,385,0,2023-03-01T18:52:29.131087,1738656,1247,1803,243,-1301,-597,-404,-17,149,-177
29492,386,0,2023-03-01T18:52:29.136206,1738660,1246,1807,251,-1285,-589,-424,-17,149,-177
29493,387,0,2023-03-01T18:52:29.142430,1738667,1246,1807,251,-1285,-589,-424,-17,149,-177
29494,388,0,2023-03-01T18:52:29.148257,1738673,1246,1807,251,-1285,-589,-424,-17,149,-177
29495,389,0,2023-03-01T18:52:29.153002,1738678,1246,1803,249,-1281,-597,-417,-17,149,-177
29496,390,0,2023-03-01T18:52:29.158545,1738683,1246,1803,249,-1281,-597,-417,-17,149,-177
29497,391,0,2023-03-01T18:52:29.163961,1738689,1246,1803,249,-1281,-597,-417,-17,149,-177
29498,392,0,2023-03-01T18:52:29.169103,1738694,1246,1803,249,-1281,-597,-417,-17,149,-177
29499,393,0,2023-03-01T18:52:29.174076,1738698,1248,1806,241,-1301,-591,-414,-17,149,-177
29500,394,0,2023-03-01T18:52:29.179894,1738704,1248,1806,241,-1301,-591,-414,-17,149,-177
29501,395,0,2023-03-01T18:52:29.185828,1738711,1248,1806,241,-1301,-591,-414,-17,149,-177
29502,396,0,2023-03-01T18:52:29.190729,1738716,1248,1806,241,-1301,-591,-414,-17,149,-177
29503,397,0,2023-03-01T18:52:29.195187,1738720,1248,1812,249,-1290,-590,-410,-11,149,-175
29504,398,0,2023-03-01T18:52:29.200600,1738725,1248,1812,249,-1290,-590,-410,-11,149,-175
29505,399,0,2023-03-01T18:52:29.206070,1738731,1248,1812,249,-1290,-590,-410,-11,149,-175
29506,400,0,2023-03-01T18:52:29.211071,1738735,1248,1812,249,-1290,-590,-410,-11,149,-175
29507,401,0,2023-03-01T18:52:29.215881,1738740,1249,1808,255,-1290,-591,-411,-11,149,-175
29508,402,0,2023-03-01T18:52:29.221268,1738746,1249,1808,255,-1290,-591,-411,-11,149,-175
29509,403,0,2023-03-01T18:52:29.225886,1738750,1249,1808,255,-1290,-591,-411,-11,149,-175
29510,404,0,2023-03-01T18:52:29.232621,1738758,1249,1808,255,-1290,-591,-411,-11,149,-175
29511,405,0,2023-03-01T18:52:29.237479,1738762,1245,1807,246,-1291,-604,-421,-11,149,-175
29512,406,0,2023-03-01T18:52:29.243639,1738768,1245,1807,246,-1291,-604,-421,-11,149,-175
29513,407,0,2023-03-01T18:52:29.248941,1738774,1245,1807,246,-1291,-604,-421,-11,149,-175
29514,408,0,2023-03-01T18:52:29.253966,1738778,1249,1809,253,-1284,-591,-414,-11,149,-175
29515,409,0,2023-03-01T18:52:29.259304,1738784,1249,1809,253,-1284,-591,-414,-11,149,-175
29516,410,0,2023-03-01T18:52:29.264588,1738789,1249,1809,253,-1284,-591,-414,-11,149,-175
29517,411,0,2023-03-01T18:52:29.269870,1738795,1249,1809,253,-1284,-591,-414,-11,149,-175
29518,412,0,2023-03-01T18:52:29.274700,1738800,1247,1809,247,-1290,-598,-407,-11,149,-175
29519,413,0,2023-03-01T18:52:29.280212,1738805,1247,1809,247,-1290,-598,-407,-11,149,-175
29520,414,0,2023-03-01T18:52:29.285338,1738810,1247,1809,247,-1290,-598,-407,-11,149,-175
29521,415,0,2023-03-01T18:52:29.290472,1738815,1247,1809,247,-1290,-598,-407,-11,149,-175
29522,416,0,2023-03-01T18:52:29.295310,1738820,1247,1808,255,-1290,-597,-412,-11,149,-175
29523,417,0,2023-03-01T18:52:29.300711,1738825,1247,1808,255,-1290,-597,-412,-11,149,-175
29524,418,0,2023-03-01T18:52:29.306621,1738831,1247,1808,255,-1290,-597,-412,-11,149,-175
29525,419,0,2023-03-01T18:52:29.311533,1738836,1247,1808,255,-1290,-597,-412,-11,149,-175
29526,420,0,2023-03-01T18:52:29.316846,1738842,1244,1807,257,-1289,-591,-410,-11,149,-175
29527,421,0,2023-03-01T18:52:29.323059,1738848,1244,1807,257,-1289,-591,-410,-11,149,-175
29528,422,0,2023-03-01T18:52:29.328461,1738853,1244,1807,257,-1289,-591,-410,-11,149,-175
29529,423,0,2023-03-01T18:52:29.333421,1738858,1241,1803,258,-1294,-599,-407,-11,149,-175
29530,424,0,2023-03-01T18:52:29.339566,1738863,1241,1803,258,-1294,-599,-407,-12,150,-182
29531,425,0,2023-03-01T18:52:29.346032,1738870,1241,1803,258,-1294,-599,-407,-12,150,-182
29532,426,0,2023-03-01T18:52:29.351444,1738876,1241,1803,258,-1294,-599,-407,-12,150,-182
29533,427,0,2023-03-01T18:52:29.356145,1738881,1243,1809,257,-1291,-594,-409,-12,150,-182
29534,428,0,2023-03-01T18:52:29.362035,1738887,1243,1809,257,-1291,-594,-409,-12,150,-182
29535,429,0,2023-03-01T18:52:29.367280,1738892,1243,1809,257,-1291,-594,-409,-12,150,-182
29536,430,0,2023-03-01T18:52:29.372803,1738897,1243,1809,257,-1291,-594,-409,-12,150,-182
29537,431,0,2023-03-01T18:52:29.378097,1738902,1243,1809,257,-1291,-594,-409,-12,150,-182
29538,432,0,2023-03-01T18:52:29.383737,1738908,1243,1809,257,-1291,-594,-409,-12,150,-182
29539,433,0,2023-03-01T18:52:29.389121,1738913,1243,1809,257,-1291,-594,-409,-12,150,-182
29540,434,0,2023-03-01T18:52:29.394120,1738918,1243,1807,255,-1292,-597,-412,-12,150,-182
29541,435,0,2023-03-01T18:52:29.399743,1738925,1243,1807,255,-1292,-597,-412,-12,150,-182
29542,436,0,2023-03-01T18:52:29.405994,1738931,1243,1807,255,-1292,-597,-412,-12,150,-182
29543,437,0,2023-03-01T18:52:29.411080,1738936,1243,1807,255,-1292,-597,-412,-12,150,-182
29544,438,0,2023-03-01T18:52:29.417041,1738941,1246,1805,259,-1287,-587,-410,-12,150,-182
29545,439,0,2023-03-01T18:52:29.423087,1738948,1246,1805,259,-1287,-587,-410,-12,150,-182
29546,440,0,2023-03-01T18:52:29.428800,1738953,1246,1805,259,-1287,-587,-410,-12,150,-182
29547,441,0,2023-03-01T18:52:29.433573,1738958,1241,1806,264,-1297,-597,-413,-12,150,-182
29548,442,0,2023-03-01T18:52:29.438733,1738963,1241,1806,264,-1297,-597,-413,-12,150,-182
29549,443,0,2023-03-01T18:52:29.444357,1738969,1241,1806,264,-1297,-597,-413,-12,150,-182
29550,444,0,2023-03-01T18:52:29.451249,1738976,1241,1806,264,-1297,-597,-413,-12,150,-182
29551,445,0,2023-03-01T18:52:29.456175,1738981,1244,1805,267,-1278,-600,-414,-12,146,-170
29552,446,0,2023-03-01T18:52:29.462367,1738987,1244,1805,267,-1278,-600,-414,-12,146,-170
29553,447,0,2023-03-01T18:52:29.467064,1738992,1244,1805,267,-1278,-600,-414,-12,146,-170
29554,448,0,2023-03-01T18:52:29.471820,1738996,1244,1805,267,-1278,-600,-414,-12,146,-170
29555,449,0,2023-03-01T18:52:29.476985,1739001,1244,1805,267,-1278,-600,-414,-12,146,-170
29556,450,0,2023-03-01T18:52:29.481749,1739006,1244,1805,267,-1278,-600,-414,-12,146,-170
29557,451,0,2023-03-01T18:52:29.487353,1739012,1244,1805,267,-1278,-600,-414,-12,146,-170
29558,452,0,2023-03-01T18:52:29.492570,1739018,1244,1805,267,-1278,-600,-414,-12,146,-170
29559,453,0,2023-03-01T18:52:29.497349,1739022,1245,1807,261,-1288,-602,-412,-12,146,-170
29560,454,0,2023-03-01T18:52:29.503417,1739028,1245,1807,261,-1288,-602,-412,-12,146,-170
29561,455,0,2023-03-01T18:52:29.508456,1739033,1245,1807,261,-1288,-602,-412,-12,146,-170
29562,456,0,2023-03-01T18:52:29.513544,1739038,1245,1807,261,-1288,-602,-412,-12,146,-170
29563,457,0,2023-03-01T18:52:29.518439,1739043,1242,1804,268,-1281,-597,-414,-12,146,-170
29564,458,0,2023-03-01T18:52:29.524126,1739049,1242,1804,268,-1281,-597,-414,-12,146,-170
29565,459,0,2023-03-01T18:52:29.529414,1739054,1242,1804,268,-1281,-597,-414,-12,146,-170
29566,460,0,2023-03-01T18:52:29.534586,1739060,1244,1806,267,-1285,-604,-415,-12,146,-170
29567,461,0,2023-03-01T18:52:29.540725,1739065,1244,1806,267,-1285,-604,-415,-12,146,-170
29568,462,0,2023-03-01T18:52:29.547234,1739072,1244,1806,267,-1285,-604,-415,-12,146,-170
29569,463,0,2023-03-01T18:52:29.552602,1739077,1244,1806,267,-1285,-604,-415,-12,146,-170
29570,464,0,2023-03-01T18:52:29.558162,1739082,1242,1803,269,-1275,-601,-408,-12,146,-170
29571,465,0,2023-03-01T18:52:29.564357,1739088,1242,1803,269,-1275,-601,-408,-12,146,-170
29572,466,0,2023-03-01T18:52:29.570046,1739095,1242,1803,269,-1275,-601,-408,-12,146,-170
29573,467,0,2023-03-01T18:52:29.574659,1739100,1240,1803,261,-1287,-597,-414,-12,146,-170
29574,468,0,2023-03-01T18:52:29.580224,1739105,1240,1803,261,-1287,-597,-414,-12,146,-170
29575,469,0,2023-03-01T18:52:29.586464,1739111,1240,1803,261,-1287,-597,-414,-12,146,-170
29576,470,0,2023-03-01T18:52:29.591840,1739116,1240,1803,261,-1287,-597,-414,-12,146,-170
29577,471,0,2023-03-01T18:52:29.597106,1739121,1237,1803,271,-1304,-593,-408,-12,146,-170
29578,472,0,2023-03-01T18:52:29.603233,1739128,1237,1803,271,-1304,-593,-408,-12,146,-170
29579,473,0,2023-03-01T18:52:29.608569,1739133,1237,1803,271,-1304,-593,-408,-12,146,-170
29580,474,0,2023-03-01T18:52:29.613575,1739139,1237,1803,271,-1304,-593,-408,-12,146,-170
29581,475,0,2023-03-01T18:52:29.618350,1739143,1239,1804,274,-1288,-599,-412,-12,146,-170
29582,476,0,2023-03-01T18:52:29.624376,1739149,1239,1804,274,-1288,-599,-412,-12,146,-170
29583,477,0,2023-03-01T18:52:29.629427,1739154,1239,1804,274,-1288,-599,-412,-12,146,-170
29584,478,0,2023-03-01T18:52:29.634407,1739159,1238,1801,273,-1283,-597,-406,-12,146,-170
29585,479,0,2023-03-01T18:52:29.639793,1739164,1238,1801,273,-1283,-597,-406,-12,146,-170
29586,480,0,2023-03-01T18:52:29.645219,1739170,1238,1801,273,-1283,-597,-406,-12,146,-170
29587,481,0,2023-03-01T18:52:29.649891,1739174,1238,1801,273,-1283,-597,-406,-12,146,-170
29588,482,0,2023-03-01T18:52:29.654547,1739180,1244,1800,276,-1284,-590,-411,-12,146,-170
29589,483,0,2023-03-01T18:52:29.660866,1739185,1244,1800,276,-1284,-590,-411,-12,146,-170
29590,484,0,2023-03-01T18:52:29.666241,1739191,1244,1800,276,-1284,-590,-411,-12,146,-170
29591,485,0,2023-03-01T18:52:29.671385,1739196,1244,1800,276,-1284,-590,-411,-12,146,-170
29592,486,0,2023-03-01T18:52:29.676810,1739201,1236,1798,273,-1281,-602,-416,-12,146,-170
29593,487,0,2023-03-01T18:52:29.683394,1739208,1236,1798,273,-1281,-602,-416,-12,146,-170
29594,488,0,2023-03-01T18:52:29.688557,1739213,1236,1798,273,-1281,-602,-416,-12,146,-170
29595,489,0,2023-03-01T18:52:29.693070,1739218,1236,1798,273,-1281,-602,-416,-12,146,-170
29596,490,0,2023-03-01T18:52:29.698163,1739223,1240,1802,271,-1282,-605,-421,-12,146,-170
29597,491,0,2023-03-01T18:52:29.704120,1739229,1240,1802,271,-1282,-605,-421,-12,146,-170
29598,492,0,2023-03-01T18:52:29.709502,1739234,1240,1802,271,-1282,-605,-421,-12,146,-170
29599,493,0,2023-03-01T18:52:29.714414,1739239,1234,1803,283,-1291,-608,-415,-13,151,-181
29600,494,0,2023-03-01T18:52:29.719686,1739244,1234,1803,283,-1291,-608,-415,-13,151,-181
29601,495,0,2023-03-01T18:52:29.724923,1739249,1234,1803,283,-1291,-608,-415,-13,151,-181
29602,496,0,2023-03-01T18:52:29.729561,1739254,1234,1803,283,-1291,-608,-415,-13,151,-181
29603,497,0,2023-03-01T18:52:29.734619,1739259,1241,1800,277,-1297,-608,-414,-13,151,-181
29604,498,0,2023-03-01T18:52:29.739462,1739265,1241,1800,277,-1297,-608,-414,-13,151,-181
29605,499,0,2023-03-01T18:52:29.744799,1739270,1241,1800,277,-1297,-608,-414,-13,151,-181
29606,500,0,2023-03-01T18:52:29.749612,1739275,1241,1800,277,-1297,-608,-414,-13,151,-181
29607,501,0,2023-03-01T18:52:29.754950,1739280,1240,1804,280,-1288,-591,-408,-13,151,-181
29608,502,0,2023-03-01T18:52:29.760511,1739285,1240,1804,280,-1288,-591,-408,-13,151,-181
29609,503,0,2023-03-01T18:52:29.766540,1739291,1240,1804,280,-1288,-591,-408,-13,151,-181
29610,504,0,2023-03-01T18:52:29.771777,1739296,1240,1804,280,-1288,-591,-408,-13,151,-181
29611,505,0,2023-03-01T18:52:29.777438,1739301,1239,1801,280,-1279,-608,-415,-13,151,-181
29612,506,0,2023-03-01T18:52:29.783357,1739308,1239,1801,280,-1279,-608,-415,-13,151,-181
29613,507,0,2023-03-01T18:52:29.788746,1739314,1239,1801,280,-1279,-608,-415,-13,151,-181
29614,508,0,2023-03-01T18:52:29.793634,1739319,1239,1801,280,-1279,-608,-415,-13,151,-181
29615,509,0,2023-03-01T18:52:29.798269,1739323,1235,1804,271,-1279,-598,-421,-13,151,-181
29616,510,0,2023-03-01T18:52:29.804217,1739329,1235,1804,271,-1279,-598,-421,-13,151,-181
29617,511,0,2023-03-01T18:52:29.809225,1739334,1235,1804,271,-1279,-598,-421,-13,151,-181
29618,512,0,2023-03-01T18:52:29.814229,1739339,1241,1802,286,-1270,-595,-412,-13,151,-181
29619,513,0,2023-03-01T18:52:29.819624,1739344,1241,1802,286,-1270,-595,-412,-13,151,-181
29620,514,0,2023-03-01T18:52:29.825290,1739350,1241,1802,286,-1270,-595,-412,-13,151,-181
29621,515,0,2023-03-01T18:52:29.830872,1739356,1241,1802,286,-1270,-595,-412,-13,151,-181
29622,516,0,2023-03-01T18:52:29.836022,1739361,1235,1806,281,-1284,-595,-412,-13,149,-171
29623,517,0,2023-03-01T18:52:29.842160,1739367,1235,1806,281,-1284,-595,-412,-13,149,-171
29624,518,0,2023-03-01T18:52:29.847555,1739372,1235,1806,281,-1284,-595,-412,-13,149,-171
29625,519,0,2023-03-01T18:52:29.852549,1739377,1235,1806,281,-1284,-595,-412,-13,149,-171
29626,520,0,2023-03-01T18:52:29.857405,1739382,1237,1802,286,-1287,-602,-416,-13,149,-171
29627,521,0,2023-03-01T18:52:29.863593,1739387,1237,1802,286,-1287,-602,-416,-13,149,-171
29628,522,0,2023-03-01T18:52:29.868841,1739394,1237,1802,286,-1287,-602,-416,-13,149,-171
29629,523,0,2023-03-01T18:52:29.873691,1739399,1237,1802,286,-1287,-602,-416,-13,149,-171
29630,524,0,2023-03-01T18:52:29.878407,1739403,1234,1803,285,-1300,-602,-417,-13,149,-171
29631,525,0,2023-03-01T18:52:29.886268,1739411,1234,1803,285,-1300,-602,-417,-13,149,-171
29632,526,0,2023-03-01T18:52:29.891069,1739416,1234,1803,285,-1300,-602,-417,-13,149,-171
29633,527,0,2023-03-01T18:52:29.895768,1739420,1235,1799,286,-1288,-599,-412,-13,149,-171
29634,528,0,2023-03-01T18:52:29.901786,1739426,1235,1799,286,-1288,-599,-412,-13,149,-171
29635,529,0,2023-03-01T18:52:29.907422,1739432,1235,1799,286,-1288,-599,-412,-13,149,-171
29636,530,0,2023-03-01T18:52:29.912165,1739437,1235,1799,286,-1288,-599,-412,-13,149,-171
29637,531,0,2023-03-01T18:52:29.917008,1739442,1236,1800,287,-1292,-591,-416,-13,149,-171
29638,532,0,2023-03-01T18:52:29.922775,1739448,1236,1800,287,-1292,-591,-416,-13,149,-171
29639,533,0,2023-03-01T18:52:29.928538,1739453,1236,1800,287,-1292,-591,-416,-13,149,-171
29640,534,0,2023-03-01T18:52:29.933419,1739458,1236,1800,287,-1292,-591,-416,-13,149,-171
29641,535,0,2023-03-01T18:52:29.938415,1739463,1235,1800,284,-1277,-592,-416,-13,149,-171
29642,536,0,2023-03-01T18:52:29.944398,1739469,1235,1800,284,-1277,-592,-416,-13,149,-171
29643,537,0,2023-03-01T18:52:29.949492,1739474,1235,1800,284,-1277,-592,-416,-13,149,-171
29644,538,0,2023-03-01T18:52:29.954513,1739480,1234,1802,291,-1281,-586,-413,-13,149,-171
29645,539,0,2023-03-01T18:52:29.959944,1739485,1234,1802,291,-1281,-586,-413,-13,149,-171
29646,540,0,2023-03-01T18:52:29.965534,1739490,1234,1802,291,-1281,-586,-413,-13,149,-171
29647,541,0,2023-03-01T18:52:29.970722,1739495,1234,1802,291,-1281,-586,-413,-13,149,-171
29648,542,0,2023-03-01T18:52:29.975380,1739500,1235,1801,295,-1280,-594,-414,-12,150,-178
29649,543,0,2023-03-01T18:52:29.980874,1739505,1235,1801,295,-1280,-594,-414,-12,150,-178
29650,544,0,2023-03-01T18:52:29.987548,1739512,1235,1801,295,-1280,-594,-414,-12,150,-178
29651,545,0,2023-03-01T18:52:29.992539,1739517,1235,1801,295,-1280,-594,-414,-12,150,-178
29652,546,0,2023-03-01T18:52:29.997468,1739523,1231,1799,295,-1278,-606,-420,-12,150,-178
29653,547,0,2023-03-01T18:52:30.003283,1739528,1231,1799,295,-1278,-606,-420,-12,150,-178
29654,548,0,2023-03-01T18:52:30.008680,1739534,1231,1799,295,-1278,-606,-420,-12,150,-178
29655,549,0,2023-03-01T18:52:30.013965,1739539,1231,1799,295,-1278,-606,-420,-12,150,-178
29656,550,0,2023-03-01T18:52:30.018975,1739543,1233,1803,291,-1286,-606,-416,-12,150,-178
29657,551,0,2023-03-01T18:52:30.025658,1739550,1233,1803,291,-1286,-606,-416,-12,150,-178
29658,552,0,2023-03-01T18:52:30.030822,1739555,1233,1803,291,-1286,-606,-416,-12,150,-178
29659,553,0,2023-03-01T18:52:30.035709,1739560,1233,1800,291,-1283,-598,-416,-12,150,-178
29660,554,0,2023-03-01T18:52:30.041203,1739566,1233,1800,291,-1283,-598,-416,-12,150,-178
29661,555,0,2023-03-01T18:52:30.047392,1739572,1233,1800,291,-1283,-598,-416,-12,150,-178
29662,556,0,2023-03-01T18:52:30.052752,1739578,1233,1800,291,-1283,-598,-416,-12,150,-178
29663,557,0,2023-03-01T18:52:30.058228,1739583,1231,1800,292,-1276,-594,-419,-12,150,-178
29664,558,0,2023-03-01T18:52:30.064460,1739589,1231,1800,292,-1276,-594,-419,-12,150,-178
29665,559,0,2023-03-01T18:52:30.069682,1739594,1231,1800,292,-1276,-594,-419,-12,150,-178
29666,560,0,2023-03-01T18:52:30.074886,1739599,1229,1795,287,-1283,-596,-409,-12,150,-178
29667,561,0,2023-03-01T18:52:30.080620,1739606,1229,1795,287,-1283,-596,-409,-12,150,-178
29668,562,0,2023-03-01T18:52:30.087191,1739612,1229,1795,287,-1283,-596,-409,-12,150,-178
29669,563,0,2023-03-01T18:52:30.092011,1739617,1229,1795,287,-1283,-596,-409,-12,150,-178
29670,564,0,2023-03-01T18:52:30.097345,1739622,1231,1801,300,-1279,-599,-423,-15,153,-175
29671,565,0,2023-03-01T18:52:30.105873,1739630,1231,1801,300,-1279,-599,-423,-15,153,-175
29672,566,0,2023-03-01T18:52:30.110731,1739635,1231,1801,300,-1279,-599,-423,-15,153,-175
29673,567,0,2023-03-01T18:52:30.115688,1739640,1229,1794,297,-1279,-598,-412,-15,153,-175
29674,568,0,2023-03-01T18:52:30.121347,1739645,1229,1794,297,-1279,-598,-412,-15,153,-175
29675,569,0,2023-03-01T18:52:30.127457,1739653,1229,1794,297,-1279,-598,-412,-15,153,-175
29676,570,0,2023-03-01T18:52:30.133040,1739657,1229,1794,297,-1279,-598,-412,-15,153,-175
29677,571,0,2023-03-01T18:52:30.137921,1739663,1235,1794,304,-1276,-594,-419,-15,153,-175
29678,572,0,2023-03-01T18:52:30.143401,1739668,1235,1794,304,-1276,-594,-419,-15,153,-175
29679,573,0,2023-03-01T18:52:30.148557,1739673,1235,1794,304,-1276,-594,-419,-15,153,-175
29680,574,0,2023-03-01T18:52:30.153649,1739678,1235,1794,304,-1276,-594,-419,-15,153,-175
29681,575,0,2023-03-01T18:52:30.158533,1739683,1229,1792,304,-1277,-610,-411,-15,153,-175
29682,576,0,2023-03-01T18:52:30.164057,1739688,1229,1792,304,-1277,-610,-411,-15,153,-175
29683,577,0,2023-03-01T18:52:30.169661,1739695,1229,1792,304,-1277,-610,-411,-15,153,-175
29684,578,0,2023-03-01T18:52:30.174417,1739699,1229,1797,293,-1290,-606,-417,-15,153,-175
29685,579,0,2023-03-01T18:52:30.180037,1739705,1229,1797,293,-1290,-606,-417,-15,153,-175
29686,580,0,2023-03-01T18:52:30.185880,1739710,1229,1797,293,-1290,-606,-417,-15,153,-175
29687,581,0,2023-03-01T18:52:30.190663,1739715,1229,1797,293,-1290,-606,-417,-15,153,-175
29688,582,0,2023-03-01T18:52:30.195602,1739720,1230,1795,306,-1284,-599,-408,-15,153,-175
29689,583,0,2023-03-01T18:52:30.201243,1739726,1230,1795,306,-1284,-599,-408,-15,153,-175
29690,584,0,2023-03-01T18:52:30.207082,1739731,1230,1795,306,-1284,-599,-408,-15,153,-175
29691,585,0,2023-03-01T18:52:30.212210,1739737,1230,1795,306,-1284,-599,-408,-15,153,-175
29692,586,0,2023-03-01T18:52:30.217266,1739742,1233,1798,304,-1290,-598,-418,-15,153,-175
29693,587,0,2023-03-01T18:52:30.223433,1739748,1233,1798,304,-1290,-598,-418,-15,153,-175
29694,588,0,2023-03-01T18:52:30.229130,1739754,1233,1798,304,-1290,-598,-418,-15,153,-175
29695,589,0,2023-03-01T18:52:30.234059,1739758,1233,1798,304,-1290,-598,-418,-15,153,-175
29696,590,0,2023-03-01T18:52:30.239311,1739764,1227,1797,302,-1284,-599,-405,-15,149,-171
29697,591,0,2023-03-01T18:52:30.245122,1739769,1227,1797,302,-1284,-599,-405,-15,149,-171
29698,592,0,2023-03-01T18:52:30.250920,1739776,1227,1797,302,-1284,-599,-405,-15,149,-171
29699,593,0,2023-03-01T18:52:30.255881,1739781,1231,1798,312,-1292,-585,-421,-15,149,-171
29700,594,0,2023-03-01T18:52:30.262213,1739787,1231,1798,312,-1292,-585,-421,-15,149,-171
29701,595,0,2023-03-01T18:52:30.267933,1739793,1231,1798,312,-1292,-585,-421,-15,149,-171
29702,596,0,2023-03-01T18:52:30.272746,1739797,1231,1798,312,-1292,-585,-421,-15,149,-171
29703,597,0,2023-03-01T18:52:30.278252,1739803,1228,1795,303,-1279,-602,-418,-15,149,-171
29704,598,0,2023-03-01T18:52:30.284308,1739809,1228,1795,303,-1279,-602,-418,-15,149,-171
29705,599,0,2023-03-01T18:52:30.289351,1739813,1228,1795,303,-1279,-602,-418,-15,149,-171
29706,600,0,2023-03-01T18:52:30.294369,1739820,1228,1795,303,-1279,-602,-418,-15,149,-171
29707,601,0,2023-03-01T18:52:30.299798,1739825,1231,1798,307,-1271,-599,-419,-15,149,-171
29708,602,0,2023-03-01T18:52:30.305588,1739831,1231,1798,307,-1271,-599,-419,-15,149,-171
29709,603,0,2023-03-01T18:52:30.310245,1739835,1231,1798,307,-1271,-599,-419,-15,149,-171
29710,604,0,2023-03-01T18:52:30.314901,1739840,1226,1800,305,-1284,-601,-411,-15,149,-171
29711,605,0,2023-03-01T18:52:30.320552,1739845,1226,1800,305,-1284,-601,-411,-15,149,-171
29712,606,0,2023-03-01T18:52:30.326313,1739851,1226,1800,305,-1284,-601,-411,-15,149,-171
29713,607,0,2023-03-01T18:52:30.331421,1739856,1226,1800,305,-1284,-601,-411,-15,149,-171
29714,608,0,2023-03-01T18:52:30.336554,1739862,1231,1792,303,-1278,-607,-420,-15,149,-171
29715,609,0,2023-03-01T18:52:30.342554,1739868,1231,1792,303,-1278,-607,-420,-15,149,-171
29716,610,0,2023-03-01T18:52:30.348132,1739873,1231,1792,303,-1278,-607,-420,-15,149,-171
29717,611,0,2023-03-01T18:52:30.353108,1739878,1231,1792,303,-1278,-607,-420,-15,149,-171
29718,612,0,2023-03-01T18:52:30.358076,1739883,1229,1799,315,-1293,-616,-424,-17,153,-167
29719,613,0,2023-03-01T18:52:30.364359,1739889,1229,1799,315,-1293,-616,-424,-17,153,-167
29720,614,0,2023-03-01T18:52:30.369660,1739894,1229,1799,315,-1293,-616,-424,-17,153,-167
29721,615,0,2023-03-01T18:52:30.374539,1739899,1229,1799,315,-1293,-616,-424,-17,153,-167
29722,616,0,2023-03-01T18:52:30.379528,1739905,1225,1791,308,-1283,-602,-413,-17,153,-167
29723,617,0,2023-03-01T18:52:30.385709,1739911,1225,1791,308,-1283,-602,-413,-17,153,-167
29724,618,0,2023-03-01T18:52:30.391445,1739916,1225,1791,308,-1283,-602,-413,-17,153,-167
29725,619,0,2023-03-01T18:52:30.396139,1739921,1225,1798,308,-1288,-605,-424,-17,153,-167
29726,620,0,2023-03-01T18:52:30.402099,1739927,1225,1798,308,-1288,-605,-424,-17,153,-167
29727,621,0,2023-03-01T18:52:30.406820,1739931,1225,1798,308,-1288,-605,-424,-17,153,-167
29728,622,0,2023-03-01T18:52:30.411571,1739936,1225,1798,308,-1288,-605,-424,-17,153,-167
29729,623,0,2023-03-01T18:52:30.416268,1739941,1226,1796,312,-1289,-610,-418,-17,153,-167
29730,624,0,2023-03-01T18:52:30.422247,1739947,1226,1796,312,-1289,-610,-418,-17,153,-167
29731,625,0,2023-03-01T18:52:30.427068,1739952,1226,1796,312,-1289,-610,-418,-17,153,-167
29732,626,0,2023-03-01T18:52:30.431691,1739957,1226,1796,312,-1289,-610,-418,-17,153,-167
29733,627,0,2023-03-01T18:52:30.437186,1739962,1223,1794,308,-1292,-609,-427,-17,153,-167
29734,628,0,2023-03-01T18:52:30.443246,1739968,1223,1794,308,-1292,-609,-427,-17,153,-167
29735,629,0,2023-03-01T18:52:30.448589,1739973,1223,1794,308,-1292,-609,-427,-17,153,-167
29736,630,0,2023-03-01T18:52:30.453434,1739978,1223,1794,308,-1292,-609,-427,-17,153,-167
29737,631,0,2023-03-01T18:52:30.458236,1739983,1228,1800,311,-1293,-605,-424,-17,153,-167
29738,632,0,2023-03-01T18:52:30.464274,1739988,1228,1800,311,-1293,-605,-424,-17,153,-167
29739,633,0,2023-03-01T18:52:30.469823,1739995,1228,1800,311,-1293,-605,-424,-17,153,-167
29740,634,0,2023-03-01T18:52:30.474614,1739999,1228,1800,311,-1293,-605,-424,-17,153,-167
29741,635,0,2023-03-01T18:52:30.479465,1740004,1222,1795,316,-1294,-609,-421,-6,148,-178
29742,636,0,2023-03-01T18:52:30.485580,1740010,1222,1795,316,-1294,-609,-421,-6,148,-178
29743,637,0,2023-03-01T18:52:30.490499,1740015,1222,1795,316,-1294,-609,-421,-6,148,-178
29744,638,0,2023-03-01T18:52:30.495396,1740020,1226,1795,322,-1293,-610,-422,-6,148,-178
29745,639,0,2023-03-01T18:52:30.501184,1740025,1226,1795,322,-1293,-610,-422,-6,148,-178
29746,640,0,2023-03-01T18:52:30.508032,1740033,1226,1795,322,-1293,-610,-422,-6,148,-178
29747,641,0,2023-03-01T18:52:30.513067,1740038,1226,1795,322,-1293,-610,-422,-6,148,-178
29748,642,0,2023-03-01T18:52:30.517920,1740043,1222,1794,310,-1291,-615,-419,-6,148,-178
29749,643,0,2023-03-01T18:52:30.523887,1740048,1222,1794,310,-1291,-615,-419,-6,148,-178
29750,644,0,2023-03-01T18:52:30.528545,1740053,1222,1794,310,-1291,-615,-419,-6,148,-178
29751,645,0,2023-03-01T18:52:30.533339,1740058,1222,1794,310,-1291,-615,-419,-6,148,-178
29752,646,0,2023-03-01T18:52:30.538406,1740063,1224,1797,313,-1291,-599,-419,-6,148,-178
29753,647,0,2023-03-01T18:52:30.544750,1740069,1224,1797,313,-1291,-599,-419,-6,148,-178
29754,648,0,2023-03-01T18:52:30.549742,1740075,1224,1797,313,-1291,-599,-419,-6,148,-178
29755,649,0,2023-03-01T18:52:30.554720,1740080,1224,1797,313,-1291,-599,-419,-6,148,-178
29756,650,0,2023-03-01T18:52:30.560108,1740085,1226,1794,319,-1286,-603,-424,-6,148,-178
29757,651,0,2023-03-01T18:52:30.566205,1740091,1226,1794,319,-1286,-603,-424,-6,148,-178
29758,652,0,2023-03-01T18:52:30.571228,1740096,1226,1794,319,-1286,-603,-424,-6,148,-178
29759,653,0,2023-03-01T18:52:30.576461,1740101,1223,1795,325,-1275,-600,-433,-6,148,-178
29760,654,0,2023-03-01T18:52:30.583064,1740107,1223,1795,325,-1275,-600,-433,-6,148,-178
29761,655,0,2023-03-01T18:52:30.588603,1740113,1223,1795,325,-1275,-600,-433,-6,148,-178
29762,656,0,2023-03-01T18:52:30.593560,1740119,1223,1795,325,-1275,-600,-433,-6,148,-178
29763,657,0,2023-03-01T18:52:30.598370,1740123,1222,1795,316,-1274,-604,-411,-6,148,-178
29764,658,0,2023-03-01T18:52:30.604746,1740129,1222,1795,316,-1274,-604,-411,-6,148,-178
29765,659,0,2023-03-01T18:52:30.610613,1740135,1222,1795,316,-1274,-604,-411,-6,148,-178
29766,660,0,2023-03-01T18:52:30.616634,1740141,1222,1793,332,-1275,-613,-416,-12,156,-162
29767,661,0,2023-03-01T18:52:30.622685,1740147,1222,1793,332,-1275,-613,-416,-12,156,-162
29768,662,0,2023-03-01T18:52:30.627951,1740152,1222,1793,332,-1275,-613,-416,-12,156,-162
29769,663,0,2023-03-01T18:52:30.632867,1740157,1222,1793,332,-1275,-613,-416,-12,156,-162
29770,664,0,2023-03-01T18:52:30.637642,1740163,1224,1794,319,-1286,-617,-416,-12,156,-162
29771,665,0,2023-03-01T18:52:30.643374,1740168,1224,1794,319,-1286,-617,-416,-12,156,-162
29772,666,0,2023-03-01T18:52:30.648188,1740173,1224,1794,319,-1286,-617,-416,-12,156,-162
29773,667,0,2023-03-01T18:52:30.653294,1740178,1224,1794,319,-1286,-617,-416,-12,156,-162
29774,668,0,2023-03-01T18:52:30.658398,1740183,1223,1791,325,-1278,-611,-418,-12,156,-162
29775,669,0,2023-03-01T18:52:30.664387,1740189,1223,1791,325,-1278,-611,-418,-12,156,-162
29776,670,0,2023-03-01T18:52:30.669506,1740194,1223,1791,325,-1278,-611,-418,-12,156,-162
29777,671,0,2023-03-01T18:52:30.674447,1740199,1223,1791,325,-1278,-611,-418,-12,156,-162
29778,672,0,2023-03-01T18:52:30.679395,1740204,1223,1791,325,-1278,-611,-418,-12,156,-162
29779,673,0,2023-03-01T18:52:30.684161,1740209,1223,1791,325,-1278,-611,-418,-12,156,-162
29780,674,0,2023-03-01T18:52:30.689722,1740215,1223,1791,325,-1278,-611,-418,-12,156,-162
29781,675,0,2023-03-01T18:52:30.694489,1740219,1223,1791,325,-1278,-611,-418,-12,156,-162
29782,676,0,2023-03-01T18:52:30.699313,1740224,1221,1793,331,-1284,-615,-422,-12,156,-162
29783,677,0,2023-03-01T18:52:30.705023,1740230,1221,1793,331,-1284,-615,-422,-12,156,-162
29784,678,0,2023-03-01T18:52:30.710430,1740235,1221,1793,331,-1284,-615,-422,-12,156,-162
29785,679,0,2023-03-01T18:52:30.715251,1740240,1219,1791,323,-1280,-595,-422,-12,156,-162
29786,680,0,2023-03-01T18:52:30.721007,1740246,1219,1791,323,-1280,-595,-422,-12,156,-162
29787,681,0,2023-03-01T18:52:30.727205,1740252,1219,1791,323,-1280,-595,-422,-12,156,-162
29788,682,0,2023-03-01T18:52:30.732041,1740257,1219,1791,323,-1280,-595,-422,-12,156,-162
29789,683,0,2023-03-01T18:52:30.736820,1740262,1224,1793,326,-1277,-607,-421,-4,154,-166
29790,684,0,2023-03-01T18:52:30.742893,1740267,1224,1793,326,-1277,-607,-421,-4,154,-166
29791,685,0,2023-03-01T18:52:30.748801,1740273,1224,1793,326,-1277,-607,-421,-4,154,-166
29792,686,0,2023-03-01T18:52:30.753558,1740278,1224,1793,326,-1277,-607,-421,-4,154,-166
29793,687,0,2023-03-01T18:52:30.758314,1740283,1221,1795,328,-1280,-606,-430,-4,154,-166
29794,688,0,2023-03-01T18:52:30.764577,1740290,1221,1795,328,-1280,-606,-430,-4,154,-166
29795,689,0,2023-03-01T18:52:30.769632,1740294,1221,1795,328,-1280,-606,-430,-4,154,-166
29796,690,0,2023-03-01T18:52:30.774688,1740300,1221,1795,328,-1280,-606,-430,-4,154,-166
29797,691,0,2023-03-01T18:52:30.779920,1740305,1220,1790,323,-1282,-609,-411,-4,154,-166
29798,692,0,2023-03-01T18:52:30.785921,1740311,1220,1790,323,-1282,-609,-411,-4,154,-166
29799,693,0,2023-03-01T18:52:30.791027,1740315,1220,1790,323,-1282,-609,-411,-4,154,-166
29800,694,0,2023-03-01T18:52:30.796081,1740321,1218,1792,336,-1282,-592,-419,-4,154,-166
29801,695,0,2023-03-01T18:52:30.802063,1740326,1218,1792,336,-1282,-592,-419,-4,154,-166
29802,696,0,2023-03-01T18:52:30.807146,1740332,1218,1792,336,-1282,-592,-419,-4,154,-166
29803,697,0,2023-03-01T18:52:30.812284,1740337,1218,1792,336,-1282,-592,-419,-4,154,-166
29804,698,0,2023-03-01T18:52:30.817266,1740342,1220,1787,332,-1274,-596,-408,-4,154,-166
29805,699,0,2023-03-01T18:52:30.823124,1740348,1220,1787,332,-1274,-596,-408,-4,154,-166
29806,700,0,2023-03-01T18:52:30.827890,1740353,1220,1787,332,-1274,-596,-408,-4,154,-166
29807,701,0,2023-03-01T18:52:30.832813,1740357,1220,1787,332,-1274,-596,-408,-4,154,-166
29808,702,0,2023-03-01T18:52:30.837487,1740362,1218,1793,331,-1269,-601,-420,-4,154,-166
29809,703,0,2023-03-01T18:52:30.843214,1740368,1218,1793,331,-1269,-601,-420,-4,154,-166
29810,704,0,2023-03-01T18:52:30.848039,1740372,1218,1793,331,-1269,-601,-420,-4,154,-166
29811,705,0,2023-03-01T18:52:30.853134,1740378,1218,1793,331,-1269,-601,-420,-4,154,-166
29812,706,0,2023-03-01T18:52:30.858329,1740383,1223,1794,340,-1257,-592,-413,-4,154,-166
29813,707,0,2023-03-01T18:52:30.864631,1740390,1223,1794,340,-1257,-592,-413,-4,154,-166
29814,708,0,2023-03-01T18:52:30.870805,1740396,1223,1794,340,-1257,-592,-413,-4,154,-166
29815,709,0,2023-03-01T18:52:30.875707,1740400,1217,1796,337,-1269,-599,-415,-7,153,-175
29816,710,0,2023-03-01T18:52:30.881320,1740406,1217,1796,337,-1269,-599,-415,-7,153,-175
29817,711,0,2023-03-01T18:52:30.886675,1740411,1217,1796,337,-1269,-599,-415,-7,153,-175
29818,712,0,2023-03-01T18:52:30.891446,1740417,1217,1796,337,-1269,-599,-415,-7,153,-175
29819,713,0,2023-03-01T18:52:30.896449,1740422,1223,1791,328,-1259,-600,-415,-7,153,-175
29820,714,0,2023-03-01T18:52:30.902634,1740427,1223,1791,328,-1259,-600,-415,-7,153,-175
29821,715,0,2023-03-01T18:52:30.908363,1740433,1223,1791,328,-1259,-600,-415,-7,153,-175
29822,716,0,2023-03-01T18:52:30.913673,1740438,1223,1791,328,-1259,-600,-415,-7,153,-175
29823,717,0,2023-03-01T18:52:30.918470,1740443,1217,1790,339,-1263,-603,-417,-7,153,-175
29824,718,0,2023-03-01T18:52:30.924115,1740449,1217,1790,339,-1263,-603,-417,-7,153,-175
29825,719,0,2023-03-01T18:52:30.929434,1740454,1217,1790,339,-1263,-603,-417,-7,153,-175
29826,720,0,2023-03-01T18:52:30.934009,1740459,1217,1790,339,-1263,-603,-417,-7,153,-175
29827,721,0,2023-03-01T18:52:30.939037,1740464,1220,1787,334,-1281,-611,-421,-7,153,-175
29828,722,0,2023-03-01T18:52:30.944453,1740469,1220,1787,334,-1281,-611,-421,-7,153,-175
29829,723,0,2023-03-01T18:52:30.949963,1740475,1220,1787,334,-1281,-611,-421,-7,153,-175
29830,724,0,2023-03-01T18:52:30.954644,1740480,1220,1787,334,-1281,-611,-421,-7,153,-175
29831,725,0,2023-03-01T18:52:30.959336,1740484,1218,1790,338,-1270,-609,-417,-7,153,-175
29832,726,0,2023-03-01T18:52:30.965527,1740490,1218,1790,338,-1270,-609,-417,-7,153,-175
29833,727,0,2023-03-01T18:52:30.971339,1740496,1218,1790,338,-1270,-609,-417,-7,153,-175
29834,728,0,2023-03-01T18:52:30.976160,1740502,1221,1789,337,-1268,-603,-415,-7,153,-175
29835,729,0,2023-03-01T18:52:30.982013,1740507,1221,1789,337,-1268,-603,-415,-7,153,-175
29836,730,0,2023-03-01T18:52:30.987560,1740513,1221,1789,337,-1268,-603,-415,-7,153,-175
29837,731,0,2023-03-01T18:52:30.992659,1740517,1221,1789,337,-1268,-603,-415,-7,153,-175
29838,732,0,2023-03-01T18:52:30.997725,1740522,1216,1790,345,-1257,-599,-418,-7,149,-169
29839,733,0,2023-03-01T18:52:31.004534,1740529,1216,1790,345,-1257,-599,-418,-7,149,-169
29840,734,0,2023-03-01T18:52:31.009514,1740534,1216,1790,345,-1257,-599,-418,-7,149,-169
29841,735,0,2023-03-01T18:52:31.014166,1740538,1216,1790,345,-1257,-599,-418,-7,149,-169
29842,736,0,2023-03-01T18:52:31.019126,1740544,1220,1789,344,-1272,-604,-417,-7,149,-169
29843,737,0,2023-03-01T18:52:31.025896,1740550,1220,1789,344,-1272,-604,-417,-7,149,-169
29844,738,0,2023-03-01T18:52:31.031654,1740557,1220,1789,344,-1272,-604,-417,-7,149,-169
29845,739,0,2023-03-01T18:52:31.036951,1740562,1216,1786,334,-1260,-601,-410,-7,149,-169
29846,740,0,2023-03-01T18:52:31.042815,1740567,1216,1786,334,-1260,-601,-410,-7,149,-169
29847,741,0,2023-03-01T18:52:31.048254,1740573,1216,1786,334,-1260,-601,-410,-7,149,-169
29848,742,0,2023-03-01T18:52:31.053258,1740578,1216,1786,334,-1260,-601,-410,-7,149,-169
29849,743,0,2023-03-01T18:52:31.058386,1740582,1214,1787,340,-1252,-587,-415,-7,149,-169
29850,744,0,2023-03-01T18:52:31.064693,1740590,1214,1787,340,-1252,-587,-415,-7,149,-169
29851,745,0,2023-03-01T18:52:31.070216,1740595,1214,1787,340,-1252,-587,-415,-7,149,-169
29852,746,0,2023-03-01T18:52:31.075141,1740600,1214,1787,340,-1252,-587,-415,-7,149,-169
29853,747,0,2023-03-01T18:52:31.079946,1740605,1215,1790,341,-1266,-595,-406,-7,149,-169
29854,748,0,2023-03-01T18:52:31.086362,1740611,1215,1790,341,-1266,-595,-406,-7,149,-169
29855,749,0,2023-03-01T18:52:31.092081,1740617,1215,1790,341,-1266,-595,-406,-7,149,-169
29856,750,0,2023-03-01T18:52:31.097073,1740621,1216,1786,342,-1273,-601,-414,-7,149,-169
29857,751,0,2023-03-01T18:52:31.103267,1740627,1216,1786,342,-1273,-601,-414,-7,149,-169
29858,752,0,2023-03-01T18:52:31.108233,1740633,1216,1786,342,-1273,-601,-414,-7,149,-169
29859,753,0,2023-03-01T18:52:31.113272,1740638,1216,1786,342,-1273,-601,-414,-7,149,-169
29860,754,0,2023-03-01T18:52:31.118047,1740643,1216,1788,336,-1271,-593,-414,-7,149,-169
29861,755,0,2023-03-01T18:52:31.124450,1740649,1216,1788,336,-1271,-593,-414,-7,149,-169
29862,756,0,2023-03-01T18:52:31.129491,1740654,1216,1788,336,-1271,-593,-414,-7,149,-169
29863,757,0,2023-03-01T18:52:31.134320,1740659,1216,1788,336,-1271,-593,-414,-7,149,-169
29864,758,0,2023-03-01T18:52:31.139167,1740664,1217,1791,344,-1274,-593,-423,-10,152,-172
29865,759,0,2023-03-01T18:52:31.145400,1740670,1217,1791,344,-1274,-593,-423,-10,152,-172
29866,760,0,2023-03-01T18:52:31.151247,1740676,1217,1791,344,-1274,-593,-423,-10,152,-172
29867,761,0,2023-03-01T18:52:31.156136,1740681,1212,1791,350,-1268,-590,-417,-10,152,-172
29868,762,0,2023-03-01T18:52:31.162022,1740687,1212,1791,350,-1268,-590,-417,-10,152,-172
29869,763,0,2023-03-01T18:52:31.166848,1740692,1212,1791,350,-1268,-590,-417,-10,152,-172
29870,764,0,2023-03-01T18:52:31.171682,1740696,1212,1791,350,-1268,-590,-417,-10,152,-172
29871,765,0,2023-03-01T18:52:31.176946,1740701,1217,1791,343,-1274,-602,-411,-10,152,-172
29872,766,0,2023-03-01T18:52:31.182639,1740707,1217,1791,343,-1274,-602,-411,-10,152,-172
29873,767,0,2023-03-01T18:52:31.187878,1740712,1217,1791,343,-1274,-602,-411,-10,152,-172
29874,768,0,2023-03-01T18:52:31.193026,1740718,1217,1791,343,-1274,-602,-411,-10,152,-172
29875,769,0,2023-03-01T18:52:31.197922,1740723,1213,1786,353,-1260,-587,-418,-10,152,-172
29876,770,0,2023-03-01T18:52:31.204255,1740728,1213,1786,353,-1260,-587,-418,-10,152,-172
29877,771,0,2023-03-01T18:52:31.210182,1740735,1213,1786,353,-1260,-587,-418,-10,152,-172
29878,772,0,2023-03-01T18:52:31.214884,1740740,1213,1786,353,-1260,-587,-418,-10,152,-172
29879,773,0,2023-03-01T18:52:31.219790,1740744,1214,1787,346,-1278,-604,-410,-10,152,-172
29880,774,0,2023-03-01T18:52:31.226446,1740751,1214,1787,346,-1278,-604,-410,-10,152,-172
29881,775,0,2023-03-01T18:52:31.233042,1740758,1214,1787,346,-1278,-604,-410,-10,152,-172
29882,776,0,2023-03-01T18:52:31.238175,1740763,1214,1790,351,-1262,-605,-414,-10,152,-172
29883,777,0,2023-03-01T18:52:31.244225,1740769,1214,1790,351,-1262,-605,-414,-10,152,-172
29884,778,0,2023-03-01T18:52:31.249369,1740774,1214,1790,351,-1262,-605,-414,-10,152,-172
29885,779,0,2023-03-01T18:52:31.254544,1740779,1214,1790,351,-1262,-605,-414,-10,152,-172
29886,780,0,2023-03-01T18:52:31.259853,1740785,1215,1785,354,-1264,-599,-412,-5,159,-167
29887,781,0,2023-03-01T18:52:31.265523,1740790,1215,1785,354,-1264,-599,-412,-5,159,-167
29888,782,0,2023-03-01T18:52:31.270186,1740795,1215,1785,354,-1264,-599,-412,-5,159,-167
29889,783,0,2023-03-01T18:52:31.274822,1740800,1215,1785,354,-1264,-599,-412,-5,159,-167
29890,784,0,2023-03-01T18:52:31.279679,1740805,1211,1788,345,-1260,-598,-410,-5,159,-167
29891,785,0,2023-03-01T18:52:31.286035,1740811,1211,1788,345,-1260,-598,-410,-5,159,-167
29892,786,0,2023-03-01T18:52:31.291453,1740816,1211,1788,345,-1260,-598,-410,-5,159,-167
29893,787,0,2023-03-01T18:52:31.296231,1740821,1215,1786,353,-1260,-591,-413,-5,159,-167
29894,788,0,2023-03-01T18:52:31.302339,1740827,1215,1786,353,-1260,-591,-413,-5,159,-167
29895,789,0,2023-03-01T18:52:31.307623,1740832,1215,1786,353,-1260,-591,-413,-5,159,-167
29896,790,0,2023-03-01T18:52:31.312501,1740837,1215,1786,353,-1260,-591,-413,-5,159,-167
29897,791,0,2023-03-01T18:52:31.319002,1740844,1211,1791,354,-1282,-605,-417,-5,159,-167
29898,792,0,2023-03-01T18:52:31.324713,1740850,1211,1791,354,-1282,-605,-417,-5,159,-167
29899,793,0,2023-03-01T18:52:31.329436,1740855,1211,1791,354,-1282,-605,-417,-5,159,-167
29900,794,0,2023-03-01T18:52:31.334866,1740859,1211,1791,354,-1282,-605,-417,-5,159,-167
29901,795,0,2023-03-01T18:52:31.339975,1740865,1213,1786,354,-1264,-600,-413,-5,159,-167
29902,796,0,2023-03-01T18:52:31.345597,1740870,1213,1786,354,-1264,-600,-413,-5,159,-167
29903,797,0,2023-03-01T18:52:31.350227,1740875,1213,1786,354,-1264,-600,-413,-5,159,-167
29904,798,0,2023-03-01T18:52:31.354809,1740879,1213,1786,354,-1264,-600,-413,-5,159,-167
29905,799,0,2023-03-01T18:52:31.359641,1740884,1210,1788,362,-1273,-599,-422,-5,159,-167
29906,800,0,2023-03-01T18:52:31.364951,1740890,1210,1788,362,-1273,-599,-422,-5,159,-167
29907,801,0,2023-03-01T18:52:31.370541,1740895,1210,1788,362,-1273,-599,-422,-5,159,-167
29908,802,0,2023-03-01T18:52:31.375376,1740900,1210,1788,362,-1273,-599,-422,-5,159,-167
29909,803,0,2023-03-01T18:52:31.380304,1740905,1213,1785,349,-1275,-602,-419,-15,149,-169
29910,804,0,2023-03-01T18:52:31.386187,1740911,1213,1785,349,-1275,-602,-419,-15,149,-169
29911,805,0,2023-03-01T18:52:31.391876,1740916,1213,1785,349,-1275,-602,-419,-15,149,-169
29912,806,0,2023-03-01T18:52:31.396699,1740921,1207,1786,360,-1279,-608,-425,-15,149,-169
29913,807,0,2023-03-01T18:52:31.402586,1740928,1207,1786,360,-1279,-608,-425,-15,149,-169
29914,808,0,2023-03-01T18:52:31.407647,1740933,1207,1786,360,-1279,-608,-425,-15,149,-169
29915,809,0,2023-03-01T18:52:31.412608,1740938,1207,1786,360,-1279,-608,-425,-15,149,-169
29916,810,0,2023-03-01T18:52:31.417364,1740942,1212,1789,353,-1283,-601,-419,-15,149,-169
29917,811,0,2023-03-01T18:52:31.423853,1740948,1212,1789,353,-1283,-601,-419,-15,149,-169
29918,812,0,2023-03-01T18:52:31.430141,1740955,1212,1789,353,-1283,-601,-419,-15,149,-169
29919,813,0,2023-03-01T18:52:31.435020,1740960,1212,1789,353,-1283,-601,-419,-15,149,-169
29920,814,0,2023-03-01T18:52:31.439760,1740964,1208,1788,356,-1277,-594,-424,-15,149,-169
29921,815,0,2023-03-01T18:52:31.445475,1740971,1208,1788,356,-1277,-594,-424,-15,149,-169
29922,816,0,2023-03-01T18:52:31.451039,1740976,1208,1788,356,-1277,-594,-424,-15,149,-169
29923,817,0,2023-03-01T18:52:31.456232,1740981,1210,1790,360,-1283,-588,-418,-15,149,-169
29924,818,0,2023-03-01T18:52:31.461803,1740987,1210,1790,360,-1283,-588,-418,-15,149,-169
29925,819,0,2023-03-01T18:52:31.467588,1740993,1210,1790,360,-1283,-588,-418,-15,149,-169
29926,820,0,2023-03-01T18:52:31.472737,1740997,1210,1790,360,-1283,-588,-418,-15,149,-169
29927,821,0,2023-03-01T18:52:31.477620,1741002,1207,1785,362,-1267,-605,-420,-15,149,-169
29928,822,0,2023-03-01T18:52:31.483910,1741008,1207,1785,362,-1267,-605,-420,-15,149,-169
29929,823,0,2023-03-01T18:52:31.489848,1741015,1207,1785,362,-1267,-605,-420,-15,149,-169
29930,824,0,2023-03-01T18:52:31.494959,1741020,1207,1785,362,-1267,-605,-420,-15,149,-169
29931,825,0,2023-03-01T18:52:31.499825,1741025,1207,1786,362,-1266,-597,-414,-15,149,-169
29932,826,0,2023-03-01T18:52:31.506002,1741031,1207,1786,362,-1266,-597,-414,-15,149,-169
29933,827,0,2023-03-01T18:52:31.510810,1741036,1207,1786,362,-1266,-597,-414,-15,149,-169
29934,828,0,2023-03-01T18:52:31.515695,1741040,1207,1786,362,-1266,-597,-414,-15,149,-169
29935,829,0,2023-03-01T18:52:31.520918,1741045,1208,1781,366,-1261,-598,-409,-7,151,-163
29936,830,0,2023-03-01T18:52:31.526843,1741051,1208,1781,366,-1261,-598,-409,-7,151,-163
29937,831,0,2023-03-01T18:52:31.532671,1741058,1208,1781,366,-1261,-598,-409,-7,151,-163
29938,832,0,2023-03-01T18:52:31.537603,1741063,1206,1785,367,-1276,-601,-428,-7,151,-163
29939,833,0,2023-03-01T18:52:31.544129,1741069,1206,1785,367,-1276,-601,-428,-7,151,-163
29940,834,0,2023-03-01T18:52:31.549900,1741074,1206,1785,367,-1276,-601,-428,-7,151,-163
29941,835,0,2023-03-01T18:52:31.554871,1741079,1206,1785,367,-1276,-601,-428,-7,151,-163
29942,836,0,2023-03-01T18:52:31.559836,1741084,1208,1782,366,-1275,-601,-420,-7,151,-163
29943,837,0,2023-03-01T18:52:31.565839,1741090,1208,1782,366,-1275,-601,-420,-7,151,-163
29944,838,0,2023-03-01T18:52:31.571588,1741096,1208,1782,366,-1275,-601,-420,-7,151,-163
29945,839,0,2023-03-01T18:52:31.576590,1741102,1206,1781,359,-1272,-605,-421,-7,151,-163
29946,840,0,2023-03-01T18:52:31.582968,1741108,1206,1781,359,-1272,-605,-421,-7,151,-163
29947,841,0,2023-03-01T18:52:31.588142,1741113,1206,1781,359,-1272,-605,-421,-7,151,-163
29948,842,0,2023-03-01T18:52:31.593230,1741118,1206,1781,359,-1272,-605,-421,-7,151,-163
29949,843,0,2023-03-01T18:52:31.598900,1741124,1206,1782,366,-1277,-597,-408,-7,151,-163
29950,844,0,2023-03-01T18:52:31.605392,1741130,1206,1782,366,-1277,-597,-408,-7,151,-163
29951,845,0,2023-03-01T18:52:31.611507,1741135,1206,1782,366,-1277,-597,-408,-7,151,-163
29952,846,0,2023-03-01T18:52:31.617364,1741142,1208,1781,370,-1277,-592,-421,-7,151,-163
29953,847,0,2023-03-01T18:52:31.623815,1741149,1208,1781,370,-1277,-592,-421,-7,151,-163
29954,848,0,2023-03-01T18:52:31.628935,1741154,1208,1781,370,-1277,-592,-421,-7,151,-163
29955,849,0,2023-03-01T18:52:31.633912,1741159,1208,1781,370,-1277,-592,-421,-7,151,-163
29956,850,0,2023-03-01T18:52:31.638494,1741163,1206,1785,370,-1259,-609,-418,-11,153,-165
29957,851,0,2023-03-01T18:52:31.645019,1741169,1206,1785,370,-1259,-609,-418,-11,153,-165
29958,852,0,2023-03-01T18:52:31.650757,1741175,1206,1785,370,-1259,-609,-418,-11,153,-165
29959,853,0,2023-03-01T18:52:31.655803,1741180,1206,1785,370,-1259,-609,-418,-11,153,-165
29960,854,0,2023-03-01T18:52:31.660655,1741186,1211,1783,372,-1262,-610,-429,-11,153,-165
29961,855,0,2023-03-01T18:52:31.666920,1741192,1211,1783,372,-1262,-610,-429,-11,153,-165
29962,856,0,2023-03-01T18:52:31.671816,1741197,1211,1783,372,-1262,-610,-429,-11,153,-165
29963,857,0,2023-03-01T18:52:31.676644,1741202,1205,1780,370,-1276,-611,-436,-11,153,-165
29964,858,0,2023-03-01T18:52:31.683127,1741208,1205,1780,370,-1276,-611,-436,-11,153,-165
29965,859,0,2023-03-01T18:52:31.687959,1741213,1205,1780,370,-1276,-611,-436,-11,153,-165
29966,860,0,2023-03-01T18:52:31.692677,1741217,1205,1780,370,-1276,-611,-436,-11,153,-165
29967,861,0,2023-03-01T18:52:31.697710,1741222,1205,1780,375,-1282,-615,-419,-11,153,-165
29968,862,0,2023-03-01T18:52:31.704255,1741229,1205,1780,375,-1282,-615,-419,-11,153,-165
29969,863,0,2023-03-01T18:52:31.709207,1741234,1205,1780,375,-1282,-615,-419,-11,153,-165
29970,864,0,2023-03-01T18:52:31.714297,1741239,1205,1780,375,-1282,-615,-419,-11,153,-165
29971,865,0,2023-03-01T18:52:31.719257,1741244,1203,1787,365,-1275,-611,-423,-11,153,-165
29972,866,0,2023-03-01T18:52:31.725608,1741250,1203,1787,365,-1275,-611,-423,-11,153,-165
29973,867,0,2023-03-01T18:52:31.731250,1741256,1203,1787,365,-1275,-611,-423,-11,153,-165
29974,868,0,2023-03-01T18:52:31.735914,1741261,1203,1787,365,-1275,-611,-423,-11,153,-165
29975,869,0,2023-03-01T18:52:31.740857,1741265,1203,1785,375,-1283,-603,-421,-11,153,-165
29976,870,0,2023-03-01T18:52:31.746556,1741272,1203,1785,375,-1283,-603,-421,-11,153,-165
29977,871,0,2023-03-01T18:52:31.751657,1741277,1203,1785,375,-1283,-603,-421,-11,153,-165
29978,872,0,2023-03-01T18:52:31.756987,1741281,1202,1780,372,-1279,-608,-421,-11,153,-165
29979,873,0,2023-03-01T18:52:31.763614,1741288,1202,1780,372,-1279,-608,-421,-11,153,-165
29980,874,0,2023-03-01T18:52:31.768384,1741293,1202,1780,372,-1279,-608,-421,-11,153,-165
29981,875,0,2023-03-01T18:52:31.773731,1741298,1202,1780,372,-1279,-608,-421,-11,153,-165
29982,876,0,2023-03-01T18:52:31.778563,1741303,1203,1781,381,-1284,-601,-423,-10,154,-168
29983,877,0,2023-03-01T18:52:31.785217,1741309,1203,1781,381,-1284,-601,-423,-10,154,-168
29984,878,0,2023-03-01T18:52:31.790136,1741315,1203,1781,381,-1284,-601,-423,-10,154,-168
29985,879,0,2023-03-01T18:52:31.794596,1741320,1203,1781,381,-1284,-601,-423,-10,154,-168
29986,880,0,2023-03-01T18:52:31.799526,1741325,1203,1781,383,-1281,-606,-426,-10,154,-168
29987,881,0,2023-03-01T18:52:31.805672,1741330,1203,1781,383,-1281,-606,-426,-10,154,-168
29988,882,0,2023-03-01T18:52:31.811946,1741336,1203,1781,383,-1281,-606,-426,-10,154,-168
29989,883,0,2023-03-01T18:52:31.817460,1741342,1203,1779,374,-1267,-605,-429,-10,154,-168
29990,884,0,2023-03-01T18:52:31.823236,1741348,1203,1779,374,-1267,-605,-429,-10,154,-168
29991,885,0,2023-03-01T18:52:31.828203,1741353,1203,1779,374,-1267,-605,-429,-10,154,-168
29992,886,0,2023-03-01T18:52:31.833175,1741358,1203,1779,374,-1267,-605,-429,-10,154,-168
29993,887,0,2023-03-01T18:52:31.838002,1741363,1199,1779,381,-1283,-596,-438,-10,154,-168
29994,888,0,2023-03-01T18:52:31.844343,1741369,1199,1779,381,-1283,-596,-438,-10,154,-168
29995,889,0,2023-03-01T18:52:31.849205,1741374,1199,1779,381,-1283,-596,-438,-10,154,-168
29996,890,0,2023-03-01T18:52:31.853803,1741379,1199,1779,381,-1283,-596,-438,-10,154,-168
29997,891,0,2023-03-01T18:52:31.858515,1741383,1202,1785,379,-1286,-597,-470,-10,154,-168
29998,892,0,2023-03-01T18:52:31.865686,1741389,1202,1785,379,-1286,-597,-470,-10,154,-168
29999,893,0,2023-03-01T18:52:31.872324,1741396,1202,1785,379,-1286,-597,-470,-10,154,-168
30000,894,0,2023-03-01T18:52:31.877062,1741402,1199,1783,372,-1291,-618,-462,-10,154,-168
30001,895,0,2023-03-01T18:52:31.882842,1741408,1199,1783,372,-1291,-618,-462,-10,154,-168
30002,896,0,2023-03-01T18:52:31.888474,1741413,1199,1783,372,-1291,-618,-462,-10,154,-168
30003,897,0,2023-03-01T18:52:31.893579,1741418,1199,1783,372,-1291,-618,-462,-10,154,-168
30004,898,0,2023-03-01T18:52:31.898404,1741423,1204,1784,381,-1286,-603,-413,1,157,-169
30005,899,0,2023-03-01T18:52:31.904635,1741429,1204,1784,381,-1286,-603,-413,1,157,-169
30006,900,0,2023-03-01T18:52:31.909431,1741434,1204,1784,381,-1286,-603,-413,1,157,-169
30007,901,0,2023-03-01T18:52:31.914303,1741438,1204,1784,381,-1286,-603,-413,1,157,-169
30008,902,0,2023-03-01T18:52:31.919293,1741444,1202,1782,384,-1268,-603,-408,1,157,-169
30009,903,0,2023-03-01T18:52:31.925299,1741450,1202,1782,384,-1268,-603,-408,1,157,-169
30010,904,0,2023-03-01T18:52:31.930027,1741455,1202,1782,384,-1268,-603,-408,1,157,-169
30011,905,0,2023-03-01T18:52:31.934913,1741460,1202,1782,384,-1268,-603,-408,1,157,-169
30012,906,0,2023-03-01T18:52:31.939841,1741465,1204,1778,387,-1270,-610,-427,1,157,-169
30013,907,0,2023-03-01T18:52:31.945437,1741470,1204,1778,387,-1270,-610,-427,1,157,-169
30014,908,0,2023-03-01T18:52:31.950669,1741475,1204,1778,387,-1270,-610,-427,1,157,-169
30015,909,0,2023-03-01T18:52:31.956056,1741480,1204,1778,387,-1270,-610,-427,1,157,-169
30016,910,0,2023-03-01T18:52:31.961563,1741486,1201,1780,387,-1285,-600,-426,1,157,-169
30017,911,0,2023-03-01T18:52:31.967327,1741492,1201,1780,387,-1285,-600,-426,1,157,-169
30018,912,0,2023-03-01T18:52:31.972956,1741498,1201,1780,387,-1285,-600,-426,1,157,-169
30019,913,0,2023-03-01T18:52:31.978053,1741503,1200,1780,382,-1279,-600,-438,1,157,-169
30020,914,0,2023-03-01T18:52:31.984529,1741509,1200,1780,382,-1279,-600,-438,1,157,-169
30021,915,0,2023-03-01T18:52:31.989429,1741514,1200,1780,382,-1279,-600,-438,1,157,-169
30022,916,0,2023-03-01T18:52:31.994263,1741519,1200,1780,382,-1279,-600,-438,1,157,-169
30023,917,0,2023-03-01T18:52:31.999267,1741524,1202,1783,380,-1266,-618,-425,1,157,-169
30024,918,0,2023-03-01T18:52:32.005379,1741531,1202,1783,380,-1266,-618,-425,1,157,-169
30025,919,0,2023-03-01T18:52:32.010935,1741536,1202,1783,380,-1266,-618,-425,1,157,-169
30026,920,0,2023-03-01T18:52:32.015600,1741541,1202,1783,380,-1266,-618,-425,1,157,-169
30027,921,0,2023-03-01T18:52:32.020351,1741545,1196,1778,380,-1268,-598,-419,1,157,-169
30028,922,0,2023-03-01T18:52:32.026056,1741550,1196,1778,380,-1268,-598,-419,1,157,-169
30029,923,0,2023-03-01T18:52:32.030788,1741555,1196,1778,380,-1268,-598,-419,1,157,-169
30030,924,0,2023-03-01T18:52:32.035930,1741560,1196,1778,380,-1268,-598,-419,1,157,-169
30031,925,0,2023-03-01T18:52:32.041079,1741565,1195,1778,386,-1276,-602,-416,-3,155,-165
30032,926,0,2023-03-01T18:52:32.047309,1741573,1195,1778,386,-1276,-602,-416,-3,155,-165
30033,927,0,2023-03-01T18:52:32.052663,1741578,1195,1778,386,-1276,-602,-416,-3,155,-165
30034,928,0,2023-03-01T18:52:32.058057,1741583,1203,1776,389,-1276,-599,-419,-3,155,-165
30035,929,0,2023-03-01T18:52:32.064028,1741589,1203,1776,389,-1276,-599,-419,-3,155,-165
30036,930,0,2023-03-01T18:52:32.069758,1741594,1203,1776,389,-1276,-599,-419,-3,155,-165
30037,931,0,2023-03-01T18:52:32.074425,1741599,1203,1776,389,-1276,-599,-419,-3,155,-165
30038,932,0,2023-03-01T18:52:32.079544,1741604,1197,1780,384,-1261,-596,-407,-3,155,-165
30039,933,0,2023-03-01T18:52:32.085349,1741609,1197,1780,384,-1261,-596,-407,-3,155,-165
30040,934,0,2023-03-01T18:52:32.090264,1741615,1197,1780,384,-1261,-596,-407,-3,155,-165
30041,935,0,2023-03-01T18:52:32.095383,1741620,1197,1780,384,-1261,-596,-407,-3,155,-165
30042,936,0,2023-03-01T18:52:32.100211,1741625,1200,1777,391,-1261,-595,-411,-3,155,-165
30043,937,0,2023-03-01T18:52:32.106897,1741632,1200,1777,391,-1261,-595,-411,-3,155,-165
30044,938,0,2023-03-01T18:52:32.112061,1741636,1200,1777,391,-1261,-595,-411,-3,155,-165
30045,939,0,2023-03-01T18:52:32.116725,1741641,1195,1778,389,-1262,-600,-421,-3,155,-165
30046,940,0,2023-03-01T18:52:32.123045,1741647,1195,1778,389,-1262,-600,-421,-3,155,-165
30047,941,0,2023-03-01T18:52:32.129029,1741654,1195,1778,389,-1262,-600,-421,-3,155,-165
30048,942,0,2023-03-01T18:52:32.134237,1741659,1195,1778,389,-1262,-600,-421,-3,155,-165
30049,943,0,2023-03-01T18:52:32.139290,1741664,1201,1779,390,-1275,-602,-431,-3,155,-165
30050,944,0,2023-03-01T18:52:32.145459,1741670,1201,1779,390,-1275,-602,-431,-3,155,-165
30051,945,0,2023-03-01T18:52:32.150702,1741675,1201,1779,390,-1275,-602,-431,-3,155,-165
30052,946,0,2023-03-01T18:52:32.155386,1741680,1201,1779,390,-1275,-602,-431,-3,155,-165
30053,947,0,2023-03-01T18:52:32.160189,1741685,1196,1779,393,-1267,-593,-419,-10,156,-168
30054,948,0,2023-03-01T18:52:32.166558,1741691,1196,1779,393,-1267,-593,-419,-10,156,-168
30055,949,0,2023-03-01T18:52:32.172371,1741698,1196,1779,393,-1267,-593,-419,-10,156,-168
30056,950,0,2023-03-01T18:52:32.178057,1741703,1195,1777,386,-1266,-599,-415,-10,156,-168
30057,951,0,2023-03-01T18:52:32.184195,1741709,1195,1777,386,-1266,-599,-415,-10,156,-168
30058,952,0,2023-03-01T18:52:32.188835,1741714,1195,1777,386,-1266,-599,-415,-10,156,-168
30059,953,0,2023-03-01T18:52:32.193817,1741718,1195,1777,386,-1266,-599,-415,-10,156,-168
30060,954,0,2023-03-01T18:52:32.199715,1741724,1193,1779,399,-1270,-583,-419,-10,156,-168
30061,955,0,2023-03-01T18:52:32.206631,1741731,1193,1779,399,-1270,-583,-419,-10,156,-168
30062,956,0,2023-03-01T18:52:32.213848,1741739,1193,1779,399,-1270,-583,-419,-10,156,-168
30063,957,0,2023-03-01T18:52:32.218715,1741744,1196,1776,398,-1275,-600,-425,-10,156,-168
30064,958,0,2023-03-01T18:52:32.227309,1741750,1196,1776,398,-1275,-600,-425,-10,156,-168
30065,959,0,2023-03-01T18:52:32.232826,1741758,1196,1776,398,-1275,-600,-425,-10,156,-168
30066,960,0,2023-03-01T18:52:32.237603,1741762,1192,1776,391,-1270,-606,-421,-10,156,-168
30067,961,0,2023-03-01T18:52:32.243602,1741768,1192,1776,391,-1270,-606,-421,-10,156,-168
30068,962,0,2023-03-01T18:52:32.248891,1741773,1192,1776,391,-1270,-606,-421,-10,156,-168
30069,963,0,2023-03-01T18:52:32.253879,1741778,1192,1776,391,-1270,-606,-421,-10,156,-168
30070,964,0,2023-03-01T18:52:32.258571,1741784,1192,1777,400,-1264,-592,-429,-10,156,-168
30071,965,0,2023-03-01T18:52:32.264835,1741790,1192,1777,400,-1264,-592,-429,-10,156,-168
30072,966,0,2023-03-01T18:52:32.270245,1741795,1192,1777,400,-1264,-592,-429,-10,156,-168
30073,967,0,2023-03-01T18:52:32.274997,1741800,1192,1777,400,-1264,-592,-429,-10,156,-168
30074,968,0,2023-03-01T18:52:32.280158,1741805,1194,1777,386,-1265,-613,-421,-10,154,-168
30075,969,0,2023-03-01T18:52:32.286414,1741811,1194,1777,386,-1265,-613,-421,-10,154,-168
30076,970,0,2023-03-01T18:52:32.291654,1741816,1194,1777,386,-1265,-613,-421,-10,154,-168
30077,971,0,2023-03-01T18:52:32.296584,1741821,1194,1777,386,-1265,-613,-421,-10,154,-168
30078,972,0,2023-03-01T18:52:32.301911,1741827,1194,1777,403,-1266,-595,-427,-10,154,-168
30079,973,0,2023-03-01T18:52:32.308258,1741833,1194,1777,403,-1266,-595,-427,-10,154,-168
30080,974,0,2023-03-01T18:52:32.313775,1741839,1194,1777,403,-1266,-595,-427,-10,154,-168
30081,975,0,2023-03-01T18:52:32.318512,1741843,1193,1777,404,-1283,-605,-423,-10,154,-168
30082,976,0,2023-03-01T18:52:32.324349,1741849,1193,1777,404,-1283,-605,-423,-10,154,-168
30083,977,0,2023-03-01T18:52:32.329288,1741854,1193,1777,404,-1283,-605,-423,-10,154,-168
30084,978,0,2023-03-01T18:52:32.334330,1741859,1193,1777,404,-1283,-605,-423,-10,154,-168
30085,979,0,2023-03-01T18:52:32.339809,1741864,1196,1775,391,-1275,-613,-419,-10,154,-168
30086,980,0,2023-03-01T18:52:32.345702,1741871,1196,1775,391,-1275,-613,-419,-10,154,-168
30087,981,0,2023-03-01T18:52:32.350462,1741876,1196,1775,391,-1275,-613,-419,-10,154,-168
30088,982,0,2023-03-01T18:52:32.355348,1741880,1196,1775,391,-1275,-613,-419,-10,154,-168
30089,983,0,2023-03-01T18:52:32.359872,1741885,1192,1777,410,-1270,-604,-423,-10,154,-168
30090,984,0,2023-03-01T18:52:32.365901,1741891,1192,1777,410,-1270,-604,-423,-10,154,-168
30091,985,0,2023-03-01T18:52:32.371246,1741895,1192,1777,410,-1270,-604,-423,-10,154,-168
30092,986,0,2023-03-01T18:52:32.376423,1741901,1192,1777,410,-1270,-604,-423,-10,154,-168
30093,987,0,2023-03-01T18:52:32.381263,1741906,1190,1773,404,-1269,-601,-430,-10,154,-168
30094,988,0,2023-03-01T18:52:32.387558,1741913,1190,1773,404,-1269,-601,-430,-10,154,-168
30095,989,0,2023-03-01T18:52:32.393282,1741918,1190,1773,404,-1269,-601,-430,-10,154,-168
30096,990,0,2023-03-01T18:52:32.398304,1741923,1196,1774,402,-1266,-596,-430,-10,154,-168
30097,991,0,2023-03-01T18:52:32.404312,1741929,1196,1774,402,-1266,-596,-430,-10,154,-168
30098,992,0,2023-03-01T18:52:32.409624,1741935,1196,1774,402,-1266,-596,-430,-10,154,-168
30099,993,0,2023-03-01T18:52:32.414551,1741939,1196,1774,402,-1266,-596,-430,-10,154,-168
