,Unnamed: 0,imu,server_time,arduino_time,ax,ay,az,gx,gy,gz,mx,my,mz
30100,994,0,2023-03-01T18:52:32.419062,1741944,1194,1778,404,-1269,-602,-425,-10,154,-170
30101,995,0,2023-03-01T18:52:32.425487,1741950,1194,1778,404,-1269,-602,-425,-10,154,-170
30102,996,0,2023-03-01T18:52:32.431267,1741957,1194,1778,404,-1269,-602,-425,-10,154,-170
30103,997,0,2023-03-01T18:52:32.436707,1741962,1194,1778,404,-1269,-602,-425,-10,154,-170
30104,998,0,2023-03-01T18:52:32.442158,1741967,1190,1775,405,-1279,-607,-425,-10,154,-170
30105,999,0,2023-03-01T18:52:32.448239,1741973,1190,1775,405,-1279,-607,-425,-10,154,-170
30106,1000,0,2023-03-01T18:52:32.453218,1741978,1190,1775,405,-1279,-607,-425,-10,154,-170
30107,1001,0,2023-03-01T18:52:32.457942,1741983,1193,1776,414,-1281,-608,-437,-10,154,-170
30108,1002,0,2023-03-01T18:52:32.463517,1741988,1193,1776,414,-1281,-608,-437,-10,154,-170
30109,1003,0,2023-03-01T18:52:32.469204,1741993,1193,1776,414,-1281,-608,-437,-10,154,-170
30110,1004,0,2023-03-01T18:52:32.474011,1741999,1193,1776,414,-1281,-608,-437,-10,154,-170
30111,1005,0,2023-03-01T18:52:32.479030,1742004,1191,1778,411,-1284,-611,-426,-10,154,-170
30112,1006,0,2023-03-01T18:52:32.484996,1742010,1191,1778,411,-1284,-611,-426,-10,154,-170
30113,1007,0,2023-03-01T18:52:32.490368,1742015,1191,1778,411,-1284,-611,-426,-10,154,-170
30114,1008,0,2023-03-01T18:52:32.495316,1742020,1191,1778,411,-1284,-611,-426,-10,154,-170
30115,1009,0,2023-03-01T18:52:32.500122,1742025,1189,1772,403,-1280,-616,-438,-10,154,-170
30116,1010,0,2023-03-01T18:52:32.505822,1742030,1189,1772,403,-1280,-616,-438,-10,154,-170
30117,1011,0,2023-03-01T18:52:32.511050,1742035,1189,1772,403,-1280,-616,-438,-10,154,-170
30118,1012,0,2023-03-01T18:52:32.515733,1742041,1189,1772,403,-1280,-616,-438,-10,154,-170
30119,1013,0,2023-03-01T18:52:32.520907,1742046,1186,1773,413,-1273,-616,-417,-10,154,-170
30120,1014,0,2023-03-01T18:52:32.526664,1742052,1186,1773,413,-1273,-616,-417,-10,154,-170
30121,1015,0,2023-03-01T18:52:32.532216,1742057,1186,1773,413,-1273,-616,-417,-10,154,-170
30122,1016,0,2023-03-01T18:52:32.537216,1742062,1186,1773,413,-1273,-616,-417,-10,154,-170
30123,1017,0,2023-03-01T18:52:32.542755,1742067,1187,1773,411,-1272,-605,-433,-9,153,-163
30124,1018,0,2023-03-01T18:52:32.548993,1742074,1187,1773,411,-1272,-605,-433,-9,153,-163
30125,1019,0,2023-03-01T18:52:32.553982,1742078,1187,1773,411,-1272,-605,-433,-9,153,-163
30126,1020,0,2023-03-01T18:52:32.558844,1742084,1187,1774,410,-1271,-614,-429,-9,153,-163
30127,1021,0,2023-03-01T18:52:32.565220,1742090,1187,1774,410,-1271,-614,-429,-9,153,-163
30128,1022,0,2023-03-01T18:52:32.570533,1742095,1187,1774,410,-1271,-614,-429,-9,153,-163
30129,1023,0,2023-03-01T18:52:32.575474,1742100,1187,1774,410,-1271,-614,-429,-9,153,-163
30130,1024,0,2023-03-01T18:52:32.580218,1742105,1190,1771,412,-1285,-616,-427,-9,153,-163
30131,1025,0,2023-03-01T18:52:32.587289,1742112,1190,1771,412,-1285,-616,-427,-9,153,-163
30132,1026,0,2023-03-01T18:52:32.593089,1742117,1190,1771,412,-1285,-616,-427,-9,153,-163
30133,1027,0,2023-03-01T18:52:32.598152,1742123,1185,1771,413,-1267,-609,-425,-9,153,-163
30134,1028,0,2023-03-01T18:52:32.604259,1742129,1185,1771,413,-1267,-609,-425,-9,153,-163
30135,1029,0,2023-03-01T18:52:32.609280,1742134,1185,1771,413,-1267,-609,-425,-9,153,-163
30136,1030,0,2023-03-01T18:52:32.614153,1742139,1185,1771,413,-1267,-609,-425,-9,153,-163
30137,1031,0,2023-03-01T18:52:32.619272,1742144,1191,1774,408,-1282,-625,-431,-9,153,-163
30138,1032,0,2023-03-01T18:52:32.625636,1742150,1191,1774,408,-1282,-625,-431,-9,153,-163
30139,1033,0,2023-03-01T18:52:32.631340,1742156,1191,1774,408,-1282,-625,-431,-9,153,-163
30140,1034,0,2023-03-01T18:52:32.636523,1742160,1191,1774,408,-1282,-625,-431,-9,153,-163
30141,1035,0,2023-03-01T18:52:32.641635,1742167,1188,1775,414,-1271,-609,-429,-9,153,-163
30142,1036,0,2023-03-01T18:52:32.647721,1742173,1188,1775,414,-1271,-609,-429,-9,153,-163
30143,1037,0,2023-03-01T18:52:32.653229,1742178,1188,1775,414,-1271,-609,-429,-9,153,-163
30144,1038,0,2023-03-01T18:52:32.658057,1742183,1189,1773,412,-1276,-611,-432,-9,153,-163
30145,1039,0,2023-03-01T18:52:32.664226,1742189,1189,1773,412,-1276,-611,-432,-9,153,-163
30146,1040,0,2023-03-01T18:52:32.669439,1742194,1189,1773,412,-1276,-611,-432,-9,153,-163
30147,1041,0,2023-03-01T18:52:32.674402,1742199,1189,1773,412,-1276,-611,-432,-9,153,-163
30148,1042,0,2023-03-01T18:52:32.679854,1742204,1186,1773,419,-1256,-607,-425,-6,150,-166
30149,1043,0,2023-03-01T18:52:32.686336,1742212,1186,1773,419,-1256,-607,-425,-6,150,-166
30150,1044,0,2023-03-01T18:52:32.692119,1742217,1186,1773,419,-1256,-607,-425,-6,150,-166
30151,1045,0,2023-03-01T18:52:32.697052,1742222,1186,1773,419,-1256,-607,-425,-6,150,-166
30152,1046,0,2023-03-01T18:52:32.702127,1742227,1184,1772,425,-1260,-612,-423,-6,150,-166
30153,1047,0,2023-03-01T18:52:32.708240,1742233,1184,1772,425,-1260,-612,-423,-6,150,-166
30154,1048,0,2023-03-01T18:52:32.713465,1742238,1184,1772,425,-1260,-612,-423,-6,150,-166
30155,1049,0,2023-03-01T18:52:32.718148,1742243,1187,1771,413,-1257,-620,-425,-6,150,-166
30156,1050,0,2023-03-01T18:52:32.723930,1742248,1187,1771,413,-1257,-620,-425,-6,150,-166
30157,1051,0,2023-03-01T18:52:32.728698,1742254,1187,1771,413,-1257,-620,-425,-6,150,-166
30158,1052,0,2023-03-01T18:52:32.733437,1742259,1187,1771,413,-1257,-620,-425,-6,150,-166
30159,1053,0,2023-03-01T18:52:32.738633,1742264,1186,1770,422,-1268,-621,-424,-6,150,-166
30160,1054,0,2023-03-01T18:52:32.744756,1742270,1186,1770,422,-1268,-621,-424,-6,150,-166
30161,1055,0,2023-03-01T18:52:32.750919,1742275,1186,1770,422,-1268,-621,-424,-6,150,-166
30162,1056,0,2023-03-01T18:52:32.755925,1742281,1186,1770,422,-1268,-621,-424,-6,150,-166
30163,1057,0,2023-03-01T18:52:32.760630,1742285,1190,1771,410,-1270,-625,-428,-6,150,-166
30164,1058,0,2023-03-01T18:52:32.767053,1742291,1190,1771,410,-1270,-625,-428,-6,150,-166
30165,1059,0,2023-03-01T18:52:32.772527,1742298,1190,1771,410,-1270,-625,-428,-6,150,-166
30166,1060,0,2023-03-01T18:52:32.777076,1742302,1190,1771,410,-1270,-625,-428,-6,150,-166
30167,1061,0,2023-03-01T18:52:32.781777,1742307,1183,1768,423,-1262,-619,-436,-6,150,-166
30168,1062,0,2023-03-01T18:52:32.787574,1742312,1183,1768,423,-1262,-619,-436,-6,150,-166
30169,1063,0,2023-03-01T18:52:32.792492,1742317,1183,1768,423,-1262,-619,-436,-6,150,-166
30170,1064,0,2023-03-01T18:52:32.797465,1742322,1183,1768,423,-1262,-619,-436,-6,150,-166
30171,1065,0,2023-03-01T18:52:32.802648,1742327,1184,1772,420,-1263,-616,-438,-6,154,-160
30172,1066,0,2023-03-01T18:52:32.807645,1742332,1184,1772,420,-1263,-616,-438,-6,154,-160
30173,1067,0,2023-03-01T18:52:32.812386,1742338,1184,1772,420,-1263,-616,-438,-6,154,-160
30174,1068,0,2023-03-01T18:52:32.817661,1742343,1184,1772,420,-1263,-616,-438,-6,154,-160
30175,1069,0,2023-03-01T18:52:32.822983,1742348,1182,1768,420,-1271,-615,-429,-6,154,-160
30176,1070,0,2023-03-01T18:52:32.828749,1742354,1182,1768,420,-1271,-615,-429,-6,154,-160
30177,1071,0,2023-03-01T18:52:32.833638,1742358,1182,1768,420,-1271,-615,-429,-6,154,-160
30178,1072,0,2023-03-01T18:52:32.838396,1742363,1186,1769,421,-1253,-617,-416,-6,154,-160
30179,1073,0,2023-03-01T18:52:32.844014,1742369,1186,1769,421,-1253,-617,-416,-6,154,-160
30180,1074,0,2023-03-01T18:52:32.848651,1742373,1186,1769,421,-1253,-617,-416,-6,154,-160
30181,1075,0,2023-03-01T18:52:32.853578,1742379,1186,1769,421,-1253,-617,-416,-6,154,-160
30182,1076,0,2023-03-01T18:52:32.858547,1742384,1186,1769,421,-1256,-618,-414,-6,154,-160
30183,1077,0,2023-03-01T18:52:32.864930,1742390,1186,1769,421,-1256,-618,-414,-6,154,-160
30184,1078,0,2023-03-01T18:52:32.870386,1742395,1186,1769,421,-1256,-618,-414,-6,154,-160
30185,1079,0,2023-03-01T18:52:32.875463,1742400,1186,1769,421,-1256,-618,-414,-6,154,-160
30186,1080,0,2023-03-01T18:52:32.880547,1742405,1189,1771,424,-1262,-616,-422,-6,154,-160
30187,1081,0,2023-03-01T18:52:32.886431,1742411,1189,1771,424,-1262,-616,-422,-6,154,-160
30188,1082,0,2023-03-01T18:52:32.891211,1742416,1189,1771,424,-1262,-616,-422,-6,154,-160
30189,1083,0,2023-03-01T18:52:32.895974,1742420,1189,1771,424,-1262,-616,-422,-6,154,-160
30190,1084,0,2023-03-01T18:52:32.900573,1742426,1186,1772,421,-1268,-615,-419,-6,154,-160
30191,1085,0,2023-03-01T18:52:32.906590,1742432,1186,1772,421,-1268,-615,-419,-6,154,-160
30192,1086,0,2023-03-01T18:52:32.911585,1742437,1186,1772,421,-1268,-615,-419,-6,154,-160
30193,1087,0,2023-03-01T18:52:32.916547,1742442,1186,1772,421,-1268,-615,-419,-6,154,-160
30194,1088,0,2023-03-01T18:52:32.921613,1742446,1183,1765,422,-1262,-611,-431,-6,154,-160
30195,1089,0,2023-03-01T18:52:32.928195,1742453,1183,1765,422,-1262,-611,-431,-6,154,-160
30196,1090,0,2023-03-01T18:52:32.934023,1742458,1183,1765,422,-1262,-611,-431,-6,154,-160
30197,1091,0,2023-03-01T18:52:32.938712,1742464,1185,1769,426,-1270,-615,-432,-1,155,-159
30198,1092,0,2023-03-01T18:52:32.943807,1742469,1185,1769,426,-1270,-615,-432,-1,155,-159
30199,1093,0,2023-03-01T18:52:32.950248,1742475,1185,1769,426,-1270,-615,-432,-1,155,-159
30200,1094,0,2023-03-01T18:52:32.954963,1742480,1185,1769,426,-1270,-615,-432,-1,155,-159
30201,1095,0,2023-03-01T18:52:32.960369,1742485,1183,1765,432,-1270,-623,-423,-1,155,-159
30202,1096,0,2023-03-01T18:52:32.966265,1742491,1183,1765,432,-1270,-623,-423,-1,155,-159
30203,1097,0,2023-03-01T18:52:32.971952,1742496,1183,1765,432,-1270,-623,-423,-1,155,-159
30204,1098,0,2023-03-01T18:52:32.978176,1742502,1182,1765,435,-1255,-616,-428,-1,155,-159
30205,1099,0,2023-03-01T18:52:32.984355,1742510,1182,1765,435,-1255,-616,-428,-1,155,-159
30206,1100,0,2023-03-01T18:52:32.989888,1742515,1182,1765,435,-1255,-616,-428,-1,155,-159
30207,1101,0,2023-03-01T18:52:32.994397,1742520,1182,1765,435,-1255,-616,-428,-1,155,-159
30208,1102,0,2023-03-01T18:52:32.999315,1742524,1180,1764,426,-1264,-616,-427,-1,155,-159
30209,1103,0,2023-03-01T18:52:33.005121,1742530,1180,1764,426,-1264,-616,-427,-1,155,-159
30210,1104,0,2023-03-01T18:52:33.009982,1742535,1180,1764,426,-1264,-616,-427,-1,155,-159
30211,1105,0,2023-03-01T18:52:33.015060,1742540,1180,1764,426,-1264,-616,-427,-1,155,-159
30212,1106,0,2023-03-01T18:52:33.020000,1742545,1181,1769,426,-1255,-607,-421,-1,155,-159
30213,1107,0,2023-03-01T18:52:33.026028,1742551,1181,1769,426,-1255,-607,-421,-1,155,-159
30214,1108,0,2023-03-01T18:52:33.031500,1742557,1181,1769,426,-1255,-607,-421,-1,155,-159
30215,1109,0,2023-03-01T18:52:33.036604,1742562,1181,1769,426,-1255,-607,-421,-1,155,-159
30216,1110,0,2023-03-01T18:52:33.042039,1742567,1181,1765,434,-1259,-609,-420,-1,155,-159
30217,1111,0,2023-03-01T18:52:33.048230,1742573,1181,1765,434,-1259,-609,-420,-1,155,-159
30218,1112,0,2023-03-01T18:52:33.053396,1742578,1181,1765,434,-1259,-609,-420,-1,155,-159
30219,1113,0,2023-03-01T18:52:33.058010,1742583,1180,1768,436,-1258,-613,-425,-4,155,-159
30220,1114,0,2023-03-01T18:52:33.062541,1742587,1180,1768,436,-1258,-613,-425,-4,160,-158
30221,1115,0,2023-03-01T18:52:33.067565,1742593,1180,1768,436,-1258,-613,-425,-4,160,-158
30222,1116,0,2023-03-01T18:52:33.072331,1742598,1180,1768,436,-1258,-613,-425,-4,160,-158
30223,1117,0,2023-03-01T18:52:33.077331,1742602,1180,1768,436,-1258,-613,-425,-4,160,-158
30224,1118,0,2023-03-01T18:52:33.083279,1742608,1179,1766,429,-1259,-613,-425,-4,160,-158
30225,1119,0,2023-03-01T18:52:33.089004,1742614,1179,1766,429,-1259,-613,-425,-4,160,-158
30226,1120,0,2023-03-01T18:52:33.093860,1742619,1179,1766,429,-1259,-613,-425,-4,160,-158
30227,1121,0,2023-03-01T18:52:33.098778,1742623,1181,1770,432,-1274,-615,-421,-4,160,-158
30228,1122,0,2023-03-01T18:52:33.104727,1742629,1181,1770,432,-1274,-615,-421,-4,160,-158
30229,1123,0,2023-03-01T18:52:33.110235,1742636,1181,1770,432,-1274,-615,-421,-4,160,-158
30230,1124,0,2023-03-01T18:52:33.114976,1742640,1181,1770,432,-1274,-615,-421,-4,160,-158
30231,1125,0,2023-03-01T18:52:33.119884,1742645,1181,1763,432,-1263,-609,-415,-4,160,-158
30232,1126,0,2023-03-01T18:52:33.126033,1742651,1181,1763,432,-1263,-609,-415,-4,160,-158
30233,1127,0,2023-03-01T18:52:33.130851,1742656,1181,1763,432,-1263,-609,-415,-4,160,-158
30234,1128,0,2023-03-01T18:52:33.136036,1742661,1181,1763,432,-1263,-609,-415,-4,160,-158
30235,1129,0,2023-03-01T18:52:33.141157,1742665,1182,1765,432,-1270,-606,-425,-4,160,-158
30236,1130,0,2023-03-01T18:52:33.146850,1742672,1182,1765,432,-1270,-606,-425,-4,160,-158
30237,1131,0,2023-03-01T18:52:33.151900,1742676,1182,1765,432,-1270,-606,-425,-4,160,-158
30238,1132,0,2023-03-01T18:52:33.156670,1742682,1182,1765,432,-1270,-606,-425,-4,160,-158
30239,1133,0,2023-03-01T18:52:33.162389,1742688,1179,1768,437,-1256,-603,-422,-4,160,-158
30240,1134,0,2023-03-01T18:52:33.168132,1742693,1179,1768,437,-1256,-603,-422,-4,160,-158
30241,1135,0,2023-03-01T18:52:33.174090,1742699,1179,1768,437,-1256,-603,-422,-4,160,-158
30242,1136,0,2023-03-01T18:52:33.179425,1742704,1181,1766,432,-1260,-615,-423,1,159,-169
30243,1137,0,2023-03-01T18:52:33.185356,1742710,1181,1766,432,-1260,-615,-423,1,159,-169
30244,1138,0,2023-03-01T18:52:33.191410,1742715,1181,1766,432,-1260,-615,-423,1,159,-169
30245,1139,0,2023-03-01T18:52:33.197930,1742723,1181,1766,432,-1260,-615,-423,1,159,-169
30246,1140,0,2023-03-01T18:52:33.204102,1742729,1181,1768,438,-1261,-614,-428,1,159,-169
30247,1141,0,2023-03-01T18:52:33.210477,1742735,1181,1768,438,-1261,-614,-428,1,159,-169
30248,1142,0,2023-03-01T18:52:33.215631,1742740,1181,1768,438,-1261,-614,-428,1,159,-169
30249,1143,0,2023-03-01T18:52:33.220585,1742745,1175,1764,432,-1259,-604,-427,1,159,-169
30250,1144,0,2023-03-01T18:52:33.226574,1742751,1175,1764,432,-1259,-604,-427,1,159,-169
30251,1145,0,2023-03-01T18:52:33.232496,1742757,1175,1764,432,-1259,-604,-427,1,159,-169
30252,1146,0,2023-03-01T18:52:33.238367,1742763,1175,1764,432,-1259,-604,-427,1,159,-169
30253,1147,0,2023-03-01T18:52:33.243880,1742769,1179,1765,436,-1262,-610,-427,1,159,-169
30254,1148,0,2023-03-01T18:52:33.250014,1742775,1179,1765,436,-1262,-610,-427,1,159,-169
30255,1149,0,2023-03-01T18:52:33.255150,1742780,1179,1765,436,-1262,-610,-427,1,159,-169
30256,1150,0,2023-03-01T18:52:33.260149,1742785,1178,1762,443,-1258,-605,-427,1,159,-169
30257,1151,0,2023-03-01T18:52:33.265905,1742790,1178,1762,443,-1258,-605,-427,1,159,-169
30258,1152,0,2023-03-01T18:52:33.271084,1742795,1178,1762,443,-1258,-605,-427,1,159,-169
30259,1153,0,2023-03-01T18:52:33.276160,1742801,1178,1762,443,-1258,-605,-427,1,159,-169
30260,1154,0,2023-03-01T18:52:33.280638,1742806,1177,1759,442,-1269,-608,-435,1,159,-169
30261,1155,0,2023-03-01T18:52:33.286544,1742812,1177,1759,442,-1269,-608,-435,1,159,-169
30262,1156,0,2023-03-01T18:52:33.291627,1742817,1177,1759,442,-1269,-608,-435,1,159,-169
30263,1157,0,2023-03-01T18:52:33.296420,1742821,1177,1759,442,-1269,-608,-435,1,159,-169
30264,1158,0,2023-03-01T18:52:33.301757,1742826,1179,1768,440,-1272,-608,-430,1,159,-169
30265,1159,0,2023-03-01T18:52:33.308144,1742833,1179,1768,440,-1272,-608,-430,1,159,-169
30266,1160,0,2023-03-01T18:52:33.314398,1742838,1179,1768,440,-1272,-608,-430,1,159,-169
30267,1161,0,2023-03-01T18:52:33.319960,1742844,1173,1760,437,-1263,-616,-432,0,158,-164
30268,1162,0,2023-03-01T18:52:33.325946,1742851,1173,1760,437,-1263,-616,-432,0,158,-164
30269,1163,0,2023-03-01T18:52:33.330769,1742856,1173,1760,437,-1263,-616,-432,0,158,-164
30270,1164,0,2023-03-01T18:52:33.335949,1742861,1173,1760,437,-1263,-616,-432,0,158,-164
30271,1165,0,2023-03-01T18:52:33.341043,1742866,1174,1764,444,-1260,-609,-434,0,158,-164
30272,1166,0,2023-03-01T18:52:33.347108,1742872,1174,1764,444,-1260,-609,-434,0,158,-164
30273,1167,0,2023-03-01T18:52:33.352268,1742877,1174,1764,444,-1260,-609,-434,0,158,-164
30274,1168,0,2023-03-01T18:52:33.357114,1742882,1174,1764,444,-1260,-609,-434,0,158,-164
30275,1169,0,2023-03-01T18:52:33.362606,1742887,1179,1764,446,-1250,-613,-432,0,158,-164
30276,1170,0,2023-03-01T18:52:33.368637,1742894,1179,1764,446,-1250,-613,-432,0,158,-164
30277,1171,0,2023-03-01T18:52:33.373786,1742899,1179,1764,446,-1250,-613,-432,0,158,-164
30278,1172,0,2023-03-01T18:52:33.378728,1742904,1174,1762,448,-1260,-618,-432,0,158,-164
30279,1173,0,2023-03-01T18:52:33.385069,1742910,1174,1762,448,-1260,-618,-432,0,158,-164
30280,1174,0,2023-03-01T18:52:33.389926,1742915,1174,1762,448,-1260,-618,-432,0,158,-164
30281,1175,0,2023-03-01T18:52:33.394829,1742920,1174,1762,448,-1260,-618,-432,0,158,-164
30282,1176,0,2023-03-01T18:52:33.399526,1742924,1176,1762,443,-1265,-619,-429,0,158,-164
30283,1177,0,2023-03-01T18:52:33.405900,1742930,1176,1762,443,-1265,-619,-429,0,158,-164
30284,1178,0,2023-03-01T18:52:33.410999,1742936,1176,1762,443,-1265,-619,-429,0,158,-164
30285,1179,0,2023-03-01T18:52:33.415979,1742941,1176,1762,443,-1265,-619,-429,0,158,-164
30286,1180,0,2023-03-01T18:52:33.420977,1742946,1173,1760,451,-1262,-615,-425,0,158,-164
30287,1181,0,2023-03-01T18:52:33.428129,1742952,1173,1760,451,-1262,-615,-425,0,158,-164
30288,1182,0,2023-03-01T18:52:33.434169,1742959,1173,1760,451,-1262,-615,-425,0,158,-164
30289,1183,0,2023-03-01T18:52:33.439048,1742964,1175,1764,445,-1263,-617,-426,-4,154,-160
30290,1184,0,2023-03-01T18:52:33.444354,1742969,1175,1764,445,-1263,-617,-426,-4,154,-160
30291,1185,0,2023-03-01T18:52:33.449717,1742974,1175,1764,445,-1263,-617,-426,-4,154,-160
30292,1186,0,2023-03-01T18:52:33.454542,1742980,1175,1764,445,-1263,-617,-426,-4,154,-160
30293,1187,0,2023-03-01T18:52:33.459235,1742984,1176,1763,451,-1266,-620,-431,-4,154,-160
30294,1188,0,2023-03-01T18:52:33.465502,1742990,1176,1763,451,-1266,-620,-431,-4,154,-160
30295,1189,0,2023-03-01T18:52:33.471518,1742996,1176,1763,451,-1266,-620,-431,-4,154,-160
30296,1190,0,2023-03-01T18:52:33.476453,1743001,1176,1763,451,-1266,-620,-431,-4,154,-160
30297,1191,0,2023-03-01T18:52:33.481473,1743006,1173,1762,452,-1261,-613,-426,-4,154,-160
30298,1192,0,2023-03-01T18:52:33.487363,1743012,1173,1762,452,-1261,-613,-426,-4,154,-160
30299,1193,0,2023-03-01T18:52:33.492434,1743017,1173,1762,452,-1261,-613,-426,-4,154,-160
30300,1194,0,2023-03-01T18:52:33.497362,1743023,1173,1762,452,-1261,-613,-426,-4,154,-160
30301,1195,0,2023-03-01T18:52:33.502159,1743027,1172,1761,453,-1263,-611,-420,-4,154,-160
30302,1196,0,2023-03-01T18:52:33.507347,1743032,1172,1761,453,-1263,-611,-420,-4,154,-160
30303,1197,0,2023-03-01T18:52:33.512475,1743037,1172,1761,453,-1263,-611,-420,-4,154,-160
30304,1198,0,2023-03-01T18:52:33.517561,1743042,1172,1761,453,-1263,-611,-420,-4,154,-160
30305,1199,0,2023-03-01T18:52:33.522993,1743048,1175,1762,451,-1260,-613,-428,-4,154,-160
30306,1200,0,2023-03-01T18:52:33.528794,1743053,1175,1762,451,-1260,-613,-428,-4,154,-160
30307,1201,0,2023-03-01T18:52:33.534299,1743059,1175,1762,451,-1260,-613,-428,-4,154,-160
30308,1202,0,2023-03-01T18:52:33.539560,1743065,1172,1759,453,-1273,-610,-436,-4,154,-160
30309,1203,0,2023-03-01T18:52:33.545860,1743071,1172,1759,453,-1273,-610,-436,-4,154,-160
30310,1204,0,2023-03-01T18:52:33.551557,1743077,1172,1759,453,-1273,-610,-436,-4,154,-160
30311,1205,0,2023-03-01T18:52:33.556657,1743082,1172,1759,453,-1273,-610,-436,-4,154,-160
30312,1206,0,2023-03-01T18:52:33.561715,1743086,1175,1759,449,-1272,-608,-424,-4,154,-160
30313,1207,0,2023-03-01T18:52:33.567773,1743092,1175,1759,449,-1272,-608,-424,-4,154,-160
30314,1208,0,2023-03-01T18:52:33.572489,1743097,1175,1759,449,-1272,-608,-424,-4,154,-160
30315,1209,0,2023-03-01T18:52:33.577248,1743102,1175,1759,449,-1272,-608,-424,-4,154,-160
30316,1210,0,2023-03-01T18:52:33.582967,1743108,1173,1761,455,-1275,-612,-436,-6,150,-170
30317,1211,0,2023-03-01T18:52:33.588693,1743114,1173,1761,455,-1275,-612,-436,-6,150,-170
30318,1212,0,2023-03-01T18:52:33.594247,1743119,1173,1761,455,-1275,-612,-436,-6,150,-170
30319,1213,0,2023-03-01T18:52:33.598902,1743124,1174,1760,464,-1268,-609,-428,-6,150,-170
30320,1214,0,2023-03-01T18:52:33.604534,1743129,1174,1760,464,-1268,-609,-428,-6,150,-170
30321,1215,0,2023-03-01T18:52:33.610480,1743135,1174,1760,464,-1268,-609,-428,-6,150,-170
30322,1216,0,2023-03-01T18:52:33.615425,1743140,1174,1760,464,-1268,-609,-428,-6,150,-170
30323,1217,0,2023-03-01T18:52:33.620394,1743145,1166,1759,461,-1278,-609,-437,-6,150,-170
30324,1218,0,2023-03-01T18:52:33.626332,1743152,1166,1759,461,-1278,-609,-437,-6,150,-170
30325,1219,0,2023-03-01T18:52:33.631021,1743156,1166,1759,461,-1278,-609,-437,-6,150,-170
30326,1220,0,2023-03-01T18:52:33.635989,1743161,1166,1759,461,-1278,-609,-437,-6,150,-170
30327,1221,0,2023-03-01T18:52:33.640993,1743166,1172,1758,459,-1283,-598,-432,-6,150,-170
30328,1222,0,2023-03-01T18:52:33.647271,1743172,1172,1758,459,-1283,-598,-432,-6,150,-170
30329,1223,0,2023-03-01T18:52:33.652346,1743177,1172,1758,459,-1283,-598,-432,-6,150,-170
30330,1224,0,2023-03-01T18:52:33.657431,1743182,1172,1758,459,-1283,-598,-432,-6,150,-170
30331,1225,0,2023-03-01T18:52:33.662674,1743187,1171,1756,459,-1275,-609,-433,-6,150,-170
30332,1226,0,2023-03-01T18:52:33.668276,1743194,1171,1756,459,-1275,-609,-433,-6,150,-170
30333,1227,0,2023-03-01T18:52:33.674659,1743199,1171,1756,459,-1275,-609,-433,-6,150,-170
30334,1228,0,2023-03-01T18:52:33.679735,1743205,1168,1764,457,-1283,-608,-436,-6,150,-170
30335,1229,0,2023-03-01T18:52:33.685815,1743211,1168,1764,457,-1283,-608,-436,-6,150,-170
30336,1230,0,2023-03-01T18:52:33.692002,1743216,1168,1764,457,-1283,-608,-436,-6,150,-170
30337,1231,0,2023-03-01T18:52:33.697170,1743222,1168,1764,457,-1283,-608,-436,-6,150,-170
30338,1232,0,2023-03-01T18:52:33.702916,1743227,1170,1754,462,-1271,-609,-428,0,164,-164
30339,1233,0,2023-03-01T18:52:33.708735,1743234,1170,1754,462,-1271,-609,-428,0,164,-164
30340,1234,0,2023-03-01T18:52:33.714340,1743240,1170,1754,462,-1271,-609,-428,0,164,-164
30341,1235,0,2023-03-01T18:52:33.719411,1743245,1171,1760,463,-1277,-596,-438,0,164,-164
30342,1236,0,2023-03-01T18:52:33.725013,1743250,1171,1760,463,-1277,-596,-438,0,164,-164
30343,1237,0,2023-03-01T18:52:33.730733,1743256,1171,1760,463,-1277,-596,-438,0,164,-164
30344,1238,0,2023-03-01T18:52:33.735931,1743261,1171,1760,463,-1277,-596,-438,0,164,-164
30345,1239,0,2023-03-01T18:52:33.740719,1743265,1168,1759,464,-1268,-605,-431,0,164,-164
30346,1240,0,2023-03-01T18:52:33.747073,1743272,1168,1759,464,-1268,-605,-431,0,164,-164
30347,1241,0,2023-03-01T18:52:33.751945,1743277,1168,1759,464,-1268,-605,-431,0,164,-164
30348,1242,0,2023-03-01T18:52:33.756872,1743282,1168,1759,464,-1268,-605,-431,0,164,-164
30349,1243,0,2023-03-01T18:52:33.762226,1743287,1170,1759,463,-1269,-618,-439,0,164,-164
30350,1244,0,2023-03-01T18:52:33.767984,1743293,1170,1759,463,-1269,-618,-439,0,164,-164
30351,1245,0,2023-03-01T18:52:33.772894,1743298,1170,1759,463,-1269,-618,-439,0,164,-164
30352,1246,0,2023-03-01T18:52:33.777786,1743303,1170,1759,463,-1269,-618,-439,0,164,-164
30353,1247,0,2023-03-01T18:52:33.783111,1743308,1167,1759,464,-1273,-612,-436,0,164,-164
30354,1248,0,2023-03-01T18:52:33.788911,1743313,1167,1759,464,-1273,-612,-436,0,164,-164
30355,1249,0,2023-03-01T18:52:33.793935,1743319,1167,1759,464,-1273,-612,-436,0,164,-164
30356,1250,0,2023-03-01T18:52:33.799550,1743325,1170,1759,463,-1268,-616,-435,0,164,-164
30357,1251,0,2023-03-01T18:52:33.806557,1743331,1170,1759,463,-1268,-616,-435,0,164,-164
30358,1252,0,2023-03-01T18:52:33.812257,1743337,1170,1759,463,-1268,-616,-435,0,164,-164
30359,1253,0,2023-03-01T18:52:33.817194,1743342,1170,1759,463,-1268,-616,-435,0,164,-164
30360,1254,0,2023-03-01T18:52:33.822765,1743348,1170,1760,467,-1267,-613,-434,-3,151,-163
30361,1255,0,2023-03-01T18:52:33.827955,1743353,1170,1760,467,-1267,-613,-434,-3,151,-163
30362,1256,0,2023-03-01T18:52:33.833837,1743358,1170,1760,467,-1267,-613,-434,-3,151,-163
30363,1257,0,2023-03-01T18:52:33.838769,1743364,1170,1760,467,-1267,-613,-434,-3,151,-163
30364,1258,0,2023-03-01T18:52:33.844183,1743369,1163,1758,461,-1268,-612,-438,-3,151,-163
30365,1259,0,2023-03-01T18:52:33.850028,1743375,1163,1758,461,-1268,-612,-438,-3,151,-163
30366,1260,0,2023-03-01T18:52:33.856584,1743381,1163,1758,461,-1268,-612,-438,-3,151,-163
30367,1261,0,2023-03-01T18:52:33.861421,1743386,1164,1759,462,-1279,-610,-434,-3,151,-163
30368,1262,0,2023-03-01T18:52:33.867724,1743392,1164,1759,462,-1279,-610,-434,-3,151,-163
30369,1263,0,2023-03-01T18:52:33.872469,1743397,1164,1759,462,-1279,-610,-434,-3,151,-163
30370,1264,0,2023-03-01T18:52:33.877373,1743403,1164,1759,462,-1279,-610,-434,-3,151,-163
30371,1265,0,2023-03-01T18:52:33.882952,1743408,1165,1755,472,-1280,-608,-437,-3,151,-163
30372,1266,0,2023-03-01T18:52:33.888294,1743414,1165,1755,472,-1280,-608,-437,-3,151,-163
30373,1267,0,2023-03-01T18:52:33.893170,1743418,1165,1755,472,-1280,-608,-437,-3,151,-163
30374,1268,0,2023-03-01T18:52:33.898173,1743423,1165,1755,472,-1280,-608,-437,-3,151,-163
30375,1269,0,2023-03-01T18:52:33.903532,1743429,1163,1757,468,-1294,-611,-444,-3,151,-163
30376,1270,0,2023-03-01T18:52:33.908753,1743433,1163,1757,468,-1294,-611,-444,-3,151,-163
30377,1271,0,2023-03-01T18:52:33.913481,1743438,1163,1757,468,-1294,-611,-444,-3,151,-163
30378,1272,0,2023-03-01T18:52:33.918127,1743443,1163,1757,468,-1294,-611,-444,-3,151,-163
30379,1273,0,2023-03-01T18:52:33.922927,1743448,1166,1757,470,-1283,-609,-436,-3,151,-163
30380,1274,0,2023-03-01T18:52:33.929043,1743454,1166,1757,470,-1283,-609,-436,-3,151,-163
30381,1275,0,2023-03-01T18:52:33.933880,1743459,1166,1757,470,-1283,-609,-436,-3,151,-163
30382,1276,0,2023-03-01T18:52:33.938837,1743464,1166,1757,470,-1283,-609,-436,-3,151,-163
30383,1277,0,2023-03-01T18:52:33.944177,1743469,1165,1753,471,-1275,-615,-439,-3,151,-163
30384,1278,0,2023-03-01T18:52:33.950323,1743475,1165,1753,471,-1275,-615,-439,-3,151,-163
30385,1279,0,2023-03-01T18:52:33.955059,1743480,1165,1753,471,-1275,-615,-439,-3,151,-163
30386,1280,0,2023-03-01T18:52:33.959969,1743484,1167,1754,473,-1282,-609,-443,-5,161,-165
30387,1281,0,2023-03-01T18:52:33.966295,1743492,1167,1754,473,-1282,-609,-443,-5,161,-165
30388,1282,0,2023-03-01T18:52:33.971348,1743496,1167,1754,473,-1282,-609,-443,-5,161,-165
30389,1283,0,2023-03-01T18:52:33.976097,1743501,1167,1754,473,-1282,-609,-443,-5,161,-165
30390,1284,0,2023-03-01T18:52:33.980734,1743506,1165,1753,476,-1282,-605,-442,-5,161,-165
30391,1285,0,2023-03-01T18:52:33.986329,1743511,1165,1753,476,-1282,-605,-442,-5,161,-165
30392,1286,0,2023-03-01T18:52:33.991379,1743516,1165,1753,476,-1282,-605,-442,-5,161,-165
30393,1287,0,2023-03-01T18:52:33.995942,1743521,1165,1753,476,-1282,-605,-442,-5,161,-165
30394,1288,0,2023-03-01T18:52:34.000935,1743525,1165,1755,473,-1289,-612,-440,-5,161,-165
30395,1289,0,2023-03-01T18:52:34.007131,1743532,1165,1755,473,-1289,-612,-440,-5,161,-165
30396,1290,0,2023-03-01T18:52:34.012401,1743538,1165,1755,473,-1289,-612,-440,-5,161,-165
30397,1291,0,2023-03-01T18:52:34.017411,1743543,1165,1755,473,-1289,-612,-440,-5,161,-165
30398,1292,0,2023-03-01T18:52:34.022096,1743547,1164,1755,477,-1279,-610,-439,-5,161,-165
30399,1293,0,2023-03-01T18:52:34.027587,1743553,1164,1755,477,-1279,-610,-439,-5,161,-165
30400,1294,0,2023-03-01T18:52:34.033375,1743558,1164,1755,477,-1279,-610,-439,-5,161,-165
30401,1295,0,2023-03-01T18:52:34.038380,1743563,1164,1755,477,-1279,-610,-439,-5,161,-165
30402,1296,0,2023-03-01T18:52:34.044046,1743569,1165,1756,473,-1280,-611,-430,-5,161,-165
30403,1297,0,2023-03-01T18:52:34.049537,1743575,1165,1756,473,-1280,-611,-430,-5,161,-165
30404,1298,0,2023-03-01T18:52:34.054470,1743580,1165,1756,473,-1280,-611,-430,-5,161,-165
30405,1299,0,2023-03-01T18:52:34.059550,1743585,1168,1756,478,-1284,-611,-435,-5,161,-165
30406,1300,0,2023-03-01T18:52:34.066015,1743591,1168,1756,478,-1284,-611,-435,-5,161,-165
30407,1301,0,2023-03-01T18:52:34.072128,1743597,1168,1756,478,-1284,-611,-435,-5,161,-165
30408,1302,0,2023-03-01T18:52:34.077284,1743602,1168,1756,478,-1284,-611,-435,-5,161,-165
30409,1303,0,2023-03-01T18:52:34.082874,1743608,1160,1755,484,-1282,-607,-444,-5,159,-165
30410,1304,0,2023-03-01T18:52:34.088361,1743613,1160,1755,484,-1282,-607,-444,-5,159,-165
30411,1305,0,2023-03-01T18:52:34.093152,1743618,1160,1755,484,-1282,-607,-444,-5,159,-165
30412,1306,0,2023-03-01T18:52:34.097827,1743623,1160,1755,484,-1282,-607,-444,-5,159,-165
30413,1307,0,2023-03-01T18:52:34.103291,1743628,1165,1754,475,-1291,-614,-438,-5,159,-165
30414,1308,0,2023-03-01T18:52:34.109446,1743634,1165,1754,475,-1291,-614,-438,-5,159,-165
30415,1309,0,2023-03-01T18:52:34.114434,1743639,1165,1754,475,-1291,-614,-438,-5,159,-165
30416,1310,0,2023-03-01T18:52:34.119725,1743644,1162,1754,482,-1288,-608,-448,-5,159,-165
30417,1311,0,2023-03-01T18:52:34.125851,1743650,1162,1754,482,-1288,-608,-448,-5,159,-165
30418,1312,0,2023-03-01T18:52:34.131013,1743655,1162,1754,482,-1288,-608,-448,-5,159,-165
30419,1313,0,2023-03-01T18:52:34.136096,1743661,1162,1754,482,-1288,-608,-448,-5,159,-165
30420,1314,0,2023-03-01T18:52:34.140780,1743666,1159,1750,481,-1292,-614,-438,-5,159,-165
30421,1315,0,2023-03-01T18:52:34.147484,1743673,1159,1750,481,-1292,-614,-438,-5,159,-165
30422,1316,0,2023-03-01T18:52:34.152419,1743677,1159,1750,481,-1292,-614,-438,-5,159,-165
30423,1317,0,2023-03-01T18:52:34.157096,1743682,1159,1750,481,-1292,-614,-438,-5,159,-165
30424,1318,0,2023-03-01T18:52:34.162746,1743687,1162,1755,480,-1288,-607,-444,-5,159,-165
30425,1319,0,2023-03-01T18:52:34.168017,1743692,1162,1755,480,-1288,-607,-444,-5,159,-165
30426,1320,0,2023-03-01T18:52:34.173060,1743697,1162,1755,480,-1288,-607,-444,-5,159,-165
30427,1321,0,2023-03-01T18:52:34.177950,1743703,1162,1755,480,-1288,-607,-444,-5,159,-165
30428,1322,0,2023-03-01T18:52:34.183758,1743709,1160,1747,484,-1278,-609,-433,-5,159,-165
30429,1323,0,2023-03-01T18:52:34.189362,1743714,1160,1747,484,-1278,-609,-433,-5,159,-165
30430,1324,0,2023-03-01T18:52:34.195000,1743720,1160,1747,484,-1278,-609,-433,-5,159,-165
30431,1325,0,2023-03-01T18:52:34.199968,1743725,1161,1754,479,-1293,-607,-442,-5,159,-165
30432,1326,0,2023-03-01T18:52:34.206421,1743731,1161,1754,479,-1293,-607,-442,-5,159,-165
30433,1327,0,2023-03-01T18:52:34.212416,1743737,1161,1754,479,-1293,-607,-442,-5,159,-165
30434,1328,0,2023-03-01T18:52:34.217493,1743742,1161,1754,479,-1293,-607,-442,-5,159,-165
30435,1329,0,2023-03-01T18:52:34.223283,1743748,1161,1752,490,-1272,-604,-435,-8,154,-160
30436,1330,0,2023-03-01T18:52:34.229518,1743754,1161,1752,490,-1272,-604,-435,-8,154,-160
30437,1331,0,2023-03-01T18:52:34.235019,1743760,1161,1752,490,-1272,-604,-435,-8,154,-160
30438,1332,0,2023-03-01T18:52:34.239844,1743765,1158,1751,487,-1281,-608,-447,-8,154,-160
30439,1333,0,2023-03-01T18:52:34.245934,1743771,1158,1751,487,-1281,-608,-447,-8,154,-160
30440,1334,0,2023-03-01T18:52:34.251343,1743776,1158,1751,487,-1281,-608,-447,-8,154,-160
30441,1335,0,2023-03-01T18:52:34.256133,1743781,1158,1751,487,-1281,-608,-447,-8,154,-160
30442,1336,0,2023-03-01T18:52:34.261446,1743787,1159,1752,490,-1281,-607,-439,-8,154,-160
30443,1337,0,2023-03-01T18:52:34.267603,1743793,1159,1752,490,-1281,-607,-439,-8,154,-160
30444,1338,0,2023-03-01T18:52:34.272349,1743797,1159,1752,490,-1281,-607,-439,-8,154,-160
30445,1339,0,2023-03-01T18:52:34.277349,1743802,1159,1752,490,-1281,-607,-439,-8,154,-160
30446,1340,0,2023-03-01T18:52:34.282511,1743807,1159,1752,489,-1283,-601,-442,-8,154,-160
30447,1341,0,2023-03-01T18:52:34.288688,1743813,1159,1752,489,-1283,-601,-442,-8,154,-160
30448,1342,0,2023-03-01T18:52:34.294488,1743819,1159,1752,489,-1283,-601,-442,-8,154,-160
30449,1343,0,2023-03-01T18:52:34.299421,1743824,1159,1751,485,-1285,-603,-437,-8,154,-160
30450,1344,0,2023-03-01T18:52:34.306517,1743832,1159,1751,485,-1285,-603,-437,-8,154,-160
30451,1345,0,2023-03-01T18:52:34.312082,1743837,1159,1751,485,-1285,-603,-437,-8,154,-160
30452,1346,0,2023-03-01T18:52:34.317539,1743842,1159,1751,485,-1285,-603,-437,-8,154,-160
30453,1347,0,2023-03-01T18:52:34.322586,1743848,1157,1752,484,-1280,-602,-422,-8,154,-160
30454,1348,0,2023-03-01T18:52:34.328213,1743853,1157,1752,484,-1280,-602,-422,-8,154,-160
30455,1349,0,2023-03-01T18:52:34.333227,1743858,1157,1752,484,-1280,-602,-422,-8,154,-160
30456,1350,0,2023-03-01T18:52:34.338105,1743863,1157,1752,484,-1280,-602,-422,-8,154,-160
30457,1351,0,2023-03-01T18:52:34.343859,1743868,1159,1750,492,-1292,-600,-437,-1,157,-159
30458,1352,0,2023-03-01T18:52:34.349200,1743875,1159,1750,492,-1292,-600,-437,-1,157,-159
30459,1353,0,2023-03-01T18:52:34.354059,1743879,1159,1750,492,-1292,-600,-437,-1,157,-159
30460,1354,0,2023-03-01T18:52:34.359276,1743884,1159,1750,492,-1292,-600,-437,-1,157,-159
30461,1355,0,2023-03-01T18:52:34.365270,1743890,1155,1751,493,-1288,-609,-432,-1,157,-159
30462,1356,0,2023-03-01T18:52:34.371142,1743896,1155,1751,493,-1288,-609,-432,-1,157,-159
30463,1357,0,2023-03-01T18:52:34.376403,1743901,1155,1751,493,-1288,-609,-432,-1,157,-159
30464,1358,0,2023-03-01T18:52:34.381407,1743906,1159,1752,495,-1290,-606,-443,-1,157,-159
30465,1359,0,2023-03-01T18:52:34.387614,1743912,1159,1752,495,-1290,-606,-443,-1,157,-159
30466,1360,0,2023-03-01T18:52:34.392582,1743918,1159,1752,495,-1290,-606,-443,-1,157,-159
30467,1361,0,2023-03-01T18:52:34.397780,1743923,1159,1752,495,-1290,-606,-443,-1,157,-159
30468,1362,0,2023-03-01T18:52:34.403191,1743928,1157,1747,487,-1288,-603,-440,-1,157,-159
30469,1363,0,2023-03-01T18:52:34.408429,1743933,1157,1747,487,-1288,-603,-440,-1,157,-159
30470,1364,0,2023-03-01T18:52:34.413300,1743938,1157,1747,487,-1288,-603,-440,-1,157,-159
30471,1365,0,2023-03-01T18:52:34.418263,1743943,1157,1747,487,-1288,-603,-440,-1,157,-159
30472,1366,0,2023-03-01T18:52:34.423696,1743948,1153,1746,498,-1286,-598,-437,-1,157,-159
30473,1367,0,2023-03-01T18:52:34.429178,1743954,1153,1746,498,-1286,-598,-437,-1,157,-159
30474,1368,0,2023-03-01T18:52:34.433900,1743959,1153,1746,498,-1286,-598,-437,-1,157,-159
30475,1369,0,2023-03-01T18:52:34.438508,1743964,1153,1746,498,-1286,-598,-437,-1,157,-159
30476,1370,0,2023-03-01T18:52:34.444047,1743969,1154,1747,498,-1296,-597,-438,-1,157,-159
30477,1371,0,2023-03-01T18:52:34.449830,1743975,1154,1747,498,-1296,-597,-438,-1,157,-159
30478,1372,0,2023-03-01T18:52:34.455468,1743980,1154,1747,498,-1296,-597,-438,-1,157,-159
30479,1373,0,2023-03-01T18:52:34.460305,1743985,1153,1750,492,-1291,-591,-444,-1,157,-159
30480,1374,0,2023-03-01T18:52:34.465889,1743990,1153,1750,492,-1291,-591,-444,-1,157,-159
30481,1375,0,2023-03-01T18:52:34.470972,1743995,1153,1750,492,-1291,-591,-444,-1,157,-159
30482,1376,0,2023-03-01T18:52:34.475855,1744001,1153,1750,492,-1291,-591,-444,-1,157,-159
30483,1377,0,2023-03-01T18:52:34.480796,1744006,1156,1748,497,-1297,-596,-446,-1,155,-157
30484,1378,0,2023-03-01T18:52:34.486821,1744012,1156,1748,497,-1297,-596,-446,-1,155,-157
30485,1379,0,2023-03-01T18:52:34.491711,1744017,1156,1748,497,-1297,-596,-446,-1,155,-157
30486,1380,0,2023-03-01T18:52:34.496899,1744022,1156,1748,497,-1297,-596,-446,-1,155,-157
30487,1381,0,2023-03-01T18:52:34.501533,1744026,1154,1749,501,-1290,-595,-439,-1,155,-157
30488,1382,0,2023-03-01T18:52:34.507550,1744032,1154,1749,501,-1290,-595,-439,-1,155,-157
30489,1383,0,2023-03-01T18:52:34.512434,1744037,1154,1749,501,-1290,-595,-439,-1,155,-157
30490,1384,0,2023-03-01T18:52:34.517181,1744043,1154,1749,501,-1290,-595,-439,-1,155,-157
30491,1385,0,2023-03-01T18:52:34.522200,1744047,1156,1747,504,-1282,-583,-442,-1,155,-157
30492,1386,0,2023-03-01T18:52:34.527731,1744053,1156,1747,504,-1282,-583,-442,-1,155,-157
30493,1387,0,2023-03-01T18:52:34.533613,1744059,1156,1747,504,-1282,-583,-442,-1,155,-157
30494,1388,0,2023-03-01T18:52:34.538472,1744063,1156,1747,504,-1282,-583,-442,-1,155,-157
30495,1389,0,2023-03-01T18:52:34.544097,1744069,1154,1749,501,-1288,-590,-437,-1,155,-157
30496,1390,0,2023-03-01T18:52:34.549333,1744074,1154,1749,501,-1288,-590,-437,-1,155,-157
30497,1391,0,2023-03-01T18:52:34.554355,1744079,1154,1749,501,-1288,-590,-437,-1,155,-157
30498,1392,0,2023-03-01T18:52:34.559389,1744084,1154,1749,501,-1288,-590,-437,-1,155,-157
30499,1393,0,2023-03-01T18:52:34.565275,1744090,1151,1746,499,-1279,-593,-431,-1,155,-157
30500,1394,0,2023-03-01T18:52:34.571212,1744096,1151,1746,499,-1279,-593,-431,-1,155,-157
30501,1395,0,2023-03-01T18:52:34.576339,1744101,1151,1746,499,-1279,-593,-431,-1,155,-157
30502,1396,0,2023-03-01T18:52:34.581644,1744107,1156,1749,501,-1280,-599,-441,-1,155,-157
30503,1397,0,2023-03-01T18:52:34.587918,1744113,1156,1749,501,-1280,-599,-441,-1,155,-157
30504,1398,0,2023-03-01T18:52:34.592893,1744118,1156,1749,501,-1280,-599,-441,-1,155,-157
30505,1399,0,2023-03-01T18:52:34.597807,1744122,1156,1749,501,-1280,-599,-441,-1,155,-157
30506,1400,0,2023-03-01T18:52:34.603197,1744129,1154,1746,503,-1272,-597,-434,-4,152,-160
30507,1401,0,2023-03-01T18:52:34.608719,1744134,1154,1746,503,-1272,-597,-434,-4,152,-160
30508,1402,0,2023-03-01T18:52:34.613801,1744139,1154,1746,503,-1272,-597,-434,-4,152,-160
30509,1403,0,2023-03-01T18:52:34.618695,1744144,1154,1746,503,-1272,-597,-434,-4,152,-160
30510,1404,0,2023-03-01T18:52:34.623510,1744149,1155,1748,506,-1281,-600,-434,-4,152,-160
30511,1405,0,2023-03-01T18:52:34.628840,1744154,1155,1748,506,-1281,-600,-434,-4,152,-160
30512,1406,0,2023-03-01T18:52:34.634139,1744159,1155,1748,506,-1281,-600,-434,-4,152,-160
30513,1407,0,2023-03-01T18:52:34.639102,1744164,1155,1748,506,-1281,-600,-434,-4,152,-160
30514,1408,0,2023-03-01T18:52:34.644737,1744169,1153,1748,501,-1277,-599,-434,-4,152,-160
30515,1409,0,2023-03-01T18:52:34.650619,1744176,1153,1748,501,-1277,-599,-434,-4,152,-160
30516,1410,0,2023-03-01T18:52:34.656242,1744181,1153,1748,501,-1277,-599,-434,-4,152,-160
30517,1411,0,2023-03-01T18:52:34.661267,1744186,1151,1744,501,-1277,-599,-431,-4,152,-160
30518,1412,0,2023-03-01T18:52:34.666523,1744192,1151,1744,501,-1277,-599,-431,-4,152,-160
30519,1413,0,2023-03-01T18:52:34.671337,1744196,1151,1744,501,-1277,-599,-431,-4,152,-160
30520,1414,0,2023-03-01T18:52:34.676047,1744201,1151,1744,501,-1277,-599,-431,-4,152,-160
30521,1415,0,2023-03-01T18:52:34.680732,1744205,1150,1745,509,-1280,-600,-436,-4,152,-160
30522,1416,0,2023-03-01T18:52:34.686427,1744211,1150,1745,509,-1280,-600,-436,-4,152,-160
30523,1417,0,2023-03-01T18:52:34.691210,1744217,1150,1745,509,-1280,-600,-436,-4,152,-160
30524,1418,0,2023-03-01T18:52:34.695947,1744221,1150,1745,509,-1280,-600,-436,-4,152,-160
30525,1419,0,2023-03-01T18:52:34.700889,1744226,1149,1745,507,-1287,-590,-432,-4,152,-160
30526,1420,0,2023-03-01T18:52:34.707121,1744232,1149,1745,507,-1287,-590,-432,-4,152,-160
30527,1421,0,2023-03-01T18:52:34.712069,1744237,1149,1745,507,-1287,-590,-432,-4,152,-160
30528,1422,0,2023-03-01T18:52:34.717114,1744242,1149,1745,507,-1287,-590,-432,-4,152,-160
30529,1423,0,2023-03-01T18:52:34.721821,1744247,1148,1749,508,-1282,-586,-435,2,152,-162
30530,1424,0,2023-03-01T18:52:34.728000,1744252,1148,1749,508,-1282,-586,-435,2,152,-162
30531,1425,0,2023-03-01T18:52:34.733595,1744259,1148,1749,508,-1282,-586,-435,2,152,-162
30532,1426,0,2023-03-01T18:52:34.738404,1744264,1148,1749,508,-1282,-586,-435,2,152,-162
30533,1427,0,2023-03-01T18:52:34.744011,1744269,1152,1745,516,-1276,-586,-432,2,152,-162
30534,1428,0,2023-03-01T18:52:34.749477,1744274,1152,1745,516,-1276,-586,-432,2,152,-162
30535,1429,0,2023-03-01T18:52:34.754486,1744279,1152,1745,516,-1276,-586,-432,2,152,-162
30536,1430,0,2023-03-01T18:52:34.759370,1744284,1152,1745,516,-1276,-586,-432,2,152,-162
30537,1431,0,2023-03-01T18:52:34.764060,1744289,1147,1746,518,-1278,-580,-437,2,152,-162
30538,1432,0,2023-03-01T18:52:34.769839,1744294,1147,1746,518,-1278,-580,-437,2,152,-162
30539,1433,0,2023-03-01T18:52:34.775286,1744301,1147,1746,518,-1278,-580,-437,2,152,-162
30540,1434,0,2023-03-01T18:52:34.780012,1744305,1150,1745,511,-1272,-583,-437,2,152,-162
30541,1435,0,2023-03-01T18:52:34.785952,1744311,1150,1745,511,-1272,-583,-437,2,152,-162
30542,1436,0,2023-03-01T18:52:34.791359,1744316,1150,1745,511,-1272,-583,-437,2,152,-162
30543,1437,0,2023-03-01T18:52:34.796134,1744321,1150,1745,511,-1272,-583,-437,2,152,-162
30544,1438,0,2023-03-01T18:52:34.801525,1744326,1149,1745,513,-1279,-587,-437,2,152,-162
30545,1439,0,2023-03-01T18:52:34.808090,1744333,1149,1745,513,-1279,-587,-437,2,152,-162
30546,1440,0,2023-03-01T18:52:34.813594,1744338,1149,1745,513,-1279,-587,-437,2,152,-162
30547,1441,0,2023-03-01T18:52:34.818861,1744344,1149,1745,513,-1279,-587,-437,2,152,-162
30548,1442,0,2023-03-01T18:52:34.824545,1744350,1148,1747,510,-1282,-597,-435,2,152,-162
30549,1443,0,2023-03-01T18:52:34.830670,1744356,1148,1747,510,-1282,-597,-435,2,152,-162
30550,1444,0,2023-03-01T18:52:34.835806,1744361,1148,1747,510,-1282,-597,-435,2,152,-162
30551,1445,0,2023-03-01T18:52:34.840800,1744366,1146,1740,515,-1277,-582,-431,2,152,-162
30552,1446,0,2023-03-01T18:52:34.846603,1744371,1146,1740,515,-1277,-582,-431,2,152,-162
30553,1447,0,2023-03-01T18:52:34.851765,1744376,1146,1740,515,-1277,-582,-431,2,152,-162
30554,1448,0,2023-03-01T18:52:34.856618,1744381,1146,1740,515,-1277,-582,-431,2,152,-162
30555,1449,0,2023-03-01T18:52:34.861466,1744387,1150,1746,513,-1283,-589,-440,1,157,-163
30556,1450,0,2023-03-01T18:52:34.868240,1744393,1150,1746,513,-1283,-589,-440,1,157,-163
30557,1451,0,2023-03-01T18:52:34.872987,1744398,1150,1746,513,-1283,-589,-440,1,157,-163
30558,1452,0,2023-03-01T18:52:34.877877,1744403,1150,1746,513,-1283,-589,-440,1,157,-163
30559,1453,0,2023-03-01T18:52:34.883514,1744408,1147,1739,521,-1275,-592,-433,1,157,-163
30560,1454,0,2023-03-01T18:52:34.888847,1744414,1147,1739,521,-1275,-592,-433,1,157,-163
30561,1455,0,2023-03-01T18:52:34.893751,1744418,1147,1739,521,-1275,-592,-433,1,157,-163
30562,1456,0,2023-03-01T18:52:34.899011,1744423,1147,1739,521,-1275,-592,-433,1,157,-163
30563,1457,0,2023-03-01T18:52:34.904538,1744430,1147,1742,521,-1275,-591,-435,1,157,-163
30564,1458,0,2023-03-01T18:52:34.910992,1744436,1147,1742,521,-1275,-591,-435,1,157,-163
30565,1459,0,2023-03-01T18:52:34.915922,1744441,1147,1742,521,-1275,-591,-435,1,157,-163
30566,1460,0,2023-03-01T18:52:34.920705,1744446,1146,1742,519,-1276,-603,-439,1,157,-163
30567,1461,0,2023-03-01T18:52:34.926579,1744451,1146,1742,519,-1276,-603,-439,1,157,-163
30568,1462,0,2023-03-01T18:52:34.931810,1744457,1146,1742,519,-1276,-603,-439,1,157,-163
30569,1463,0,2023-03-01T18:52:34.936616,1744461,1146,1742,519,-1276,-603,-439,1,157,-163
30570,1464,0,2023-03-01T18:52:34.941503,1744466,1149,1744,518,-1276,-596,-441,1,157,-163
30571,1465,0,2023-03-01T18:52:34.947448,1744473,1149,1744,518,-1276,-596,-441,1,157,-163
30572,1466,0,2023-03-01T18:52:34.952198,1744477,1149,1744,518,-1276,-596,-441,1,157,-163
30573,1467,0,2023-03-01T18:52:34.957129,1744482,1149,1744,518,-1276,-596,-441,1,157,-163
30574,1468,0,2023-03-01T18:52:34.961631,1744487,1144,1742,519,-1277,-595,-433,1,157,-163
30575,1469,0,2023-03-01T18:52:34.967614,1744493,1144,1742,519,-1277,-595,-433,1,157,-163
30576,1470,0,2023-03-01T18:52:34.972529,1744497,1144,1742,519,-1277,-595,-433,1,157,-163
30577,1471,0,2023-03-01T18:52:34.977366,1744502,1144,1742,519,-1277,-595,-433,1,157,-163
30578,1472,0,2023-03-01T18:52:34.982682,1744507,1143,1743,519,-1271,-600,-436,-3,159,-159
30579,1473,0,2023-03-01T18:52:34.987938,1744513,1143,1743,519,-1271,-600,-436,-3,159,-159
30580,1474,0,2023-03-01T18:52:34.992820,1744518,1143,1743,519,-1271,-600,-436,-3,159,-159
30581,1475,0,2023-03-01T18:52:34.998157,1744523,1143,1743,519,-1271,-600,-436,-3,159,-159
30582,1476,0,2023-03-01T18:52:35.003591,1744529,1147,1747,524,-1280,-599,-440,-3,159,-159
30583,1477,0,2023-03-01T18:52:35.009016,1744534,1147,1747,524,-1280,-599,-440,-3,159,-159
30584,1478,0,2023-03-01T18:52:35.014071,1744539,1147,1747,524,-1280,-599,-440,-3,159,-159
30585,1479,0,2023-03-01T18:52:35.019418,1744544,1147,1747,524,-1280,-599,-440,-3,159,-159
30586,1480,0,2023-03-01T18:52:35.025015,1744550,1144,1739,521,-1284,-597,-446,-3,159,-159
30587,1481,0,2023-03-01T18:52:35.031008,1744557,1144,1739,521,-1284,-597,-446,-3,159,-159
30588,1482,0,2023-03-01T18:52:35.035958,1744561,1144,1739,521,-1284,-597,-446,-3,159,-159
30589,1483,0,2023-03-01T18:52:35.041324,1744566,1137,1739,524,-1278,-595,-429,-3,159,-159
30590,1484,0,2023-03-01T18:52:35.047273,1744572,1137,1739,524,-1278,-595,-429,-3,159,-159
30591,1485,0,2023-03-01T18:52:35.052928,1744578,1137,1739,524,-1278,-595,-429,-3,159,-159
30592,1486,0,2023-03-01T18:52:35.058022,1744583,1137,1739,524,-1278,-595,-429,-3,159,-159
30593,1487,0,2023-03-01T18:52:35.063276,1744588,1145,1744,525,-1283,-597,-431,-3,159,-159
30594,1488,0,2023-03-01T18:52:35.069260,1744594,1145,1744,525,-1283,-597,-431,-3,159,-159
30595,1489,0,2023-03-01T18:52:35.073912,1744599,1145,1744,525,-1283,-597,-431,-3,159,-159
30596,1490,0,2023-03-01T18:52:35.079062,1744604,1145,1744,525,-1283,-597,-431,-3,159,-159
30597,1491,0,2023-03-01T18:52:35.084494,1744610,1143,1741,524,-1279,-585,-440,-3,159,-159
30598,1492,0,2023-03-01T18:52:35.090235,1744615,1143,1741,524,-1279,-585,-440,-3,159,-159
30599,1493,0,2023-03-01T18:52:35.095436,1744620,1143,1741,524,-1279,-585,-440,-3,159,-159
30600,1494,0,2023-03-01T18:52:35.100531,1744625,1141,1738,519,-1286,-587,-433,-3,159,-159
30601,1495,0,2023-03-01T18:52:35.106546,1744631,1141,1738,519,-1286,-587,-433,-3,159,-159
30602,1496,0,2023-03-01T18:52:35.111475,1744636,1141,1738,519,-1286,-587,-433,-3,159,-159
30603,1497,0,2023-03-01T18:52:35.117111,1744643,1141,1738,519,-1286,-587,-433,-3,159,-159
30604,1498,0,2023-03-01T18:52:35.121759,1744647,1138,1737,536,-1272,-580,-437,-4,156,-160
30605,1499,0,2023-03-01T18:52:35.127634,1744653,1138,1737,536,-1272,-580,-437,-4,156,-160
30606,1500,0,2023-03-01T18:52:35.132924,1744658,1138,1737,536,-1272,-580,-437,-4,156,-160
30607,1501,0,2023-03-01T18:52:35.138111,1744663,1138,1737,536,-1272,-580,-437,-4,156,-160
30608,1502,0,2023-03-01T18:52:35.143727,1744668,1141,1738,528,-1282,-595,-439,-4,156,-160
30609,1503,0,2023-03-01T18:52:35.149115,1744674,1141,1738,528,-1282,-595,-439,-4,156,-160
30610,1504,0,2023-03-01T18:52:35.154422,1744679,1141,1738,528,-1282,-595,-439,-4,156,-160
30611,1505,0,2023-03-01T18:52:35.159219,1744684,1141,1738,528,-1282,-595,-439,-4,156,-160
30612,1506,0,2023-03-01T18:52:35.164746,1744690,1143,1741,526,-1286,-596,-433,-4,156,-160
30613,1507,0,2023-03-01T18:52:35.170460,1744696,1143,1741,526,-1286,-596,-433,-4,156,-160
30614,1508,0,2023-03-01T18:52:35.175213,1744700,1143,1741,526,-1286,-596,-433,-4,156,-160
30615,1509,0,2023-03-01T18:52:35.179950,1744705,1143,1741,526,-1286,-596,-433,-4,156,-160
30616,1510,0,2023-03-01T18:52:35.185751,1744710,1140,1737,522,-1272,-588,-435,-4,156,-160
30617,1511,0,2023-03-01T18:52:35.191990,1744717,1140,1737,522,-1272,-588,-435,-4,156,-160
30618,1512,0,2023-03-01T18:52:35.196789,1744721,1140,1737,522,-1272,-588,-435,-4,156,-160
30619,1513,0,2023-03-01T18:52:35.201695,1744727,1141,1738,530,-1282,-590,-440,-4,156,-160
30620,1514,0,2023-03-01T18:52:35.207896,1744733,1141,1738,530,-1282,-590,-440,-4,156,-160
30621,1515,0,2023-03-01T18:52:35.213391,1744739,1141,1738,530,-1282,-590,-440,-4,156,-160
30622,1516,0,2023-03-01T18:52:35.218327,1744743,1141,1738,530,-1282,-590,-440,-4,156,-160
30623,1517,0,2023-03-01T18:52:35.223758,1744749,1136,1738,529,-1273,-596,-440,-4,156,-160
30624,1518,0,2023-03-01T18:52:35.229188,1744754,1136,1738,529,-1273,-596,-440,-4,156,-160
30625,1519,0,2023-03-01T18:52:35.234011,1744759,1136,1738,529,-1273,-596,-440,-4,156,-160
30626,1520,0,2023-03-01T18:52:35.239185,1744763,1136,1738,529,-1273,-596,-440,-4,156,-160
30627,1521,0,2023-03-01T18:52:35.245072,1744770,1140,1737,535,-1285,-593,-441,4,158,-156
30628,1522,0,2023-03-01T18:52:35.250713,1744776,1140,1737,535,-1285,-593,-441,4,158,-156
30629,1523,0,2023-03-01T18:52:35.255251,1744781,1140,1737,535,-1285,-593,-441,4,158,-156
30630,1524,0,2023-03-01T18:52:35.260022,1744785,1140,1737,535,-1285,-593,-441,4,158,-156
30631,1525,0,2023-03-01T18:52:35.265599,1744790,1141,1736,535,-1278,-582,-443,4,158,-156
30632,1526,0,2023-03-01T18:52:35.271519,1744796,1141,1736,535,-1278,-582,-443,4,158,-156
30633,1527,0,2023-03-01T18:52:35.276451,1744801,1141,1736,535,-1278,-582,-443,4,158,-156
30634,1528,0,2023-03-01T18:52:35.281897,1744806,1141,1736,537,-1273,-587,-438,4,158,-156
30635,1529,0,2023-03-01T18:52:35.288255,1744814,1141,1736,537,-1273,-587,-438,4,158,-156
30636,1530,0,2023-03-01T18:52:35.293575,1744818,1141,1736,537,-1273,-587,-438,4,158,-156
30637,1531,0,2023-03-01T18:52:35.299002,1744824,1141,1736,537,-1273,-587,-438,4,158,-156
30638,1532,0,2023-03-01T18:52:35.304723,1744830,1139,1739,535,-1283,-590,-441,4,158,-156
30639,1533,0,2023-03-01T18:52:35.309917,1744835,1139,1739,535,-1283,-590,-441,4,158,-156
30640,1534,0,2023-03-01T18:52:35.314674,1744839,1139,1739,535,-1283,-590,-441,4,158,-156
30641,1535,0,2023-03-01T18:52:35.319352,1744844,1139,1739,535,-1283,-590,-441,4,158,-156
30642,1536,0,2023-03-01T18:52:35.325691,1744850,1139,1738,537,-1269,-593,-436,4,158,-156
30643,1537,0,2023-03-01T18:52:35.332455,1744858,1139,1738,537,-1269,-593,-436,4,158,-156
30644,1538,0,2023-03-01T18:52:35.337703,1744863,1139,1738,537,-1269,-593,-436,4,158,-156
30645,1539,0,2023-03-01T18:52:35.343347,1744868,1135,1738,536,-1273,-590,-435,4,158,-156
30646,1540,0,2023-03-01T18:52:35.348758,1744874,1135,1738,536,-1273,-590,-435,4,158,-156
30647,1541,0,2023-03-01T18:52:35.353412,1744878,1135,1738,536,-1273,-590,-435,4,158,-156
30648,1542,0,2023-03-01T18:52:35.358440,1744883,1135,1738,536,-1273,-590,-435,4,158,-156
30649,1543,0,2023-03-01T18:52:35.364143,1744889,1137,1731,545,-1277,-579,-428,4,158,-156
30650,1544,0,2023-03-01T18:52:35.369259,1744894,1137,1731,545,-1277,-579,-428,4,158,-156
30651,1545,0,2023-03-01T18:52:35.374925,1744900,1137,1731,545,-1277,-579,-428,4,158,-156
30652,1546,0,2023-03-01T18:52:35.379630,1744905,1137,1731,545,-1277,-579,-428,4,158,-156
30653,1547,0,2023-03-01T18:52:35.385186,1744910,1138,1736,546,-1288,-593,-444,-2,150,-160
30654,1548,0,2023-03-01T18:52:35.390491,1744916,1138,1736,546,-1288,-593,-444,-2,150,-160
30655,1549,0,2023-03-01T18:52:35.395123,1744920,1138,1736,546,-1288,-593,-444,-2,150,-160
30656,1550,0,2023-03-01T18:52:35.399684,1744925,1138,1736,546,-1288,-593,-444,-2,150,-160
30657,1551,0,2023-03-01T18:52:35.405258,1744930,1136,1734,542,-1262,-603,-429,-2,150,-160
30658,1552,0,2023-03-01T18:52:35.410669,1744935,1136,1734,542,-1262,-603,-429,-2,150,-160
30659,1553,0,2023-03-01T18:52:35.415911,1744941,1136,1734,542,-1262,-603,-429,-2,150,-160
30660,1554,0,2023-03-01T18:52:35.420674,1744946,1136,1734,542,-1262,-603,-429,-2,150,-160
30661,1555,0,2023-03-01T18:52:35.426102,1744951,1136,1735,545,-1270,-591,-434,-2,150,-160
30662,1556,0,2023-03-01T18:52:35.431680,1744957,1136,1735,545,-1270,-591,-434,-2,150,-160
30663,1557,0,2023-03-01T18:52:35.436304,1744961,1136,1735,545,-1270,-591,-434,-2,150,-160
30664,1558,0,2023-03-01T18:52:35.441118,1744966,1135,1732,542,-1268,-595,-441,-2,150,-160
30665,1559,0,2023-03-01T18:52:35.447438,1744972,1135,1732,542,-1268,-595,-441,-2,150,-160
30666,1560,0,2023-03-01T18:52:35.452716,1744977,1135,1732,542,-1268,-595,-441,-2,150,-160
30667,1561,0,2023-03-01T18:52:35.457459,1744983,1135,1732,542,-1268,-595,-441,-2,150,-160
30668,1562,0,2023-03-01T18:52:35.463169,1744988,1139,1732,540,-1269,-595,-444,-2,150,-160
30669,1563,0,2023-03-01T18:52:35.468960,1744994,1139,1732,540,-1269,-595,-444,-2,150,-160
30670,1564,0,2023-03-01T18:52:35.473456,1744999,1139,1732,540,-1269,-595,-444,-2,150,-160
30671,1565,0,2023-03-01T18:52:35.478767,1745004,1139,1732,540,-1269,-595,-444,-2,150,-160
30672,1566,0,2023-03-01T18:52:35.483753,1745009,1135,1734,545,-1279,-595,-434,-2,150,-160
30673,1567,0,2023-03-01T18:52:35.489183,1745014,1135,1734,545,-1279,-595,-434,-2,150,-160
30674,1568,0,2023-03-01T18:52:35.493960,1745019,1135,1734,545,-1279,-595,-434,-2,150,-160
30675,1569,0,2023-03-01T18:52:35.498652,1745024,1135,1734,545,-1279,-595,-434,-2,150,-160
30676,1570,0,2023-03-01T18:52:35.505552,1745031,1134,1736,553,-1289,-592,-436,4,152,-154
30677,1571,0,2023-03-01T18:52:35.511246,1745037,1134,1736,553,-1289,-592,-436,4,152,-154
30678,1572,0,2023-03-01T18:52:35.516140,1745041,1134,1736,553,-1289,-592,-436,4,152,-154
30679,1573,0,2023-03-01T18:52:35.520864,1745046,1134,1736,553,-1289,-592,-436,4,152,-154
30680,1574,0,2023-03-01T18:52:35.526072,1745051,1134,1734,547,-1287,-595,-441,4,152,-154
30681,1575,0,2023-03-01T18:52:35.532273,1745056,1134,1734,547,-1287,-595,-441,4,152,-154
30682,1576,0,2023-03-01T18:52:35.537463,1745062,1134,1734,547,-1287,-595,-441,4,152,-154
30683,1577,0,2023-03-01T18:52:35.542330,1745068,1133,1734,552,-1270,-593,-442,4,152,-154
30684,1578,0,2023-03-01T18:52:35.548444,1745074,1133,1734,552,-1270,-593,-442,4,152,-154
30685,1579,0,2023-03-01T18:52:35.554045,1745079,1133,1734,552,-1270,-593,-442,4,152,-154
30686,1580,0,2023-03-01T18:52:35.559334,1745084,1133,1734,552,-1270,-593,-442,4,152,-154
30687,1581,0,2023-03-01T18:52:35.565111,1745090,1134,1738,545,-1280,-597,-447,4,152,-154
30688,1582,0,2023-03-01T18:52:35.570594,1745096,1134,1738,545,-1280,-597,-447,4,152,-154
30689,1583,0,2023-03-01T18:52:35.575534,1745100,1134,1738,545,-1280,-597,-447,4,152,-154
30690,1584,0,2023-03-01T18:52:35.580272,1745105,1134,1738,545,-1280,-597,-447,4,152,-154
30691,1585,0,2023-03-01T18:52:35.585528,1745111,1131,1732,546,-1280,-599,-450,4,152,-154
30692,1586,0,2023-03-01T18:52:35.591172,1745116,1131,1732,546,-1280,-599,-450,4,152,-154
30693,1587,0,2023-03-01T18:52:35.595993,1745121,1131,1732,546,-1280,-599,-450,4,152,-154
30694,1588,0,2023-03-01T18:52:35.600755,1745126,1131,1732,546,-1280,-599,-450,4,152,-154
30695,1589,0,2023-03-01T18:52:35.605603,1745131,1133,1734,543,-1275,-590,-444,4,152,-154
30696,1590,0,2023-03-01T18:52:35.611740,1745136,1133,1734,543,-1275,-590,-444,4,152,-154
30697,1591,0,2023-03-01T18:52:35.616870,1745142,1133,1734,543,-1275,-590,-444,4,152,-154
30698,1592,0,2023-03-01T18:52:35.621843,1745146,1130,1730,547,-1281,-600,-437,-3,155,-163
30699,1593,0,2023-03-01T18:52:35.627989,1745154,1130,1730,547,-1281,-600,-437,-3,155,-163
30700,1594,0,2023-03-01T18:52:35.633025,1745158,1130,1730,547,-1281,-600,-437,-3,155,-163
30701,1595,0,2023-03-01T18:52:35.638865,1745163,1130,1730,547,-1281,-600,-437,-3,155,-163
30702,1596,0,2023-03-01T18:52:35.644464,1745169,1129,1735,549,-1278,-599,-435,-3,155,-163
30703,1597,0,2023-03-01T18:52:35.649829,1745175,1129,1735,549,-1278,-599,-435,-3,155,-163
30704,1598,0,2023-03-01T18:52:35.655471,1745180,1129,1735,549,-1278,-599,-435,-3,155,-163
30705,1599,0,2023-03-01T18:52:35.660744,1745185,1129,1735,549,-1278,-599,-435,-3,155,-163
30706,1600,0,2023-03-01T18:52:35.665858,1745190,1129,1735,549,-1278,-599,-435,-3,155,-163
30707,1601,0,2023-03-01T18:52:35.671340,1745197,1129,1735,549,-1278,-599,-435,-3,155,-163
30708,1602,0,2023-03-01T18:52:35.676158,1745202,1129,1735,549,-1278,-599,-435,-3,155,-163
30709,1603,0,2023-03-01T18:52:35.680973,1745206,1129,1735,549,-1278,-599,-435,-3,155,-163
30710,1604,0,2023-03-01T18:52:35.686179,1745211,1133,1727,555,-1278,-588,-438,-3,155,-163
30711,1605,0,2023-03-01T18:52:35.691757,1745217,1133,1727,555,-1278,-588,-438,-3,155,-163
30712,1606,0,2023-03-01T18:52:35.696953,1745222,1133,1727,555,-1278,-588,-438,-3,155,-163
30713,1607,0,2023-03-01T18:52:35.702127,1745227,1127,1729,559,-1273,-580,-433,-3,155,-163
30714,1608,0,2023-03-01T18:52:35.708093,1745233,1127,1729,559,-1273,-580,-433,-3,155,-163
30715,1609,0,2023-03-01T18:52:35.713407,1745239,1127,1729,559,-1273,-580,-433,-3,155,-163
30716,1610,0,2023-03-01T18:52:35.718225,1745244,1127,1729,559,-1273,-580,-433,-3,155,-163
30717,1611,0,2023-03-01T18:52:35.723433,1745249,1127,1729,552,-1280,-598,-435,-3,155,-163
30718,1612,0,2023-03-01T18:52:35.729131,1745254,1127,1729,552,-1280,-598,-435,-3,155,-163
30719,1613,0,2023-03-01T18:52:35.734939,1745260,1127,1729,552,-1280,-598,-435,-3,155,-163
30720,1614,0,2023-03-01T18:52:35.739988,1745265,1127,1729,552,-1280,-598,-435,-3,155,-163
30721,1615,0,2023-03-01T18:52:35.745723,1745270,1126,1728,556,-1273,-585,-436,-3,155,-163
30722,1616,0,2023-03-01T18:52:35.751719,1745276,1126,1728,556,-1273,-585,-436,-3,155,-163
30723,1617,0,2023-03-01T18:52:35.756661,1745282,1126,1728,556,-1273,-585,-436,-3,155,-163
30724,1618,0,2023-03-01T18:52:35.761804,1745287,1131,1729,560,-1278,-587,-439,-2,158,-166
30725,1619,0,2023-03-01T18:52:35.767434,1745293,1131,1729,560,-1278,-587,-439,-2,158,-166
30726,1620,0,2023-03-01T18:52:35.772870,1745298,1131,1729,560,-1278,-587,-439,-2,158,-166
30727,1621,0,2023-03-01T18:52:35.778095,1745303,1131,1729,560,-1278,-587,-439,-2,158,-166
30728,1622,0,2023-03-01T18:52:35.783756,1745309,1129,1730,551,-1289,-592,-445,-2,158,-166
30729,1623,0,2023-03-01T18:52:35.789827,1745314,1129,1730,551,-1289,-592,-445,-2,158,-166
30730,1624,0,2023-03-01T18:52:35.795597,1745320,1129,1730,551,-1289,-592,-445,-2,158,-166
30731,1625,0,2023-03-01T18:52:35.800284,1745326,1129,1730,551,-1289,-592,-445,-2,158,-166
30732,1626,0,2023-03-01T18:52:35.806345,1745331,1128,1725,563,-1275,-588,-443,-2,158,-166
30733,1627,0,2023-03-01T18:52:35.812485,1745338,1128,1725,563,-1275,-588,-443,-2,158,-166
30734,1628,0,2023-03-01T18:52:35.817669,1745342,1128,1725,563,-1275,-588,-443,-2,158,-166
30735,1629,0,2023-03-01T18:52:35.822363,1745347,1128,1730,559,-1276,-586,-440,-2,158,-166
30736,1630,0,2023-03-01T18:52:35.828014,1745353,1128,1730,559,-1276,-586,-440,-2,158,-166
30737,1631,0,2023-03-01T18:52:35.833933,1745358,1128,1730,559,-1276,-586,-440,-2,158,-166
30738,1632,0,2023-03-01T18:52:35.839890,1745364,1128,1730,559,-1276,-586,-440,-2,158,-166
30739,1633,0,2023-03-01T18:52:35.845268,1745370,1125,1728,564,-1270,-587,-439,-2,158,-166
30740,1634,0,2023-03-01T18:52:35.850999,1745376,1125,1728,564,-1270,-587,-439,-2,158,-166
30741,1635,0,2023-03-01T18:52:35.855968,1745381,1125,1728,564,-1270,-587,-439,-2,158,-166
30742,1636,0,2023-03-01T18:52:35.861929,1745386,1125,1728,564,-1270,-587,-439,-2,158,-166
30743,1637,0,2023-03-01T18:52:35.867222,1745392,1128,1727,557,-1267,-589,-444,-2,158,-166
30744,1638,0,2023-03-01T18:52:35.873535,1745398,1128,1727,557,-1267,-589,-444,-2,158,-166
30745,1639,0,2023-03-01T18:52:35.878036,1745403,1128,1727,557,-1267,-589,-444,-2,158,-166
30746,1640,0,2023-03-01T18:52:35.883407,1745409,1130,1726,562,-1264,-584,-441,-3,159,-153
30747,1641,0,2023-03-01T18:52:35.888983,1745414,1130,1726,562,-1264,-584,-441,-3,159,-153
30748,1642,0,2023-03-01T18:52:35.894598,1745420,1130,1726,562,-1264,-584,-441,-3,159,-153
30749,1643,0,2023-03-01T18:52:35.899580,1745425,1130,1726,562,-1264,-584,-441,-3,159,-153
30750,1644,0,2023-03-01T18:52:35.905377,1745430,1127,1726,566,-1281,-595,-446,-3,159,-153
30751,1645,0,2023-03-01T18:52:35.910535,1745436,1127,1726,566,-1281,-595,-446,-3,159,-153
30752,1646,0,2023-03-01T18:52:35.915956,1745441,1127,1726,566,-1281,-595,-446,-3,159,-153
30753,1647,0,2023-03-01T18:52:35.920728,1745445,1127,1726,566,-1281,-595,-446,-3,159,-153
30754,1648,0,2023-03-01T18:52:35.926761,1745452,1126,1724,559,-1280,-593,-441,-3,159,-153
30755,1649,0,2023-03-01T18:52:35.932826,1745458,1126,1724,559,-1280,-593,-441,-3,159,-153
30756,1650,0,2023-03-01T18:52:35.937508,1745463,1126,1724,559,-1280,-593,-441,-3,159,-153
30757,1651,0,2023-03-01T18:52:35.943610,1745468,1127,1725,562,-1277,-601,-440,-3,159,-153
30758,1652,0,2023-03-01T18:52:35.949582,1745474,1127,1725,562,-1277,-601,-440,-3,159,-153
30759,1653,0,2023-03-01T18:52:35.955286,1745480,1127,1725,562,-1277,-601,-440,-3,159,-153
30760,1654,0,2023-03-01T18:52:35.959839,1745485,1127,1725,562,-1277,-601,-440,-3,159,-153
30761,1655,0,2023-03-01T18:52:35.964999,1745490,1125,1727,571,-1285,-601,-443,-3,159,-153
30762,1656,0,2023-03-01T18:52:35.970362,1745496,1125,1727,571,-1285,-601,-443,-3,159,-153
30763,1657,0,2023-03-01T18:52:35.975171,1745500,1125,1727,571,-1285,-601,-443,-3,159,-153
30764,1658,0,2023-03-01T18:52:35.979740,1745505,1125,1727,571,-1285,-601,-443,-3,159,-153
30765,1659,0,2023-03-01T18:52:35.985236,1745510,1121,1724,567,-1275,-600,-437,-3,159,-153
30766,1660,0,2023-03-01T18:52:35.990518,1745515,1121,1724,567,-1275,-600,-437,-3,159,-153
30767,1661,0,2023-03-01T18:52:35.995993,1745521,1121,1724,567,-1275,-600,-437,-3,159,-153
30768,1662,0,2023-03-01T18:52:36.000670,1745526,1121,1724,567,-1275,-600,-437,-3,159,-153
30769,1663,0,2023-03-01T18:52:36.006616,1745531,1124,1727,568,-1286,-595,-443,-3,159,-153
30770,1664,0,2023-03-01T18:52:36.012785,1745538,1124,1727,568,-1286,-595,-443,-3,159,-153
30771,1665,0,2023-03-01T18:52:36.017868,1745543,1124,1727,568,-1286,-595,-443,-3,159,-153
30772,1666,0,2023-03-01T18:52:36.023832,1745549,1123,1723,570,-1271,-596,-436,0,160,-168
30773,1667,0,2023-03-01T18:52:36.029609,1745555,1123,1723,570,-1271,-596,-436,0,160,-168
30774,1668,0,2023-03-01T18:52:36.034729,1745559,1123,1723,570,-1271,-596,-436,0,160,-168
30775,1669,0,2023-03-01T18:52:36.039622,1745564,1123,1723,570,-1271,-596,-436,0,160,-168
30776,1670,0,2023-03-01T18:52:36.045685,1745570,1125,1726,570,-1272,-592,-449,0,160,-168
30777,1671,0,2023-03-01T18:52:36.052865,1745576,1125,1726,570,-1272,-592,-449,0,160,-168
30778,1672,0,2023-03-01T18:52:36.058116,1745583,1125,1726,570,-1272,-592,-449,0,160,-168
30779,1673,0,2023-03-01T18:52:36.064122,1745589,1121,1723,576,-1268,-595,-441,0,160,-168
30780,1674,0,2023-03-01T18:52:36.069748,1745595,1121,1723,576,-1268,-595,-441,0,160,-168
30781,1675,0,2023-03-01T18:52:36.074712,1745599,1121,1723,576,-1268,-595,-441,0,160,-168
30782,1676,0,2023-03-01T18:52:36.079953,1745604,1121,1723,576,-1268,-595,-441,0,160,-168
30783,1677,0,2023-03-01T18:52:36.086189,1745611,1121,1722,574,-1268,-592,-442,0,160,-168
30784,1678,0,2023-03-01T18:52:36.092486,1745617,1121,1722,574,-1268,-592,-442,0,160,-168
30785,1679,0,2023-03-01T18:52:36.097229,1745623,1121,1722,574,-1268,-592,-442,0,160,-168
30786,1680,0,2023-03-01T18:52:36.102395,1745628,1124,1723,573,-1270,-598,-444,0,160,-168
30787,1681,0,2023-03-01T18:52:36.109137,1745634,1124,1723,573,-1270,-598,-444,0,160,-168
30788,1682,0,2023-03-01T18:52:36.114208,1745639,1124,1723,573,-1270,-598,-444,0,160,-168
30789,1683,0,2023-03-01T18:52:36.119409,1745644,1124,1723,573,-1270,-598,-444,0,160,-168
30790,1684,0,2023-03-01T18:52:36.125510,1745650,1119,1719,578,-1276,-596,-448,0,160,-168
30791,1685,0,2023-03-01T18:52:36.130912,1745656,1119,1719,578,-1276,-596,-448,0,160,-168
30792,1686,0,2023-03-01T18:52:36.137372,1745661,1119,1719,578,-1276,-596,-448,0,160,-168
30793,1687,0,2023-03-01T18:52:36.142267,1745668,1121,1726,575,-1276,-594,-445,2,158,-152
30794,1688,0,2023-03-01T18:52:36.148413,1745674,1121,1726,575,-1276,-594,-445,2,158,-152
30795,1689,0,2023-03-01T18:52:36.153422,1745679,1121,1726,575,-1276,-594,-445,2,158,-152
30796,1690,0,2023-03-01T18:52:36.158348,1745683,1121,1726,575,-1276,-594,-445,2,158,-152
30797,1691,0,2023-03-01T18:52:36.165275,1745690,1120,1722,582,-1270,-588,-443,2,158,-152
30798,1692,0,2023-03-01T18:52:36.171013,1745696,1120,1722,582,-1270,-588,-443,2,158,-152
30799,1693,0,2023-03-01T18:52:36.176181,1745701,1120,1722,582,-1270,-588,-443,2,158,-152
