,Unnamed: 0,imu,server_time,arduino_time,ax,ay,az,gx,gy,gz,mx,my,mz
30800,1694,0,2023-03-01T18:52:36.180831,1745707,1120,1722,582,-1270,-588,-443,2,158,-152
30801,1695,0,2023-03-01T18:52:36.186387,1745712,1122,1724,583,-1270,-596,-434,2,158,-152
30802,1696,0,2023-03-01T18:52:36.192773,1745718,1122,1724,583,-1270,-596,-434,2,158,-152
30803,1697,0,2023-03-01T18:52:36.198060,1745723,1122,1724,583,-1270,-596,-434,2,158,-152
30804,1698,0,2023-03-01T18:52:36.204400,1745729,1121,1723,584,-1281,-600,-441,2,158,-152
30805,1699,0,2023-03-01T18:52:36.210113,1745735,1121,1723,584,-1281,-600,-441,2,158,-152
30806,1700,0,2023-03-01T18:52:36.214992,1745740,1121,1723,584,-1281,-600,-441,2,158,-152
30807,1701,0,2023-03-01T18:52:36.220527,1745745,1121,1723,584,-1281,-600,-441,2,158,-152
30808,1702,0,2023-03-01T18:52:36.226278,1745752,1120,1726,584,-1265,-593,-438,2,158,-152
30809,1703,0,2023-03-01T18:52:36.232429,1745758,1120,1726,584,-1265,-593,-438,2,158,-152
30810,1704,0,2023-03-01T18:52:36.237554,1745763,1120,1726,584,-1265,-593,-438,2,158,-152
30811,1705,0,2023-03-01T18:52:36.242435,1745767,1119,1724,578,-1278,-596,-446,2,158,-152
30812,1706,0,2023-03-01T18:52:36.248439,1745773,1119,1724,578,-1278,-596,-446,2,158,-152
30813,1707,0,2023-03-01T18:52:36.254267,1745779,1119,1724,578,-1278,-596,-446,2,158,-152
30814,1708,0,2023-03-01T18:52:36.259412,1745784,1119,1724,578,-1278,-596,-446,2,158,-152
30815,1709,0,2023-03-01T18:52:36.264989,1745790,1119,1722,581,-1262,-585,-446,2,158,-152
30816,1710,0,2023-03-01T18:52:36.271092,1745796,1119,1722,581,-1262,-585,-446,2,158,-152
30817,1711,0,2023-03-01T18:52:36.276682,1745802,1119,1722,581,-1262,-585,-446,2,158,-152
30818,1712,0,2023-03-01T18:52:36.282040,1745807,1119,1722,581,-1262,-585,-446,2,158,-152
30819,1713,0,2023-03-01T18:52:36.287640,1745813,1118,1722,588,-1262,-593,-445,4,154,-162
30820,1714,0,2023-03-01T18:52:36.293586,1745819,1118,1722,588,-1262,-593,-445,4,154,-162
30821,1715,0,2023-03-01T18:52:36.298564,1745823,1118,1722,588,-1262,-593,-445,4,154,-162
30822,1716,0,2023-03-01T18:52:36.304614,1745829,1117,1723,584,-1261,-600,-435,4,154,-162
30823,1717,0,2023-03-01T18:52:36.310669,1745836,1117,1723,584,-1261,-600,-435,4,154,-162
30824,1718,0,2023-03-01T18:52:36.315640,1745841,1117,1723,584,-1261,-600,-435,4,154,-162
30825,1719,0,2023-03-01T18:52:36.320424,1745846,1117,1723,584,-1261,-600,-435,4,154,-162
30826,1720,0,2023-03-01T18:52:36.326058,1745851,1115,1715,584,-1258,-597,-425,4,154,-162
30827,1721,0,2023-03-01T18:52:36.332882,1745858,1115,1715,584,-1258,-597,-425,4,154,-162
30828,1722,0,2023-03-01T18:52:36.339030,1745863,1115,1715,584,-1258,-597,-425,4,154,-162
30829,1723,0,2023-03-01T18:52:36.344786,1745869,1119,1719,583,-1268,-603,-442,4,154,-162
30830,1724,0,2023-03-01T18:52:36.350515,1745875,1119,1719,583,-1268,-603,-442,4,154,-162
30831,1725,0,2023-03-01T18:52:36.355522,1745881,1119,1719,583,-1268,-603,-442,4,154,-162
30832,1726,0,2023-03-01T18:52:36.360963,1745886,1119,1719,583,-1268,-603,-442,4,154,-162
30833,1727,0,2023-03-01T18:52:36.366064,1745891,1120,1720,584,-1277,-593,-436,4,154,-162
30834,1728,0,2023-03-01T18:52:36.372343,1745898,1120,1720,584,-1277,-593,-436,4,154,-162
30835,1729,0,2023-03-01T18:52:36.377270,1745902,1120,1720,584,-1277,-593,-436,4,154,-162
30836,1730,0,2023-03-01T18:52:36.382136,1745907,1120,1720,584,-1277,-593,-436,4,154,-162
30837,1731,0,2023-03-01T18:52:36.388143,1745913,1115,1721,586,-1278,-591,-436,4,154,-162
30838,1732,0,2023-03-01T18:52:36.394658,1745920,1115,1721,586,-1278,-591,-436,4,154,-162
30839,1733,0,2023-03-01T18:52:36.399510,1745925,1115,1721,586,-1278,-591,-436,4,154,-162
30840,1734,0,2023-03-01T18:52:36.406011,1745931,1114,1718,591,-1274,-598,-443,7,161,-153
30841,1735,0,2023-03-01T18:52:36.412118,1745937,1114,1718,591,-1274,-598,-443,7,161,-153
30842,1736,0,2023-03-01T18:52:36.417001,1745942,1114,1718,591,-1274,-598,-443,7,161,-153
30843,1737,0,2023-03-01T18:52:36.421759,1745947,1114,1718,591,-1274,-598,-443,7,161,-153
30844,1738,0,2023-03-01T18:52:36.426956,1745952,1118,1719,585,-1275,-603,-438,7,161,-153
30845,1739,0,2023-03-01T18:52:36.432529,1745957,1118,1719,585,-1275,-603,-438,7,161,-153
30846,1740,0,2023-03-01T18:52:36.437744,1745963,1118,1719,585,-1275,-603,-438,7,161,-153
30847,1741,0,2023-03-01T18:52:36.443376,1745969,1115,1721,582,-1267,-593,-436,7,161,-153
30848,1742,0,2023-03-01T18:52:36.449054,1745974,1115,1721,582,-1267,-593,-436,7,161,-153
30849,1743,0,2023-03-01T18:52:36.454489,1745980,1115,1721,582,-1267,-593,-436,7,161,-153
30850,1744,0,2023-03-01T18:52:36.459328,1745984,1115,1721,582,-1267,-593,-436,7,161,-153
30851,1745,0,2023-03-01T18:52:36.464668,1745990,1111,1717,587,-1268,-596,-435,7,161,-153
30852,1746,0,2023-03-01T18:52:36.469926,1745995,1111,1717,587,-1268,-596,-435,7,161,-153
30853,1747,0,2023-03-01T18:52:36.475476,1746000,1111,1717,587,-1268,-596,-435,7,161,-153
30854,1748,0,2023-03-01T18:52:36.480199,1746006,1111,1717,587,-1268,-596,-435,7,161,-153
30855,1749,0,2023-03-01T18:52:36.485482,1746011,1116,1719,587,-1278,-608,-450,7,161,-153
30856,1750,0,2023-03-01T18:52:36.490898,1746016,1116,1719,587,-1278,-608,-450,7,161,-153
30857,1751,0,2023-03-01T18:52:36.496433,1746022,1116,1719,587,-1278,-608,-450,7,161,-153
30858,1752,0,2023-03-01T18:52:36.501437,1746026,1116,1719,587,-1278,-608,-450,7,161,-153
30859,1753,0,2023-03-01T18:52:36.507195,1746032,1115,1714,591,-1259,-596,-438,7,161,-153
30860,1754,0,2023-03-01T18:52:36.513615,1746038,1115,1714,591,-1259,-596,-438,7,161,-153
30861,1755,0,2023-03-01T18:52:36.518772,1746043,1115,1714,591,-1259,-596,-438,7,161,-153
30862,1756,0,2023-03-01T18:52:36.524280,1746050,1111,1720,592,-1263,-600,-451,7,161,-161
30863,1757,0,2023-03-01T18:52:36.529485,1746055,1111,1720,592,-1263,-600,-451,7,161,-161
30864,1758,0,2023-03-01T18:52:36.535180,1746060,1111,1720,592,-1263,-600,-451,7,161,-161
30865,1759,0,2023-03-01T18:52:36.540235,1746065,1111,1720,592,-1263,-600,-451,7,161,-161
30866,1760,0,2023-03-01T18:52:36.545774,1746071,1111,1716,594,-1266,-598,-441,7,161,-161
30867,1761,0,2023-03-01T18:52:36.550882,1746076,1111,1716,594,-1266,-598,-441,7,161,-161
30868,1762,0,2023-03-01T18:52:36.555603,1746080,1111,1716,594,-1266,-598,-441,7,161,-161
30869,1763,0,2023-03-01T18:52:36.560282,1746085,1111,1716,594,-1266,-598,-441,7,161,-161
30870,1764,0,2023-03-01T18:52:36.566097,1746091,1114,1717,596,-1275,-606,-450,7,161,-161
30871,1765,0,2023-03-01T18:52:36.572901,1746098,1114,1717,596,-1275,-606,-450,7,161,-161
30872,1766,0,2023-03-01T18:52:36.577848,1746103,1114,1717,596,-1275,-606,-450,7,161,-161
30873,1767,0,2023-03-01T18:52:36.582744,1746108,1108,1718,596,-1269,-604,-451,7,161,-161
30874,1768,0,2023-03-01T18:52:36.589041,1746114,1108,1718,596,-1269,-604,-451,7,161,-161
30875,1769,0,2023-03-01T18:52:36.593599,1746119,1108,1718,596,-1269,-604,-451,7,161,-161
30876,1770,0,2023-03-01T18:52:36.598315,1746123,1108,1718,596,-1269,-604,-451,7,161,-161
30877,1771,0,2023-03-01T18:52:36.603938,1746128,1110,1718,597,-1266,-610,-445,7,161,-161
30878,1772,0,2023-03-01T18:52:36.609556,1746135,1110,1718,597,-1266,-610,-445,7,161,-161
30879,1773,0,2023-03-01T18:52:36.615318,1746141,1110,1718,597,-1266,-610,-445,7,161,-161
30880,1774,0,2023-03-01T18:52:36.620427,1746146,1110,1718,597,-1266,-610,-445,7,161,-161
30881,1775,0,2023-03-01T18:52:36.625832,1746151,1109,1716,591,-1256,-602,-443,7,161,-161
30882,1776,0,2023-03-01T18:52:36.631248,1746156,1109,1716,591,-1256,-602,-443,7,161,-161
30883,1777,0,2023-03-01T18:52:36.636209,1746161,1109,1716,591,-1256,-602,-443,7,161,-161
30884,1778,0,2023-03-01T18:52:36.641043,1746166,1109,1716,591,-1256,-602,-443,7,161,-161
30885,1779,0,2023-03-01T18:52:36.647177,1746172,1111,1713,602,-1257,-600,-445,7,161,-161
30886,1780,0,2023-03-01T18:52:36.652988,1746179,1111,1713,602,-1257,-600,-445,7,161,-161
30887,1781,0,2023-03-01T18:52:36.657819,1746183,1111,1713,602,-1257,-600,-445,7,161,-161
30888,1782,0,2023-03-01T18:52:36.662470,1746188,1111,1718,599,-1270,-605,-435,0,160,-158
30889,1783,0,2023-03-01T18:52:36.668627,1746194,1111,1718,599,-1270,-605,-435,0,160,-158
30890,1784,0,2023-03-01T18:52:36.673443,1746198,1111,1718,599,-1270,-605,-435,0,160,-158
30891,1785,0,2023-03-01T18:52:36.677919,1746203,1111,1718,599,-1270,-605,-435,0,160,-158
30892,1786,0,2023-03-01T18:52:36.683102,1746208,1108,1711,602,-1262,-616,-432,0,160,-158
30893,1787,0,2023-03-01T18:52:36.688740,1746213,1108,1711,602,-1262,-616,-432,0,160,-158
30894,1788,0,2023-03-01T18:52:36.693489,1746219,1108,1711,602,-1262,-616,-432,0,160,-158
30895,1789,0,2023-03-01T18:52:36.698104,1746224,1108,1711,602,-1262,-616,-432,0,160,-158
30896,1790,0,2023-03-01T18:52:36.703344,1746229,1115,1717,600,-1259,-599,-442,0,160,-158
30897,1791,0,2023-03-01T18:52:36.708633,1746234,1115,1717,600,-1259,-599,-442,0,160,-158
30898,1792,0,2023-03-01T18:52:36.714313,1746239,1115,1717,600,-1259,-599,-442,0,160,-158
30899,1793,0,2023-03-01T18:52:36.719636,1746244,1115,1717,600,-1259,-599,-442,0,160,-158
30900,1794,0,2023-03-01T18:52:36.725126,1746250,1110,1709,598,-1251,-599,-439,0,160,-158
30901,1795,0,2023-03-01T18:52:36.730496,1746255,1110,1709,598,-1251,-599,-439,0,160,-158
30902,1796,0,2023-03-01T18:52:36.735761,1746260,1110,1709,598,-1251,-599,-439,0,160,-158
30903,1797,0,2023-03-01T18:52:36.740451,1746266,1110,1709,598,-1251,-599,-439,0,160,-158
30904,1798,0,2023-03-01T18:52:36.746115,1746271,1160,1687,597,-1260,-603,-446,0,160,-158
30905,1799,0,2023-03-01T18:52:36.751678,1746277,1160,1687,597,-1260,-603,-446,0,160,-158
30906,1800,0,2023-03-01T18:52:36.757152,1746282,1160,1687,597,-1260,-603,-446,0,160,-158
30907,1801,0,2023-03-01T18:52:36.762089,1746287,1160,1687,597,-1260,-603,-446,0,160,-158
30908,1802,0,2023-03-01T18:52:36.767745,1746292,1060,1695,629,-1242,-564,-460,0,160,-158
30909,1803,0,2023-03-01T18:52:36.773710,1746299,1060,1695,629,-1242,-564,-460,0,160,-158
30910,1804,0,2023-03-01T18:52:36.778378,1746304,1060,1695,629,-1242,-564,-460,0,160,-158
30911,1805,0,2023-03-01T18:52:36.784450,1746310,1114,1747,590,-1300,-632,-523,5,159,-159
30912,1806,0,2023-03-01T18:52:36.789917,1746315,1114,1747,590,-1300,-632,-523,5,159,-159
30913,1807,0,2023-03-01T18:52:36.794893,1746320,1114,1747,590,-1300,-632,-523,5,159,-159
30914,1808,0,2023-03-01T18:52:36.799679,1746325,1114,1747,590,-1300,-632,-523,5,159,-159
30915,1809,0,2023-03-01T18:52:36.805191,1746330,1094,1698,610,-1294,-629,-398,5,159,-159
30916,1810,0,2023-03-01T18:52:36.810784,1746336,1094,1698,610,-1294,-629,-398,5,159,-159
30917,1811,0,2023-03-01T18:52:36.815844,1746340,1094,1698,610,-1294,-629,-398,5,159,-159
30918,1812,0,2023-03-01T18:52:36.820752,1746345,1094,1698,610,-1294,-629,-398,5,159,-159
30919,1813,0,2023-03-01T18:52:36.826333,1746352,1112,1717,596,-1274,-602,-448,5,159,-159
30920,1814,0,2023-03-01T18:52:36.832902,1746358,1112,1717,596,-1274,-602,-448,5,159,-159
30921,1815,0,2023-03-01T18:52:36.838018,1746363,1112,1717,596,-1274,-602,-448,5,159,-159
30922,1816,0,2023-03-01T18:52:36.843760,1746369,1119,1707,604,-1283,-611,-416,5,159,-159
30923,1817,0,2023-03-01T18:52:36.849037,1746374,1119,1707,604,-1283,-611,-416,5,159,-159
30924,1818,0,2023-03-01T18:52:36.853908,1746379,1119,1707,604,-1283,-611,-416,5,159,-159
30925,1819,0,2023-03-01T18:52:36.858677,1746383,1119,1707,604,-1283,-611,-416,5,159,-159
30926,1820,0,2023-03-01T18:52:36.864853,1746390,1115,1707,600,-1248,-592,-437,5,159,-159
30927,1821,0,2023-03-01T18:52:36.869676,1746395,1115,1707,600,-1248,-592,-437,5,159,-159
30928,1822,0,2023-03-01T18:52:36.874703,1746400,1115,1707,600,-1248,-592,-437,5,159,-159
30929,1823,0,2023-03-01T18:52:36.879643,1746405,1115,1707,600,-1248,-592,-437,5,159,-159
30930,1824,0,2023-03-01T18:52:36.885459,1746411,1106,1714,615,-1243,-575,-481,5,159,-159
30931,1825,0,2023-03-01T18:52:36.890963,1746416,1106,1714,615,-1243,-575,-481,5,159,-159
30932,1826,0,2023-03-01T18:52:36.896259,1746421,1106,1714,615,-1243,-575,-481,5,159,-159
30933,1827,0,2023-03-01T18:52:36.901373,1746426,1106,1714,615,-1243,-575,-481,5,159,-159
30934,1828,0,2023-03-01T18:52:36.907158,1746433,1095,1714,611,-1278,-609,-466,5,159,-159
30935,1829,0,2023-03-01T18:52:36.913799,1746439,1095,1714,611,-1278,-609,-466,5,159,-159
30936,1830,0,2023-03-01T18:52:36.918558,1746444,1095,1714,611,-1278,-609,-466,5,159,-159
30937,1831,0,2023-03-01T18:52:36.923544,1746449,1096,1720,614,-1262,-599,-457,8,158,-156
30938,1832,0,2023-03-01T18:52:36.929234,1746454,1096,1720,614,-1262,-599,-457,8,158,-156
30939,1833,0,2023-03-01T18:52:36.934792,1746460,1096,1720,614,-1262,-599,-457,8,158,-156
30940,1834,0,2023-03-01T18:52:36.941870,1746466,1096,1720,614,-1262,-599,-457,8,158,-156
30941,1835,0,2023-03-01T18:52:36.947906,1746472,1105,1709,613,-1254,-597,-411,8,158,-156
30942,1836,0,2023-03-01T18:52:36.953162,1746479,1105,1709,613,-1254,-597,-411,8,158,-156
30943,1837,0,2023-03-01T18:52:36.957816,1746483,1105,1709,613,-1254,-597,-411,8,158,-156
30944,1838,0,2023-03-01T18:52:36.962613,1746488,1105,1709,613,-1254,-597,-411,8,158,-156
30945,1839,0,2023-03-01T18:52:36.969069,1746493,1110,1710,616,-1270,-595,-408,8,158,-156
30946,1840,0,2023-03-01T18:52:36.975346,1746500,1110,1710,616,-1270,-595,-408,8,158,-156
30947,1841,0,2023-03-01T18:52:36.980176,1746505,1110,1710,616,-1270,-595,-408,8,158,-156
30948,1842,0,2023-03-01T18:52:36.985728,1746510,1112,1702,616,-1253,-582,-417,8,158,-156
30949,1843,0,2023-03-01T18:52:36.991665,1746516,1112,1702,616,-1253,-582,-417,8,158,-156
30950,1844,0,2023-03-01T18:52:36.996557,1746522,1112,1702,616,-1253,-582,-417,8,158,-156
30951,1845,0,2023-03-01T18:52:37.002005,1746527,1112,1702,616,-1253,-582,-417,8,158,-156
30952,1846,0,2023-03-01T18:52:37.007447,1746533,1109,1703,609,-1281,-595,-457,8,158,-156
30953,1847,0,2023-03-01T18:52:37.014052,1746539,1109,1703,609,-1281,-595,-457,8,158,-156
30954,1848,0,2023-03-01T18:52:37.019182,1746544,1109,1703,609,-1281,-595,-457,8,158,-156
30955,1849,0,2023-03-01T18:52:37.024499,1746549,1101,1710,614,-1261,-571,-465,8,158,-156
30956,1850,0,2023-03-01T18:52:37.029893,1746555,1101,1710,614,-1261,-571,-465,8,158,-156
30957,1851,0,2023-03-01T18:52:37.034498,1746560,1101,1710,614,-1261,-571,-465,8,158,-156
30958,1852,0,2023-03-01T18:52:37.039491,1746565,1101,1710,614,-1261,-571,-465,8,158,-156
30959,1853,0,2023-03-01T18:52:37.044794,1746570,1094,1711,618,-1256,-566,-452,2,164,-154
30960,1854,0,2023-03-01T18:52:37.051594,1746577,1094,1711,618,-1256,-566,-452,2,164,-154
30961,1855,0,2023-03-01T18:52:37.057894,1746582,1094,1711,618,-1256,-566,-452,2,164,-154
30962,1856,0,2023-03-01T18:52:37.062985,1746588,1096,1716,619,-1266,-571,-438,2,164,-154
30963,1857,0,2023-03-01T18:52:37.068858,1746594,1096,1716,619,-1266,-571,-438,2,164,-154
30964,1858,0,2023-03-01T18:52:37.073853,1746598,1096,1716,619,-1266,-571,-438,2,164,-154
30965,1859,0,2023-03-01T18:52:37.078602,1746604,1096,1716,619,-1266,-571,-438,2,164,-154
30966,1860,0,2023-03-01T18:52:37.083633,1746609,1095,1709,625,-1280,-587,-427,2,164,-154
30967,1861,0,2023-03-01T18:52:37.088931,1746614,1095,1709,625,-1280,-587,-427,2,164,-154
30968,1862,0,2023-03-01T18:52:37.094470,1746619,1095,1709,625,-1280,-587,-427,2,164,-154
30969,1863,0,2023-03-01T18:52:37.099334,1746624,1095,1709,625,-1280,-587,-427,2,164,-154
30970,1864,0,2023-03-01T18:52:37.104979,1746630,1106,1705,620,-1295,-594,-419,2,164,-154
30971,1865,0,2023-03-01T18:52:37.110398,1746635,1106,1705,620,-1295,-594,-419,2,164,-154
30972,1866,0,2023-03-01T18:52:37.115831,1746641,1106,1705,620,-1295,-594,-419,2,164,-154
30973,1867,0,2023-03-01T18:52:37.120483,1746646,1106,1705,620,-1295,-594,-419,2,164,-154
30974,1868,0,2023-03-01T18:52:37.126167,1746651,1106,1703,614,-1261,-595,-421,2,164,-154
30975,1869,0,2023-03-01T18:52:37.131277,1746656,1106,1703,614,-1261,-595,-421,2,164,-154
30976,1870,0,2023-03-01T18:52:37.137958,1746662,1106,1703,614,-1261,-595,-421,2,164,-154
30977,1871,0,2023-03-01T18:52:37.143308,1746668,1104,1706,619,-1262,-581,-449,2,164,-154
30978,1872,0,2023-03-01T18:52:37.149675,1746675,1104,1706,619,-1262,-581,-449,2,164,-154
30979,1873,0,2023-03-01T18:52:37.154872,1746679,1104,1706,619,-1262,-581,-449,2,164,-154
30980,1874,0,2023-03-01T18:52:37.163151,1746688,1104,1706,619,-1262,-581,-449,2,164,-154
30981,1875,0,2023-03-01T18:52:37.168938,1746694,1098,1707,619,-1259,-590,-460,2,164,-154
30982,1876,0,2023-03-01T18:52:37.175350,1746701,1098,1707,619,-1259,-590,-460,2,164,-154
30983,1877,0,2023-03-01T18:52:37.180998,1746705,1098,1707,619,-1259,-590,-460,2,164,-154
30984,1878,0,2023-03-01T18:52:37.186427,1746711,1091,1707,624,-1261,-588,-450,2,160,-160
30985,1879,0,2023-03-01T18:52:37.193121,1746718,1091,1707,624,-1261,-588,-450,2,160,-160
30986,1880,0,2023-03-01T18:52:37.198416,1746723,1091,1707,624,-1261,-588,-450,2,160,-160
30987,1881,0,2023-03-01T18:52:37.204080,1746729,1095,1707,624,-1267,-590,-429,2,160,-160
30988,1882,0,2023-03-01T18:52:37.209380,1746735,1095,1707,624,-1267,-590,-429,2,160,-160
30989,1883,0,2023-03-01T18:52:37.214744,1746740,1095,1707,624,-1267,-590,-429,2,160,-160
30990,1884,0,2023-03-01T18:52:37.220563,1746745,1095,1707,624,-1267,-590,-429,2,160,-160
30991,1885,0,2023-03-01T18:52:37.226470,1746752,1099,1708,620,-1270,-583,-418,2,160,-160
30992,1886,0,2023-03-01T18:52:37.232344,1746757,1099,1708,620,-1270,-583,-418,2,160,-160
30993,1887,0,2023-03-01T18:52:37.237331,1746762,1099,1708,620,-1270,-583,-418,2,160,-160
30994,1888,0,2023-03-01T18:52:37.242492,1746767,1099,1708,620,-1270,-583,-418,2,160,-160
30995,1889,0,2023-03-01T18:52:37.248356,1746774,1100,1702,620,-1269,-604,-417,2,160,-160
30996,1890,0,2023-03-01T18:52:37.253954,1746780,1100,1702,620,-1269,-604,-417,2,160,-160
30997,1891,0,2023-03-01T18:52:37.258764,1746784,1100,1702,620,-1269,-604,-417,2,160,-160
30998,1892,0,2023-03-01T18:52:37.264717,1746789,1100,1697,629,-1262,-586,-439,2,160,-160
30999,1893,0,2023-03-01T18:52:37.271046,1746796,1100,1697,629,-1262,-586,-439,2,160,-160
31000,1894,0,2023-03-01T18:52:37.276809,1746801,1100,1697,629,-1262,-586,-439,2,160,-160
31001,1895,0,2023-03-01T18:52:37.281552,1746806,1100,1697,629,-1262,-586,-439,2,160,-160
31002,1896,0,2023-03-01T18:52:37.287054,1746812,1099,1702,625,-1265,-584,-456,2,160,-160
31003,1897,0,2023-03-01T18:52:37.292590,1746818,1099,1702,625,-1265,-584,-456,2,160,-160
31004,1898,0,2023-03-01T18:52:37.297751,1746823,1099,1702,625,-1265,-584,-456,2,160,-160
31005,1899,0,2023-03-01T18:52:37.302905,1746828,1099,1702,625,-1265,-584,-456,2,160,-160
31006,1900,0,2023-03-01T18:52:37.308661,1746834,1094,1708,633,-1260,-580,-459,10,152,-154
31007,1901,0,2023-03-01T18:52:37.314066,1746839,1094,1708,633,-1260,-580,-459,10,152,-154
31008,1902,0,2023-03-01T18:52:37.318939,1746844,1094,1708,633,-1260,-580,-459,10,152,-154
31009,1903,0,2023-03-01T18:52:37.324544,1746849,1088,1710,631,-1261,-580,-453,10,152,-154
31010,1904,0,2023-03-01T18:52:37.330365,1746855,1088,1710,631,-1261,-580,-453,10,152,-154
31011,1905,0,2023-03-01T18:52:37.336530,1746862,1088,1710,631,-1261,-580,-453,10,152,-154
31012,1906,0,2023-03-01T18:52:37.341590,1746867,1088,1710,631,-1261,-580,-453,10,152,-154
31013,1907,0,2023-03-01T18:52:37.347587,1746873,1093,1705,633,-1275,-587,-431,10,152,-154
31014,1908,0,2023-03-01T18:52:37.353487,1746879,1093,1705,633,-1275,-587,-431,10,152,-154
31015,1909,0,2023-03-01T18:52:37.358933,1746883,1093,1705,633,-1275,-587,-431,10,152,-154
31016,1910,0,2023-03-01T18:52:37.364597,1746889,1097,1706,629,-1252,-582,-426,10,152,-154
31017,1911,0,2023-03-01T18:52:37.370364,1746895,1097,1706,629,-1252,-582,-426,10,152,-154
31018,1912,0,2023-03-01T18:52:37.376413,1746902,1097,1706,629,-1252,-582,-426,10,152,-154
31019,1913,0,2023-03-01T18:52:37.381448,1746907,1097,1706,629,-1252,-582,-426,10,152,-154
31020,1914,0,2023-03-01T18:52:37.387376,1746912,1102,1699,628,-1254,-590,-424,10,152,-154
31021,1915,0,2023-03-01T18:52:37.393137,1746918,1102,1699,628,-1254,-590,-424,10,152,-154
31022,1916,0,2023-03-01T18:52:37.399499,1746924,1102,1699,628,-1254,-590,-424,10,152,-154
31023,1917,0,2023-03-01T18:52:37.405321,1746930,1099,1697,631,-1248,-576,-431,10,152,-154
31024,1918,0,2023-03-01T18:52:37.410232,1746935,1099,1697,631,-1248,-576,-431,10,152,-154
31025,1919,0,2023-03-01T18:52:37.415240,1746940,1099,1697,631,-1248,-576,-431,10,152,-154
31026,1920,0,2023-03-01T18:52:37.420483,1746946,1099,1697,631,-1248,-576,-431,10,152,-154
31027,1921,0,2023-03-01T18:52:37.426575,1746952,1097,1698,628,-1247,-587,-442,5,161,-157
31028,1922,0,2023-03-01T18:52:37.432100,1746957,1097,1698,628,-1247,-587,-442,5,161,-157
31029,1923,0,2023-03-01T18:52:37.437139,1746962,1097,1698,628,-1247,-587,-442,5,161,-157
31030,1924,0,2023-03-01T18:52:37.442196,1746967,1097,1698,628,-1247,-587,-442,5,161,-157
31031,1925,0,2023-03-01T18:52:37.448411,1746972,1096,1705,633,-1256,-590,-448,5,161,-157
31032,1926,0,2023-03-01T18:52:37.454414,1746979,1096,1705,633,-1256,-590,-448,5,161,-157
31033,1927,0,2023-03-01T18:52:37.459550,1746984,1096,1705,633,-1256,-590,-448,5,161,-157
31034,1928,0,2023-03-01T18:52:37.465138,1746990,1087,1703,636,-1261,-588,-444,5,161,-157
31035,1929,0,2023-03-01T18:52:37.471175,1746996,1087,1703,636,-1261,-588,-444,5,161,-157
31036,1930,0,2023-03-01T18:52:37.476240,1747001,1087,1703,636,-1261,-588,-444,5,161,-157
31037,1931,0,2023-03-01T18:52:37.481391,1747007,1087,1703,636,-1261,-588,-444,5,161,-157
31038,1932,0,2023-03-01T18:52:37.486868,1747012,1093,1705,635,-1268,-588,-439,5,161,-157
31039,1933,0,2023-03-01T18:52:37.493348,1747018,1093,1705,635,-1268,-588,-439,5,161,-157
31040,1934,0,2023-03-01T18:52:37.498666,1747023,1093,1705,635,-1268,-588,-439,5,161,-157
31041,1935,0,2023-03-01T18:52:37.504388,1747030,1093,1698,637,-1266,-586,-430,5,161,-157
31042,1936,0,2023-03-01T18:52:37.509801,1747035,1093,1698,637,-1266,-586,-430,5,161,-157
31043,1937,0,2023-03-01T18:52:37.514520,1747040,1093,1698,637,-1266,-586,-430,5,161,-157
31044,1938,0,2023-03-01T18:52:37.519984,1747045,1093,1698,637,-1266,-586,-430,5,161,-157
31045,1939,0,2023-03-01T18:52:37.525057,1747050,1091,1699,638,-1257,-589,-431,5,161,-157
31046,1940,0,2023-03-01T18:52:37.530461,1747056,1091,1699,638,-1257,-589,-431,5,161,-157
31047,1941,0,2023-03-01T18:52:37.535627,1747060,1091,1699,638,-1257,-589,-431,5,161,-157
31048,1942,0,2023-03-01T18:52:37.540026,1747065,1091,1699,638,-1257,-589,-431,5,161,-157
31049,1943,0,2023-03-01T18:52:37.545160,1747070,1094,1699,636,-1261,-591,-439,5,161,-157
31050,1944,0,2023-03-01T18:52:37.550035,1747076,1094,1699,636,-1261,-591,-439,5,161,-157
31051,1945,0,2023-03-01T18:52:37.554990,1747080,1094,1699,636,-1261,-591,-439,5,161,-157
31052,1946,0,2023-03-01T18:52:37.560744,1747085,1094,1699,636,-1261,-591,-439,5,161,-157
31053,1947,0,2023-03-01T18:52:37.566341,1747091,1089,1701,641,-1255,-595,-450,6,152,-152
31054,1948,0,2023-03-01T18:52:37.571806,1747097,1089,1701,641,-1255,-595,-450,6,152,-152
31055,1949,0,2023-03-01T18:52:37.577121,1747102,1089,1701,641,-1255,-595,-450,6,152,-152
31056,1950,0,2023-03-01T18:52:37.582014,1747107,1089,1701,641,-1255,-595,-450,6,152,-152
31057,1951,0,2023-03-01T18:52:37.587220,1747112,1086,1702,638,-1256,-599,-455,6,152,-152
31058,1952,0,2023-03-01T18:52:37.592893,1747119,1086,1702,638,-1256,-599,-455,6,152,-152
31059,1953,0,2023-03-01T18:52:37.598056,1747123,1086,1702,638,-1256,-599,-455,6,152,-152
31060,1954,0,2023-03-01T18:52:37.602839,1747128,1086,1702,638,-1256,-599,-455,6,152,-152
31061,1955,0,2023-03-01T18:52:37.608238,1747133,1088,1700,634,-1260,-601,-451,6,152,-152
31062,1956,0,2023-03-01T18:52:37.614465,1747139,1088,1700,634,-1260,-601,-451,6,152,-152
31063,1957,0,2023-03-01T18:52:37.619307,1747144,1088,1700,634,-1260,-601,-451,6,152,-152
31064,1958,0,2023-03-01T18:52:37.625095,1747150,1089,1699,633,-1270,-599,-451,6,152,-152
31065,1959,0,2023-03-01T18:52:37.630854,1747155,1089,1699,633,-1270,-599,-451,6,152,-152
31066,1960,0,2023-03-01T18:52:37.636327,1747162,1089,1699,633,-1270,-599,-451,6,152,-152
31067,1961,0,2023-03-01T18:52:37.641028,1747166,1089,1699,633,-1270,-599,-451,6,152,-152
31068,1962,0,2023-03-01T18:52:37.646596,1747172,1091,1696,644,-1267,-596,-436,6,152,-152
31069,1963,0,2023-03-01T18:52:37.652218,1747177,1091,1696,644,-1267,-596,-436,6,152,-152
31070,1964,0,2023-03-01T18:52:37.657509,1747183,1091,1696,644,-1267,-596,-436,6,152,-152
31071,1965,0,2023-03-01T18:52:37.662510,1747187,1091,1696,644,-1267,-596,-436,6,152,-152
31072,1966,0,2023-03-01T18:52:37.667879,1747193,1091,1693,642,-1255,-593,-440,6,152,-152
31073,1967,0,2023-03-01T18:52:37.673283,1747198,1091,1693,642,-1255,-593,-440,6,152,-152
31074,1968,0,2023-03-01T18:52:37.678286,1747204,1091,1693,642,-1255,-593,-440,6,152,-152
31075,1969,0,2023-03-01T18:52:37.683842,1747209,1090,1696,646,-1258,-593,-445,8,166,-154
31076,1970,0,2023-03-01T18:52:37.689292,1747214,1090,1696,646,-1258,-593,-445,8,166,-154
31077,1971,0,2023-03-01T18:52:37.694232,1747219,1090,1696,646,-1258,-593,-445,8,166,-154
31078,1972,0,2023-03-01T18:52:37.698751,1747224,1090,1696,646,-1258,-593,-445,8,166,-154
31079,1973,0,2023-03-01T18:52:37.704573,1747229,1086,1698,645,-1249,-579,-450,8,166,-154
31080,1974,0,2023-03-01T18:52:37.710676,1747236,1086,1698,645,-1249,-579,-450,8,166,-154
31081,1975,0,2023-03-01T18:52:37.715551,1747240,1086,1698,645,-1249,-579,-450,8,166,-154
31082,1976,0,2023-03-01T18:52:37.720446,1747246,1086,1698,645,-1249,-579,-450,8,166,-154
31083,1977,0,2023-03-01T18:52:37.725470,1747251,1087,1700,643,-1255,-589,-452,8,166,-154
31084,1978,0,2023-03-01T18:52:37.731291,1747256,1087,1700,643,-1255,-589,-452,8,166,-154
31085,1979,0,2023-03-01T18:52:37.736134,1747261,1087,1700,643,-1255,-589,-452,8,166,-154
31086,1980,0,2023-03-01T18:52:37.741328,1747266,1087,1700,643,-1255,-589,-452,8,166,-154
31087,1981,0,2023-03-01T18:52:37.746720,1747272,1086,1696,643,-1259,-597,-450,8,166,-154
31088,1982,0,2023-03-01T18:52:37.752248,1747277,1086,1696,643,-1259,-597,-450,8,166,-154
31089,1983,0,2023-03-01T18:52:37.758246,1747283,1086,1696,643,-1259,-597,-450,8,166,-154
31090,1984,0,2023-03-01T18:52:37.763070,1747289,1086,1696,643,-1259,-597,-450,8,166,-154
31091,1985,0,2023-03-01T18:52:37.768637,1747294,1088,1697,646,-1261,-599,-436,8,166,-154
31092,1986,0,2023-03-01T18:52:37.774258,1747299,1088,1697,646,-1261,-599,-436,8,166,-154
31093,1987,0,2023-03-01T18:52:37.779247,1747304,1088,1697,646,-1261,-599,-436,8,166,-154
31094,1988,0,2023-03-01T18:52:37.784911,1747310,1090,1696,648,-1264,-596,-434,8,166,-154
31095,1989,0,2023-03-01T18:52:37.790417,1747315,1090,1696,648,-1264,-596,-434,8,166,-154
31096,1990,0,2023-03-01T18:52:37.795106,1747320,1090,1696,648,-1264,-596,-434,8,166,-154
31097,1991,0,2023-03-01T18:52:37.800171,1747325,1090,1696,648,-1264,-596,-434,8,166,-154
31098,1992,0,2023-03-01T18:52:37.804552,1747330,1088,1695,652,-1253,-606,-444,8,166,-154
31099,1993,0,2023-03-01T18:52:37.810142,1747335,1088,1695,652,-1253,-606,-444,8,166,-154
31100,1994,0,2023-03-01T18:52:37.815112,1747340,1088,1695,652,-1253,-606,-444,8,166,-154
31101,1995,0,2023-03-01T18:52:37.820197,1747345,1088,1695,652,-1253,-606,-444,8,166,-154
31102,1996,0,2023-03-01T18:52:37.825483,1747351,1088,1698,653,-1248,-596,-444,3,163,-151
31103,1997,0,2023-03-01T18:52:37.831193,1747356,1088,1698,653,-1248,-596,-444,3,163,-151
31104,1998,0,2023-03-01T18:52:37.835888,1747361,1088,1698,653,-1248,-596,-444,3,163,-151
31105,1999,0,2023-03-01T18:52:37.840772,1747365,1088,1698,653,-1248,-596,-444,3,163,-151
31106,2000,0,2023-03-01T18:52:37.846348,1747372,1085,1697,656,-1246,-590,-446,3,163,-151
31107,2001,0,2023-03-01T18:52:37.851980,1747377,1085,1697,656,-1246,-590,-446,3,163,-151
31108,2002,0,2023-03-01T18:52:37.857682,1747383,1085,1697,656,-1246,-590,-446,3,163,-151
31109,2003,0,2023-03-01T18:52:37.863063,1747388,1085,1697,656,-1246,-590,-446,3,163,-151
31110,2004,0,2023-03-01T18:52:37.869650,1747395,1082,1696,656,-1252,-600,-446,3,163,-151
31111,2005,0,2023-03-01T18:52:37.875908,1747401,1082,1696,656,-1252,-600,-446,3,163,-151
31112,2006,0,2023-03-01T18:52:37.880956,1747406,1082,1696,656,-1252,-600,-446,3,163,-151
31113,2007,0,2023-03-01T18:52:37.886415,1747411,1086,1696,647,-1256,-600,-444,3,163,-151
31114,2008,0,2023-03-01T18:52:37.892506,1747418,1086,1696,647,-1256,-600,-444,3,163,-151
31115,2009,0,2023-03-01T18:52:37.898234,1747424,1086,1696,647,-1256,-600,-444,3,163,-151
31116,2010,0,2023-03-01T18:52:37.903464,1747429,1086,1696,647,-1256,-600,-444,3,163,-151
31117,2011,0,2023-03-01T18:52:37.908331,1747433,1085,1693,649,-1251,-603,-442,3,163,-151
31118,2012,0,2023-03-01T18:52:37.914206,1747439,1085,1693,649,-1251,-603,-442,3,163,-151
31119,2013,0,2023-03-01T18:52:37.919385,1747444,1085,1693,649,-1251,-603,-442,3,163,-151
31120,2014,0,2023-03-01T18:52:37.924862,1747450,1087,1695,650,-1260,-595,-443,3,163,-151
31121,2015,0,2023-03-01T18:52:37.930432,1747456,1087,1695,650,-1260,-595,-443,3,163,-151
31122,2016,0,2023-03-01T18:52:37.936060,1747462,1087,1695,650,-1260,-595,-443,3,163,-151
31123,2017,0,2023-03-01T18:52:37.940746,1747466,1087,1695,650,-1260,-595,-443,3,163,-151
31124,2018,0,2023-03-01T18:52:37.946322,1747471,1085,1692,650,-1266,-591,-448,4,160,-148
31125,2019,0,2023-03-01T18:52:37.952004,1747477,1085,1692,650,-1266,-591,-448,4,160,-148
31126,2020,0,2023-03-01T18:52:37.957752,1747483,1085,1692,650,-1266,-591,-448,4,160,-148
31127,2021,0,2023-03-01T18:52:37.962780,1747488,1085,1692,650,-1266,-591,-448,4,160,-148
31128,2022,0,2023-03-01T18:52:37.968205,1747493,1083,1695,657,-1268,-599,-460,4,160,-148
31129,2023,0,2023-03-01T18:52:37.973701,1747499,1083,1695,657,-1268,-599,-460,4,160,-148
31130,2024,0,2023-03-01T18:52:37.978593,1747504,1083,1695,657,-1268,-599,-460,4,160,-148
31131,2025,0,2023-03-01T18:52:37.984218,1747510,1079,1692,659,-1255,-595,-447,4,160,-148
31132,2026,0,2023-03-01T18:52:37.989488,1747515,1079,1692,659,-1255,-595,-447,4,160,-148
31133,2027,0,2023-03-01T18:52:37.994319,1747519,1079,1692,659,-1255,-595,-447,4,160,-148
31134,2028,0,2023-03-01T18:52:37.999397,1747524,1079,1692,659,-1255,-595,-447,4,160,-148
31135,2029,0,2023-03-01T18:52:38.004898,1747530,1079,1692,657,-1265,-598,-448,4,160,-148
31136,2030,0,2023-03-01T18:52:38.010478,1747535,1079,1692,657,-1265,-598,-448,4,160,-148
31137,2031,0,2023-03-01T18:52:38.015963,1747540,1079,1692,657,-1265,-598,-448,4,160,-148
31138,2032,0,2023-03-01T18:52:38.020810,1747546,1079,1692,657,-1265,-598,-448,4,160,-148
31139,2033,0,2023-03-01T18:52:38.026366,1747552,1086,1693,660,-1253,-592,-437,4,160,-148
31140,2034,0,2023-03-01T18:52:38.031905,1747557,1086,1693,660,-1253,-592,-437,4,160,-148
31141,2035,0,2023-03-01T18:52:38.037057,1747562,1086,1693,660,-1253,-592,-437,4,160,-148
31142,2036,0,2023-03-01T18:52:38.042086,1747567,1086,1693,660,-1253,-592,-437,4,160,-148
31143,2037,0,2023-03-01T18:52:38.047361,1747572,1083,1693,664,-1261,-599,-433,4,160,-148
31144,2038,0,2023-03-01T18:52:38.052426,1747577,1083,1693,664,-1261,-599,-433,4,160,-148
31145,2039,0,2023-03-01T18:52:38.057133,1747582,1083,1693,664,-1261,-599,-433,4,160,-148
31146,2040,0,2023-03-01T18:52:38.062227,1747587,1083,1693,664,-1261,-599,-433,4,160,-148
31147,2041,0,2023-03-01T18:52:38.068120,1747593,1083,1690,661,-1262,-599,-441,13,157,-151
31148,2042,0,2023-03-01T18:52:38.073975,1747599,1083,1690,661,-1262,-599,-441,13,157,-151
31149,2043,0,2023-03-01T18:52:38.078649,1747604,1083,1690,661,-1262,-599,-441,13,157,-151
31150,2044,0,2023-03-01T18:52:38.084591,1747609,1079,1690,659,-1254,-601,-454,13,157,-151
31151,2045,0,2023-03-01T18:52:38.090064,1747615,1079,1690,659,-1254,-601,-454,13,157,-151
31152,2046,0,2023-03-01T18:52:38.095025,1747620,1079,1690,659,-1254,-601,-454,13,157,-151
31153,2047,0,2023-03-01T18:52:38.100114,1747625,1079,1690,659,-1254,-601,-454,13,157,-151
31154,2048,0,2023-03-01T18:52:38.105160,1747631,1083,1689,659,-1257,-601,-461,13,157,-151
31155,2049,0,2023-03-01T18:52:38.110645,1747636,1083,1689,659,-1257,-601,-461,13,157,-151
31156,2050,0,2023-03-01T18:52:38.116180,1747642,1083,1689,659,-1257,-601,-461,13,157,-151
31157,2051,0,2023-03-01T18:52:38.120773,1747646,1083,1689,659,-1257,-601,-461,13,157,-151
31158,2052,0,2023-03-01T18:52:38.126146,1747651,1079,1687,669,-1260,-597,-451,13,157,-151
31159,2053,0,2023-03-01T18:52:38.131571,1747657,1079,1687,669,-1260,-597,-451,13,157,-151
31160,2054,0,2023-03-01T18:52:38.136319,1747661,1079,1687,669,-1260,-597,-451,13,157,-151
31161,2055,0,2023-03-01T18:52:38.141463,1747666,1079,1687,669,-1260,-597,-451,13,157,-151
31162,2056,0,2023-03-01T18:52:38.146656,1747672,1079,1694,660,-1274,-609,-459,13,157,-151
31163,2057,0,2023-03-01T18:52:38.152047,1747677,1079,1694,660,-1274,-609,-459,13,157,-151
31164,2058,0,2023-03-01T18:52:38.156939,1747682,1079,1694,660,-1274,-609,-459,13,157,-151
31165,2059,0,2023-03-01T18:52:38.161669,1747687,1079,1694,660,-1274,-609,-459,13,157,-151
31166,2060,0,2023-03-01T18:52:38.167118,1747692,1077,1690,661,-1270,-609,-449,13,157,-151
31167,2061,0,2023-03-01T18:52:38.172664,1747698,1077,1690,661,-1270,-609,-449,13,157,-151
31168,2062,0,2023-03-01T18:52:38.177520,1747703,1077,1690,661,-1270,-609,-449,13,157,-151
31169,2063,0,2023-03-01T18:52:38.182457,1747707,1077,1690,661,-1270,-609,-449,13,157,-151
31170,2064,0,2023-03-01T18:52:38.188104,1747714,1078,1688,664,-1259,-605,-457,13,157,-151
31171,2065,0,2023-03-01T18:52:38.193478,1747719,1078,1688,664,-1259,-605,-457,13,157,-151
31172,2066,0,2023-03-01T18:52:38.198379,1747724,1078,1688,664,-1259,-605,-457,13,157,-151
31173,2067,0,2023-03-01T18:52:38.203687,1747729,1078,1688,664,-1259,-605,-457,13,157,-151
31174,2068,0,2023-03-01T18:52:38.208543,1747734,1081,1690,664,-1264,-604,-447,4,162,-156
31175,2069,0,2023-03-01T18:52:38.213419,1747738,1081,1690,664,-1264,-604,-447,4,162,-156
31176,2070,0,2023-03-01T18:52:38.218886,1747743,1081,1690,664,-1264,-604,-447,4,162,-156
31177,2071,0,2023-03-01T18:52:38.224312,1747749,1076,1684,668,-1258,-600,-452,4,162,-156
31178,2072,0,2023-03-01T18:52:38.229555,1747755,1076,1684,668,-1258,-600,-452,4,162,-156
31179,2073,0,2023-03-01T18:52:38.235265,1747761,1076,1684,668,-1258,-600,-452,4,162,-156
31180,2074,0,2023-03-01T18:52:38.240450,1747765,1076,1684,668,-1258,-600,-452,4,162,-156
31181,2075,0,2023-03-01T18:52:38.245897,1747771,1076,1684,668,-1258,-600,-452,4,162,-156
31182,2076,0,2023-03-01T18:52:38.250775,1747776,1076,1684,668,-1258,-600,-452,4,162,-156
31183,2077,0,2023-03-01T18:52:38.255594,1747781,1076,1684,668,-1258,-600,-452,4,162,-156
31184,2078,0,2023-03-01T18:52:38.260398,1747785,1076,1684,668,-1258,-600,-452,4,162,-156
31185,2079,0,2023-03-01T18:52:38.266025,1747791,1077,1685,666,-1255,-597,-451,4,162,-156
31186,2080,0,2023-03-01T18:52:38.271515,1747796,1077,1685,666,-1255,-597,-451,4,162,-156
31187,2081,0,2023-03-01T18:52:38.276784,1747802,1077,1685,666,-1255,-597,-451,4,162,-156
31188,2082,0,2023-03-01T18:52:38.281703,1747807,1077,1685,666,-1255,-597,-451,4,162,-156
31189,2083,0,2023-03-01T18:52:38.287004,1747812,1077,1692,663,-1264,-595,-447,4,162,-156
31190,2084,0,2023-03-01T18:52:38.292270,1747817,1077,1692,663,-1264,-595,-447,4,162,-156
31191,2085,0,2023-03-01T18:52:38.297244,1747822,1077,1692,663,-1264,-595,-447,4,162,-156
31192,2086,0,2023-03-01T18:52:38.302212,1747827,1077,1692,663,-1264,-595,-447,4,162,-156
31193,2087,0,2023-03-01T18:52:38.307289,1747832,1078,1690,668,-1257,-602,-453,4,162,-156
31194,2088,0,2023-03-01T18:52:38.312742,1747837,1078,1690,668,-1257,-602,-453,4,162,-156
31195,2089,0,2023-03-01T18:52:38.317767,1747843,1078,1690,668,-1257,-602,-453,4,162,-156
31196,2090,0,2023-03-01T18:52:38.322922,1747848,1078,1690,668,-1257,-602,-453,4,162,-156
31197,2091,0,2023-03-01T18:52:38.328210,1747854,1078,1690,672,-1267,-610,-446,12,158,-156
31198,2092,0,2023-03-01T18:52:38.333442,1747859,1078,1690,672,-1267,-610,-446,12,158,-156
31199,2093,0,2023-03-01T18:52:38.338511,1747863,1078,1690,672,-1267,-610,-446,12,158,-156
31200,2094,0,2023-03-01T18:52:38.344013,1747869,1078,1690,672,-1267,-610,-446,12,158,-156
31201,2095,0,2023-03-01T18:52:38.348886,1747874,1075,1682,674,-1268,-612,-443,12,158,-156
31202,2096,0,2023-03-01T18:52:38.354914,1747880,1075,1682,674,-1268,-612,-443,12,158,-156
31203,2097,0,2023-03-01T18:52:38.359912,1747886,1075,1682,674,-1268,-612,-443,12,158,-156
31204,2098,0,2023-03-01T18:52:38.365480,1747891,1076,1688,672,-1259,-598,-450,12,158,-156
31205,2099,0,2023-03-01T18:52:38.370981,1747896,1076,1688,672,-1259,-598,-450,12,158,-156
31206,2100,0,2023-03-01T18:52:38.375986,1747901,1076,1688,672,-1259,-598,-450,12,158,-156
31207,2101,0,2023-03-01T18:52:38.380815,1747906,1076,1688,672,-1259,-598,-450,12,158,-156
31208,2102,0,2023-03-01T18:52:38.386234,1747911,1073,1685,677,-1261,-602,-450,12,158,-156
31209,2103,0,2023-03-01T18:52:38.391653,1747917,1073,1685,677,-1261,-602,-450,12,158,-156
31210,2104,0,2023-03-01T18:52:38.397220,1747922,1073,1685,677,-1261,-602,-450,12,158,-156
31211,2105,0,2023-03-01T18:52:38.402032,1747927,1073,1685,677,-1261,-602,-450,12,158,-156
31212,2106,0,2023-03-01T18:52:38.407653,1747933,1073,1685,674,-1251,-596,-448,12,158,-156
31213,2107,0,2023-03-01T18:52:38.413130,1747938,1073,1685,674,-1251,-596,-448,12,158,-156
31214,2108,0,2023-03-01T18:52:38.419986,1747944,1073,1685,674,-1251,-596,-448,12,158,-156
31215,2109,0,2023-03-01T18:52:38.425519,1747951,1073,1687,673,-1252,-593,-449,12,158,-156
31216,2110,0,2023-03-01T18:52:38.431476,1747956,1073,1687,673,-1252,-593,-449,12,158,-156
31217,2111,0,2023-03-01T18:52:38.436964,1747962,1073,1687,673,-1252,-593,-449,12,158,-156
31218,2112,0,2023-03-01T18:52:38.442114,1747968,1073,1687,673,-1252,-593,-449,12,158,-156
31219,2113,0,2023-03-01T18:52:38.447790,1747973,1075,1686,677,-1257,-592,-437,12,158,-156
31220,2114,0,2023-03-01T18:52:38.453925,1747979,1075,1686,677,-1257,-592,-437,12,158,-156
31221,2115,0,2023-03-01T18:52:38.459042,1747984,1075,1686,677,-1257,-592,-437,12,158,-156
31222,2116,0,2023-03-01T18:52:38.464456,1747990,1075,1686,677,-1257,-592,-437,12,158,-156
31223,2117,0,2023-03-01T18:52:38.469570,1747995,1075,1689,673,-1247,-590,-438,5,161,-155
31224,2118,0,2023-03-01T18:52:38.475664,1748001,1075,1689,673,-1247,-590,-438,5,161,-155
31225,2119,0,2023-03-01T18:52:38.480911,1748005,1075,1689,673,-1247,-590,-438,5,161,-155
31226,2120,0,2023-03-01T18:52:38.487195,1748013,1075,1686,676,-1256,-594,-442,5,161,-155
31227,2121,0,2023-03-01T18:52:38.492860,1748018,1075,1686,676,-1256,-594,-442,5,161,-155
31228,2122,0,2023-03-01T18:52:38.498006,1748023,1075,1686,676,-1256,-594,-442,5,161,-155
31229,2123,0,2023-03-01T18:52:38.502933,1748028,1075,1686,676,-1256,-594,-442,5,161,-155
31230,2124,0,2023-03-01T18:52:38.508142,1748033,1073,1685,678,-1251,-593,-444,5,161,-155
31231,2125,0,2023-03-01T18:52:38.513653,1748039,1073,1685,678,-1251,-593,-444,5,161,-155
31232,2126,0,2023-03-01T18:52:38.518571,1748043,1073,1685,678,-1251,-593,-444,5,161,-155
31233,2127,0,2023-03-01T18:52:38.524929,1748049,1076,1686,680,-1255,-599,-448,5,161,-155
31234,2128,0,2023-03-01T18:52:38.530284,1748056,1076,1686,680,-1255,-599,-448,5,161,-155
31235,2129,0,2023-03-01T18:52:38.535264,1748061,1076,1686,680,-1255,-599,-448,5,161,-155
31236,2130,0,2023-03-01T18:52:38.540141,1748066,1076,1686,680,-1255,-599,-448,5,161,-155
31237,2131,0,2023-03-01T18:52:38.545486,1748071,1070,1686,677,-1252,-600,-446,5,161,-155
31238,2132,0,2023-03-01T18:52:38.551123,1748076,1070,1686,677,-1252,-600,-446,5,161,-155
31239,2133,0,2023-03-01T18:52:38.556568,1748082,1070,1686,677,-1252,-600,-446,5,161,-155
31240,2134,0,2023-03-01T18:52:38.561277,1748086,1070,1686,677,-1252,-600,-446,5,161,-155
31241,2135,0,2023-03-01T18:52:38.566692,1748091,1070,1683,676,-1256,-611,-441,5,161,-155
31242,2136,0,2023-03-01T18:52:38.571955,1748098,1070,1683,676,-1256,-611,-441,5,161,-155
31243,2137,0,2023-03-01T18:52:38.577718,1748103,1070,1683,676,-1256,-611,-441,5,161,-155
31244,2138,0,2023-03-01T18:52:38.583115,1748109,1070,1683,676,-1256,-611,-441,5,161,-155
31245,2139,0,2023-03-01T18:52:38.588553,1748114,1074,1683,673,-1249,-612,-441,6,160,-160
31246,2140,0,2023-03-01T18:52:38.595021,1748120,1074,1683,673,-1249,-612,-441,6,160,-160
31247,2141,0,2023-03-01T18:52:38.600019,1748125,1074,1683,673,-1249,-612,-441,6,160,-160
31248,2142,0,2023-03-01T18:52:38.605621,1748130,1073,1678,687,-1244,-601,-443,6,160,-160
31249,2143,0,2023-03-01T18:52:38.611491,1748136,1073,1678,687,-1244,-601,-443,6,160,-160
31250,2144,0,2023-03-01T18:52:38.616727,1748142,1073,1678,687,-1244,-601,-443,6,160,-160
31251,2145,0,2023-03-01T18:52:38.621409,1748147,1073,1678,687,-1244,-601,-443,6,160,-160
31252,2146,0,2023-03-01T18:52:38.627046,1748152,1070,1683,682,-1250,-607,-457,6,160,-160
31253,2147,0,2023-03-01T18:52:38.632719,1748158,1070,1683,682,-1250,-607,-457,6,160,-160
31254,2148,0,2023-03-01T18:52:38.638137,1748163,1070,1683,682,-1250,-607,-457,6,160,-160
31255,2149,0,2023-03-01T18:52:38.642863,1748168,1070,1683,682,-1250,-607,-457,6,160,-160
31256,2150,0,2023-03-01T18:52:38.648549,1748173,1067,1679,679,-1255,-607,-454,6,160,-160
31257,2151,0,2023-03-01T18:52:38.654451,1748179,1067,1679,679,-1255,-607,-454,6,160,-160
31258,2152,0,2023-03-01T18:52:38.659936,1748185,1067,1679,679,-1255,-607,-454,6,160,-160
31259,2153,0,2023-03-01T18:52:38.666366,1748192,1071,1678,685,-1262,-611,-462,6,160,-160
31260,2154,0,2023-03-01T18:52:38.671713,1748197,1071,1678,685,-1262,-611,-462,6,160,-160
31261,2155,0,2023-03-01T18:52:38.676681,1748202,1071,1678,685,-1262,-611,-462,6,160,-160
31262,2156,0,2023-03-01T18:52:38.681602,1748207,1071,1678,685,-1262,-611,-462,6,160,-160
31263,2157,0,2023-03-01T18:52:38.687076,1748212,1075,1681,683,-1266,-614,-453,6,160,-160
31264,2158,0,2023-03-01T18:52:38.692619,1748217,1075,1681,683,-1266,-614,-453,6,160,-160
31265,2159,0,2023-03-01T18:52:38.698375,1748224,1075,1681,683,-1266,-614,-453,6,160,-160
31266,2160,0,2023-03-01T18:52:38.704158,1748230,1075,1681,683,-1266,-614,-453,6,160,-160
31267,2161,0,2023-03-01T18:52:38.709230,1748234,1068,1682,684,-1261,-613,-462,6,160,-160
31268,2162,0,2023-03-01T18:52:38.715255,1748241,1068,1682,684,-1261,-613,-462,6,160,-160
31269,2163,0,2023-03-01T18:52:38.720226,1748245,1068,1682,684,-1261,-613,-462,6,160,-160
31270,2164,0,2023-03-01T18:52:38.725861,1748251,1070,1686,686,-1263,-608,-456,6,162,-158
31271,2165,0,2023-03-01T18:52:38.731199,1748256,1070,1686,686,-1263,-608,-456,6,162,-158
31272,2166,0,2023-03-01T18:52:38.736031,1748261,1070,1686,686,-1263,-608,-456,6,162,-158
31273,2167,0,2023-03-01T18:52:38.741035,1748267,1070,1686,686,-1263,-608,-456,6,162,-158
31274,2168,0,2023-03-01T18:52:38.746442,1748272,1070,1679,690,-1247,-603,-455,6,162,-158
31275,2169,0,2023-03-01T18:52:38.751605,1748277,1070,1679,690,-1247,-603,-455,6,162,-158
31276,2170,0,2023-03-01T18:52:38.756332,1748282,1070,1679,690,-1247,-603,-455,6,162,-158
31277,2171,0,2023-03-01T18:52:38.761311,1748287,1070,1679,690,-1247,-603,-455,6,162,-158
31278,2172,0,2023-03-01T18:52:38.766662,1748292,1068,1679,690,-1259,-605,-453,6,162,-158
31279,2173,0,2023-03-01T18:52:38.771957,1748297,1068,1679,690,-1259,-605,-453,6,162,-158
31280,2174,0,2023-03-01T18:52:38.777674,1748302,1068,1679,690,-1259,-605,-453,6,162,-158
31281,2175,0,2023-03-01T18:52:38.782472,1748307,1068,1679,690,-1259,-605,-453,6,162,-158
31282,2176,0,2023-03-01T18:52:38.787701,1748313,1066,1678,691,-1262,-604,-454,6,162,-158
31283,2177,0,2023-03-01T18:52:38.792923,1748318,1066,1678,691,-1262,-604,-454,6,162,-158
31284,2178,0,2023-03-01T18:52:38.797750,1748323,1066,1678,691,-1262,-604,-454,6,162,-158
31285,2179,0,2023-03-01T18:52:38.802559,1748328,1066,1678,691,-1262,-604,-454,6,162,-158
31286,2180,0,2023-03-01T18:52:38.807803,1748333,1067,1680,686,-1263,-605,-468,6,162,-158
31287,2181,0,2023-03-01T18:52:38.813232,1748338,1067,1680,686,-1263,-605,-468,6,162,-158
31288,2182,0,2023-03-01T18:52:38.818193,1748343,1067,1680,686,-1263,-605,-468,6,162,-158
31289,2183,0,2023-03-01T18:52:38.822976,1748348,1067,1680,686,-1263,-605,-468,6,162,-158
31290,2184,0,2023-03-01T18:52:38.828388,1748354,1068,1679,690,-1246,-610,-450,6,162,-158
31291,2185,0,2023-03-01T18:52:38.833902,1748360,1068,1679,690,-1246,-610,-450,6,162,-158
31292,2186,0,2023-03-01T18:52:38.838631,1748364,1068,1679,690,-1246,-610,-450,6,162,-158
31293,2187,0,2023-03-01T18:52:38.844090,1748369,1068,1679,690,-1246,-610,-450,6,162,-158
31294,2188,0,2023-03-01T18:52:38.848693,1748374,1062,1676,694,-1253,-610,-457,11,157,-157
31295,2189,0,2023-03-01T18:52:38.854561,1748380,1062,1676,694,-1253,-610,-457,11,157,-157
31296,2190,0,2023-03-01T18:52:38.859294,1748384,1062,1676,694,-1253,-610,-457,11,157,-157
31297,2191,0,2023-03-01T18:52:38.864820,1748390,1067,1682,686,-1265,-608,-461,11,157,-157
31298,2192,0,2023-03-01T18:52:38.870223,1748396,1067,1682,686,-1265,-608,-461,11,157,-157
31299,2193,0,2023-03-01T18:52:38.875101,1748401,1067,1682,686,-1265,-608,-461,11,157,-157
31300,2194,0,2023-03-01T18:52:38.880066,1748405,1067,1682,686,-1265,-608,-461,11,157,-157
31301,2195,0,2023-03-01T18:52:38.885296,1748410,1066,1676,691,-1256,-606,-456,11,157,-157
31302,2196,0,2023-03-01T18:52:38.891115,1748416,1066,1676,691,-1256,-606,-456,11,157,-157
31303,2197,0,2023-03-01T18:52:38.895977,1748421,1066,1676,691,-1256,-606,-456,11,157,-157
31304,2198,0,2023-03-01T18:52:38.900956,1748426,1066,1676,691,-1256,-606,-456,11,157,-157
31305,2199,0,2023-03-01T18:52:38.906898,1748431,1065,1680,693,-1254,-603,-465,11,157,-157
31306,2200,0,2023-03-01T18:52:38.913062,1748439,1065,1680,693,-1254,-603,-465,11,157,-157
31307,2201,0,2023-03-01T18:52:38.918041,1748443,1065,1680,693,-1254,-603,-465,11,157,-157
31308,2202,0,2023-03-01T18:52:38.923115,1748448,1065,1680,693,-1254,-603,-465,11,157,-157
31309,2203,0,2023-03-01T18:52:38.928834,1748454,1064,1676,693,-1259,-605,-463,11,157,-157
31310,2204,0,2023-03-01T18:52:38.935019,1748460,1064,1676,693,-1259,-605,-463,11,157,-157
31311,2205,0,2023-03-01T18:52:38.940520,1748465,1064,1676,693,-1259,-605,-463,11,157,-157
31312,2206,0,2023-03-01T18:52:38.945556,1748471,1064,1678,689,-1262,-607,-457,11,157,-157
31313,2207,0,2023-03-01T18:52:38.951099,1748476,1064,1678,689,-1262,-607,-457,11,157,-157
31314,2208,0,2023-03-01T18:52:38.957071,1748482,1064,1678,689,-1262,-607,-457,11,157,-157
31315,2209,0,2023-03-01T18:52:38.961995,1748487,1064,1678,689,-1262,-607,-457,11,157,-157
31316,2210,0,2023-03-01T18:52:38.967605,1748493,1063,1675,693,-1258,-607,-454,7,161,-153
31317,2211,0,2023-03-01T18:52:38.972934,1748498,1063,1675,693,-1258,-607,-454,7,161,-153
31318,2212,0,2023-03-01T18:52:38.978781,1748504,1063,1675,693,-1258,-607,-454,7,161,-153
31319,2213,0,2023-03-01T18:52:38.984430,1748509,1063,1675,693,-1258,-607,-454,7,161,-153
31320,2214,0,2023-03-01T18:52:38.989287,1748514,1059,1679,701,-1260,-606,-455,7,161,-153
31321,2215,0,2023-03-01T18:52:38.994350,1748519,1059,1679,701,-1260,-606,-455,7,161,-153
31322,2216,0,2023-03-01T18:52:38.999242,1748525,1059,1679,701,-1260,-606,-455,7,161,-153
31323,2217,0,2023-03-01T18:52:39.005186,1748531,1059,1679,701,-1260,-606,-455,7,161,-153
31324,2218,0,2023-03-01T18:52:39.009864,1748535,1062,1672,698,-1266,-620,-459,7,161,-153
31325,2219,0,2023-03-01T18:52:39.015657,1748541,1062,1672,698,-1266,-620,-459,7,161,-153
31326,2220,0,2023-03-01T18:52:39.020588,1748546,1062,1672,698,-1266,-620,-459,7,161,-153
31327,2221,0,2023-03-01T18:52:39.026242,1748551,1065,1677,696,-1266,-605,-455,7,161,-153
31328,2222,0,2023-03-01T18:52:39.031428,1748556,1065,1677,696,-1266,-605,-455,7,161,-153
31329,2223,0,2023-03-01T18:52:39.036516,1748561,1065,1677,696,-1266,-605,-455,7,161,-153
31330,2224,0,2023-03-01T18:52:39.041611,1748567,1065,1677,696,-1266,-605,-455,7,161,-153
31331,2225,0,2023-03-01T18:52:39.047408,1748573,1063,1675,696,-1258,-602,-459,7,161,-153
31332,2226,0,2023-03-01T18:52:39.052886,1748578,1063,1675,696,-1258,-602,-459,7,161,-153
31333,2227,0,2023-03-01T18:52:39.058446,1748584,1063,1675,696,-1258,-602,-459,7,161,-153
31334,2228,0,2023-03-01T18:52:39.063360,1748589,1063,1675,696,-1258,-602,-459,7,161,-153
31335,2229,0,2023-03-01T18:52:39.068882,1748594,1065,1674,696,-1257,-598,-449,7,161,-153
31336,2230,0,2023-03-01T18:52:39.074764,1748600,1065,1674,696,-1257,-598,-449,7,161,-153
31337,2231,0,2023-03-01T18:52:39.079783,1748605,1065,1674,696,-1257,-598,-449,7,161,-153
31338,2232,0,2023-03-01T18:52:39.085080,1748611,1065,1674,696,-1257,-598,-449,7,161,-153
31339,2233,0,2023-03-01T18:52:39.090476,1748615,1063,1672,695,-1249,-600,-446,7,161,-153
31340,2234,0,2023-03-01T18:52:39.096526,1748622,1063,1672,695,-1249,-600,-446,7,161,-153
31341,2235,0,2023-03-01T18:52:39.101436,1748627,1063,1672,695,-1249,-600,-446,7,161,-153
31342,2236,0,2023-03-01T18:52:39.107362,1748632,1063,1674,704,-1250,-606,-457,9,159,-161
31343,2237,0,2023-03-01T18:52:39.112810,1748638,1063,1674,704,-1250,-606,-457,9,159,-161
31344,2238,0,2023-03-01T18:52:39.118030,1748643,1063,1674,704,-1250,-606,-457,9,159,-161
31345,2239,0,2023-03-01T18:52:39.123466,1748648,1063,1674,704,-1250,-606,-457,9,159,-161
31346,2240,0,2023-03-01T18:52:39.129126,1748655,1064,1671,704,-1257,-601,-456,9,159,-161
31347,2241,0,2023-03-01T18:52:39.135304,1748661,1064,1671,704,-1257,-601,-456,9,159,-161
31348,2242,0,2023-03-01T18:52:39.139872,1748665,1064,1671,704,-1257,-601,-456,9,159,-161
31349,2243,0,2023-03-01T18:52:39.145571,1748671,1060,1675,702,-1262,-596,-451,9,159,-161
31350,2244,0,2023-03-01T18:52:39.150981,1748676,1060,1675,702,-1262,-596,-451,9,159,-161
31351,2245,0,2023-03-01T18:52:39.156523,1748682,1060,1675,702,-1262,-596,-451,9,159,-161
31352,2246,0,2023-03-01T18:52:39.161535,1748686,1060,1675,702,-1262,-596,-451,9,159,-161
31353,2247,0,2023-03-01T18:52:39.167019,1748692,1063,1670,705,-1253,-602,-454,9,159,-161
31354,2248,0,2023-03-01T18:52:39.172416,1748698,1063,1670,705,-1253,-602,-454,9,159,-161
31355,2249,0,2023-03-01T18:52:39.177921,1748703,1063,1670,705,-1253,-602,-454,9,159,-161
31356,2250,0,2023-03-01T18:52:39.182844,1748708,1063,1670,705,-1253,-602,-454,9,159,-161
31357,2251,0,2023-03-01T18:52:39.188484,1748714,1057,1670,704,-1255,-600,-452,9,159,-161
31358,2252,0,2023-03-01T18:52:39.195300,1748720,1057,1670,704,-1255,-600,-452,9,159,-161
31359,2253,0,2023-03-01T18:52:39.200066,1748725,1057,1670,704,-1255,-600,-452,9,159,-161
31360,2254,0,2023-03-01T18:52:39.205456,1748730,1057,1670,704,-1255,-600,-452,9,159,-161
31361,2255,0,2023-03-01T18:52:39.210359,1748736,1058,1674,712,-1252,-600,-452,9,159,-161
31362,2256,0,2023-03-01T18:52:39.216060,1748742,1058,1674,712,-1252,-600,-452,9,159,-161
31363,2257,0,2023-03-01T18:52:39.221213,1748746,1058,1674,712,-1252,-600,-452,9,159,-161
31364,2258,0,2023-03-01T18:52:39.227184,1748752,1058,1669,708,-1263,-594,-448,12,158,-154
31365,2259,0,2023-03-01T18:52:39.232697,1748758,1058,1669,708,-1263,-594,-448,12,158,-154
31366,2260,0,2023-03-01T18:52:39.237540,1748763,1058,1669,708,-1263,-594,-448,12,158,-154
31367,2261,0,2023-03-01T18:52:39.242397,1748767,1058,1669,708,-1263,-594,-448,12,158,-154
31368,2262,0,2023-03-01T18:52:39.248030,1748773,1059,1668,709,-1262,-594,-457,12,158,-154
31369,2263,0,2023-03-01T18:52:39.253825,1748779,1059,1668,709,-1262,-594,-457,12,158,-154
31370,2264,0,2023-03-01T18:52:39.259932,1748785,1059,1668,709,-1262,-594,-457,12,158,-154
31371,2265,0,2023-03-01T18:52:39.264283,1748790,1059,1668,709,-1262,-594,-457,12,158,-154
31372,2266,0,2023-03-01T18:52:39.269745,1748795,1056,1668,710,-1257,-599,-455,12,158,-154
31373,2267,0,2023-03-01T18:52:39.275072,1748800,1056,1668,710,-1257,-599,-455,12,158,-154
31374,2268,0,2023-03-01T18:52:39.279819,1748805,1056,1668,710,-1257,-599,-455,12,158,-154
31375,2269,0,2023-03-01T18:52:39.285339,1748810,1056,1668,710,-1257,-599,-455,12,158,-154
31376,2270,0,2023-03-01T18:52:39.290353,1748815,1055,1670,711,-1259,-604,-459,12,158,-154
31377,2271,0,2023-03-01T18:52:39.296313,1748822,1055,1670,711,-1259,-604,-459,12,158,-154
31378,2272,0,2023-03-01T18:52:39.301320,1748827,1055,1670,711,-1259,-604,-459,12,158,-154
31379,2273,0,2023-03-01T18:52:39.307667,1748833,1058,1671,705,-1253,-605,-461,12,158,-154
31380,2274,0,2023-03-01T18:52:39.313151,1748838,1058,1671,705,-1253,-605,-461,12,158,-154
31381,2275,0,2023-03-01T18:52:39.318458,1748843,1058,1671,705,-1253,-605,-461,12,158,-154
31382,2276,0,2023-03-01T18:52:39.323621,1748848,1058,1671,705,-1253,-605,-461,12,158,-154
31383,2277,0,2023-03-01T18:52:39.329180,1748854,1057,1671,707,-1266,-599,-463,12,158,-154
31384,2278,0,2023-03-01T18:52:39.334827,1748860,1057,1671,707,-1266,-599,-463,12,158,-154
31385,2279,0,2023-03-01T18:52:39.340102,1748866,1057,1671,707,-1266,-599,-463,12,158,-154
31386,2280,0,2023-03-01T18:52:39.345566,1748871,1058,1673,710,-1263,-594,-459,12,158,-154
31387,2281,0,2023-03-01T18:52:39.351159,1748876,1058,1673,710,-1263,-594,-459,12,158,-154
31388,2282,0,2023-03-01T18:52:39.357426,1748883,1058,1673,710,-1263,-594,-459,12,158,-154
31389,2283,0,2023-03-01T18:52:39.362308,1748888,1058,1673,710,-1263,-594,-459,12,158,-154
31390,2284,0,2023-03-01T18:52:39.367975,1748893,1055,1670,718,-1252,-594,-458,12,158,-146
31391,2285,0,2023-03-01T18:52:39.373691,1748899,1055,1670,718,-1252,-594,-458,12,158,-146
31392,2286,0,2023-03-01T18:52:39.378615,1748903,1055,1670,718,-1252,-594,-458,12,158,-146
31393,2287,0,2023-03-01T18:52:39.383712,1748909,1055,1670,718,-1252,-594,-458,12,158,-146
31394,2288,0,2023-03-01T18:52:39.389228,1748915,1057,1668,714,-1267,-599,-460,12,158,-146
31395,2289,0,2023-03-01T18:52:39.394900,1748920,1057,1668,714,-1267,-599,-460,12,158,-146
31396,2290,0,2023-03-01T18:52:39.399554,1748925,1057,1668,714,-1267,-599,-460,12,158,-146
31397,2291,0,2023-03-01T18:52:39.405330,1748930,1057,1668,714,-1267,-599,-460,12,158,-146
31398,2292,0,2023-03-01T18:52:39.410429,1748935,1053,1667,713,-1260,-591,-453,12,158,-146
31399,2293,0,2023-03-01T18:52:39.416096,1748941,1053,1667,713,-1260,-591,-453,12,158,-146
31400,2294,0,2023-03-01T18:52:39.420869,1748946,1053,1667,713,-1260,-591,-453,12,158,-146
31401,2295,0,2023-03-01T18:52:39.426630,1748952,1054,1670,717,-1262,-595,-458,12,158,-146
31402,2296,0,2023-03-01T18:52:39.432406,1748958,1054,1670,717,-1262,-595,-458,12,158,-146
31403,2297,0,2023-03-01T18:52:39.438336,1748963,1054,1670,717,-1262,-595,-458,12,158,-146
31404,2298,0,2023-03-01T18:52:39.443599,1748969,1054,1670,717,-1262,-595,-458,12,158,-146
31405,2299,0,2023-03-01T18:52:39.449258,1748974,1054,1666,714,-1250,-598,-450,12,158,-146
31406,2300,0,2023-03-01T18:52:39.454572,1748980,1054,1666,714,-1250,-598,-450,12,158,-146
31407,2301,0,2023-03-01T18:52:39.460029,1748985,1054,1666,714,-1250,-598,-450,12,158,-146
31408,2302,0,2023-03-01T18:52:39.465658,1748990,1054,1666,714,-1250,-598,-450,12,158,-146
31409,2303,0,2023-03-01T18:52:39.470801,1748996,1053,1667,716,-1256,-601,-454,12,158,-146
31410,2304,0,2023-03-01T18:52:39.478503,1749004,1053,1667,716,-1256,-601,-454,12,158,-146
31411,2305,0,2023-03-01T18:52:39.483743,1749009,1053,1667,716,-1256,-601,-454,12,158,-146
31412,2306,0,2023-03-01T18:52:39.489476,1749015,1053,1669,717,-1261,-609,-461,6,162,-156
31413,2307,0,2023-03-01T18:52:39.495412,1749020,1053,1669,717,-1261,-609,-461,6,162,-156
31414,2308,0,2023-03-01T18:52:39.500521,1749026,1053,1669,717,-1261,-609,-461,6,162,-156
31415,2309,0,2023-03-01T18:52:39.505937,1749031,1049,1667,727,-1257,-603,-459,6,162,-156
31416,2310,0,2023-03-01T18:52:39.511676,1749037,1049,1667,727,-1257,-603,-459,6,162,-156
31417,2311,0,2023-03-01T18:52:39.516704,1749042,1049,1667,727,-1257,-603,-459,6,162,-156
31418,2312,0,2023-03-01T18:52:39.521903,1749047,1049,1667,727,-1257,-603,-459,6,162,-156
31419,2313,0,2023-03-01T18:52:39.528007,1749053,1054,1666,716,-1262,-608,-460,6,162,-156
31420,2314,0,2023-03-01T18:52:39.533516,1749059,1054,1666,716,-1262,-608,-460,6,162,-156
31421,2315,0,2023-03-01T18:52:39.538472,1749064,1054,1666,716,-1262,-608,-460,6,162,-156
31422,2316,0,2023-03-01T18:52:39.543546,1749068,1054,1666,716,-1262,-608,-460,6,162,-156
31423,2317,0,2023-03-01T18:52:39.548656,1749074,1052,1668,714,-1251,-604,-458,6,162,-156
31424,2318,0,2023-03-01T18:52:39.554569,1749080,1052,1668,714,-1251,-604,-458,6,162,-156
31425,2319,0,2023-03-01T18:52:39.560005,1749085,1052,1668,714,-1251,-604,-458,6,162,-156
31426,2320,0,2023-03-01T18:52:39.565568,1749091,1052,1668,714,-1251,-604,-458,6,162,-156
31427,2321,0,2023-03-01T18:52:39.570748,1749096,1053,1664,721,-1259,-607,-460,6,162,-156
31428,2322,0,2023-03-01T18:52:39.576266,1749101,1053,1664,721,-1259,-607,-460,6,162,-156
31429,2323,0,2023-03-01T18:52:39.581928,1749106,1053,1664,721,-1259,-607,-460,6,162,-156
31430,2324,0,2023-03-01T18:52:39.588295,1749113,1053,1665,719,-1255,-603,-451,6,162,-156
31431,2325,0,2023-03-01T18:52:39.593956,1749118,1053,1665,719,-1255,-603,-451,6,162,-156
31432,2326,0,2023-03-01T18:52:39.598857,1749124,1053,1665,719,-1255,-603,-451,6,162,-156
31433,2327,0,2023-03-01T18:52:39.605009,1749130,1053,1665,719,-1255,-603,-451,6,162,-156
31434,2328,0,2023-03-01T18:52:39.609988,1749135,1051,1665,723,-1257,-599,-458,6,162,-156
31435,2329,0,2023-03-01T18:52:39.615569,1749141,1051,1665,723,-1257,-599,-458,6,162,-156
31436,2330,0,2023-03-01T18:52:39.620524,1749146,1051,1665,723,-1257,-599,-458,6,162,-156
31437,2331,0,2023-03-01T18:52:39.626245,1749151,1047,1666,731,-1258,-595,-460,7,169,-153
31438,2332,0,2023-03-01T18:52:39.631877,1749157,1047,1666,731,-1258,-595,-460,7,169,-153
31439,2333,0,2023-03-01T18:52:39.636754,1749161,1047,1666,731,-1258,-595,-460,7,169,-153
31440,2334,0,2023-03-01T18:52:39.642277,1749168,1047,1666,731,-1258,-595,-460,7,169,-153
31441,2335,0,2023-03-01T18:52:39.647666,1749173,1050,1660,721,-1263,-594,-454,7,169,-153
31442,2336,0,2023-03-01T18:52:39.653191,1749178,1050,1660,721,-1263,-594,-454,7,169,-153
31443,2337,0,2023-03-01T18:52:39.658652,1749184,1050,1660,721,-1263,-594,-454,7,169,-153
31444,2338,0,2023-03-01T18:52:39.663798,1749189,1050,1660,721,-1263,-594,-454,7,169,-153
31445,2339,0,2023-03-01T18:52:39.669414,1749194,1049,1661,728,-1267,-604,-451,7,169,-153
31446,2340,0,2023-03-01T18:52:39.675271,1749200,1049,1661,728,-1267,-604,-451,7,169,-153
31447,2341,0,2023-03-01T18:52:39.680214,1749206,1049,1661,728,-1267,-604,-451,7,169,-153
31448,2342,0,2023-03-01T18:52:39.685754,1749211,1049,1661,728,-1267,-604,-451,7,169,-153
31449,2343,0,2023-03-01T18:52:39.690387,1749216,1047,1663,727,-1256,-594,-458,7,169,-153
31450,2344,0,2023-03-01T18:52:39.697948,1749223,1047,1663,727,-1256,-594,-458,7,169,-153
31451,2345,0,2023-03-01T18:52:39.702645,1749228,1047,1663,727,-1256,-594,-458,7,169,-153
31452,2346,0,2023-03-01T18:52:39.708504,1749233,1047,1663,729,-1257,-596,-459,7,169,-153
31453,2347,0,2023-03-01T18:52:39.714456,1749239,1047,1663,729,-1257,-596,-459,7,169,-153
31454,2348,0,2023-03-01T18:52:39.719988,1749245,1047,1663,729,-1257,-596,-459,7,169,-153
31455,2349,0,2023-03-01T18:52:39.725207,1749251,1047,1663,729,-1257,-596,-459,7,169,-153
31456,2350,0,2023-03-01T18:52:39.730194,1749256,1043,1664,723,-1255,-598,-469,7,169,-153
31457,2351,0,2023-03-01T18:52:39.736384,1749262,1043,1664,723,-1255,-598,-469,7,169,-153
31458,2352,0,2023-03-01T18:52:39.741429,1749267,1043,1664,723,-1255,-598,-469,7,169,-153
31459,2353,0,2023-03-01T18:52:39.747065,1749272,1042,1662,727,-1259,-599,-456,13,159,-145
31460,2354,0,2023-03-01T18:52:39.752717,1749278,1042,1662,727,-1259,-599,-456,13,159,-145
31461,2355,0,2023-03-01T18:52:39.758278,1749283,1042,1662,727,-1259,-599,-456,13,159,-145
31462,2356,0,2023-03-01T18:52:39.762972,1749288,1042,1662,727,-1259,-599,-456,13,159,-145
31463,2357,0,2023-03-01T18:52:39.768637,1749294,1047,1663,730,-1257,-602,-458,13,159,-145
31464,2358,0,2023-03-01T18:52:39.774147,1749300,1047,1663,730,-1257,-602,-458,13,159,-145
31465,2359,0,2023-03-01T18:52:39.779306,1749305,1047,1663,730,-1257,-602,-458,13,159,-145
31466,2360,0,2023-03-01T18:52:39.784748,1749310,1047,1663,730,-1257,-602,-458,13,159,-145
31467,2361,0,2023-03-01T18:52:39.789546,1749315,1047,1665,731,-1260,-597,-464,13,159,-145
31468,2362,0,2023-03-01T18:52:39.795742,1749321,1047,1665,731,-1260,-597,-464,13,159,-145
31469,2363,0,2023-03-01T18:52:39.800954,1749325,1047,1665,731,-1260,-597,-464,13,159,-145
31470,2364,0,2023-03-01T18:52:39.807000,1749332,1049,1659,726,-1271,-601,-466,13,159,-145
31471,2365,0,2023-03-01T18:52:39.812450,1749338,1049,1659,726,-1271,-601,-466,13,159,-145
31472,2366,0,2023-03-01T18:52:39.817155,1749343,1049,1659,726,-1271,-601,-466,13,159,-145
31473,2367,0,2023-03-01T18:52:39.822271,1749347,1049,1659,726,-1271,-601,-466,13,159,-145
31474,2368,0,2023-03-01T18:52:39.827935,1749353,1047,1661,731,-1272,-591,-463,13,159,-145
31475,2369,0,2023-03-01T18:52:39.833534,1749359,1047,1661,731,-1272,-591,-463,13,159,-145
31476,2370,0,2023-03-01T18:52:39.839203,1749364,1047,1661,731,-1272,-591,-463,13,159,-145
31477,2371,0,2023-03-01T18:52:39.844483,1749369,1047,1661,731,-1272,-591,-463,13,159,-145
31478,2372,0,2023-03-01T18:52:39.849696,1749374,1042,1657,730,-1265,-594,-456,13,159,-145
31479,2373,0,2023-03-01T18:52:39.855272,1749381,1042,1657,730,-1265,-594,-456,13,159,-145
31480,2374,0,2023-03-01T18:52:39.859858,1749385,1042,1657,730,-1265,-594,-456,13,159,-145
31481,2375,0,2023-03-01T18:52:39.864982,1749390,1042,1657,730,-1265,-594,-456,13,159,-145
31482,2376,0,2023-03-01T18:52:39.869919,1749395,1043,1661,726,-1266,-595,-460,15,153,-147
31483,2377,0,2023-03-01T18:52:39.876037,1749401,1043,1661,726,-1266,-595,-460,15,153,-147
31484,2378,0,2023-03-01T18:52:39.880706,1749406,1043,1661,726,-1266,-595,-460,15,153,-147
31485,2379,0,2023-03-01T18:52:39.885829,1749411,1043,1661,726,-1266,-595,-460,15,153,-147
31486,2380,0,2023-03-01T18:52:39.890589,1749415,1041,1661,734,-1262,-592,-458,15,153,-147
31487,2381,0,2023-03-01T18:52:39.896684,1749422,1041,1661,734,-1262,-592,-458,15,153,-147
31488,2382,0,2023-03-01T18:52:39.901579,1749427,1041,1661,734,-1262,-592,-458,15,153,-147
31489,2383,0,2023-03-01T18:52:39.907238,1749433,1043,1661,737,-1274,-590,-459,15,153,-147
31490,2384,0,2023-03-01T18:52:39.912839,1749438,1043,1661,737,-1274,-590,-459,15,153,-147
31491,2385,0,2023-03-01T18:52:39.917619,1749443,1043,1661,737,-1274,-590,-459,15,153,-147
31492,2386,0,2023-03-01T18:52:39.922478,1749448,1043,1661,737,-1274,-590,-459,15,153,-147
31493,2387,0,2023-03-01T18:52:39.928377,1749453,1041,1661,738,-1265,-601,-455,15,153,-147
31494,2388,0,2023-03-01T18:52:39.934507,1749459,1041,1661,738,-1265,-601,-455,15,153,-147
31495,2389,0,2023-03-01T18:52:39.940160,1749466,1041,1661,738,-1265,-601,-455,15,153,-147
31496,2390,0,2023-03-01T18:52:39.946233,1749472,1040,1658,733,-1275,-607,-470,15,153,-147
31497,2391,0,2023-03-01T18:52:39.951977,1749477,1040,1658,733,-1275,-607,-470,15,153,-147
31498,2392,0,2023-03-01T18:52:39.957698,1749483,1040,1658,733,-1275,-607,-470,15,153,-147
31499,2393,0,2023-03-01T18:52:39.962640,1749488,1040,1658,733,-1275,-607,-470,15,153,-147
