,Unnamed: 0,imu,server_time,arduino_time,ax,ay,az,gx,gy,gz,mx,my,mz
31500,2394,0,2023-03-01T18:52:39.967391,1749492,1043,1658,731,-1271,-598,-474,15,153,-147
31501,2395,0,2023-03-01T18:52:39.972002,1749497,1043,1658,731,-1271,-598,-474,15,153,-147
31502,2396,0,2023-03-01T18:52:39.977052,1749502,1043,1658,731,-1271,-598,-474,15,153,-147
31503,2397,0,2023-03-01T18:52:39.982047,1749508,1043,1658,731,-1271,-598,-474,15,153,-147
31504,2398,0,2023-03-01T18:52:39.987502,1749513,1039,1660,738,-1263,-594,-461,15,153,-147
31505,2399,0,2023-03-01T18:52:39.992549,1749518,1039,1660,738,-1263,-594,-461,15,153,-147
31506,2400,0,2023-03-01T18:52:39.998401,1749524,1039,1660,738,-1263,-594,-461,15,153,-147
31507,2401,0,2023-03-01T18:52:40.003311,1749528,1039,1660,738,-1263,-594,-461,15,153,-147
31508,2402,0,2023-03-01T18:52:40.009126,1749534,1040,1659,737,-1271,-596,-464,10,160,-144
31509,2403,0,2023-03-01T18:52:40.014840,1749540,1040,1659,737,-1271,-596,-464,10,160,-144
31510,2404,0,2023-03-01T18:52:40.021316,1749545,1040,1659,737,-1271,-596,-464,10,160,-144
31511,2405,0,2023-03-01T18:52:40.027980,1749553,1040,1660,745,-1260,-589,-459,10,160,-144
31512,2406,0,2023-03-01T18:52:40.034272,1749560,1040,1660,745,-1260,-589,-459,10,160,-144
31513,2407,0,2023-03-01T18:52:40.041054,1749565,1040,1660,745,-1260,-589,-459,10,160,-144
31514,2408,0,2023-03-01T18:52:40.046743,1749572,1039,1657,738,-1272,-589,-456,10,160,-144
31515,2409,0,2023-03-01T18:52:40.052078,1749577,1039,1657,738,-1272,-589,-456,10,160,-144
31516,2410,0,2023-03-01T18:52:40.057604,1749582,1039,1657,738,-1272,-589,-456,10,160,-144
31517,2411,0,2023-03-01T18:52:40.062607,1749587,1039,1657,738,-1272,-589,-456,10,160,-144
31518,2412,0,2023-03-01T18:52:40.068884,1749594,1041,1654,739,-1270,-586,-456,10,160,-144
31519,2413,0,2023-03-01T18:52:40.074621,1749600,1041,1654,739,-1270,-586,-456,10,160,-144
31520,2414,0,2023-03-01T18:52:40.080098,1749606,1041,1654,739,-1270,-586,-456,10,160,-144
31521,2415,0,2023-03-01T18:52:40.085163,1749611,1041,1654,739,-1270,-586,-456,10,160,-144
31522,2416,0,2023-03-01T18:52:40.089964,1749615,1041,1657,742,-1268,-575,-453,10,160,-144
31523,2417,0,2023-03-01T18:52:40.095636,1749621,1041,1657,742,-1268,-575,-453,10,160,-144
31524,2418,0,2023-03-01T18:52:40.101051,1749626,1041,1657,742,-1268,-575,-453,10,160,-144
31525,2419,0,2023-03-01T18:52:40.106960,1749633,1040,1656,739,-1272,-576,-456,10,160,-144
31526,2420,0,2023-03-01T18:52:40.112261,1749638,1040,1656,739,-1272,-576,-456,10,160,-144
31527,2421,0,2023-03-01T18:52:40.117379,1749642,1040,1656,739,-1272,-576,-456,10,160,-144
31528,2422,0,2023-03-01T18:52:40.122359,1749648,1040,1656,739,-1272,-576,-456,10,160,-144
31529,2423,0,2023-03-01T18:52:40.128024,1749653,1035,1655,749,-1274,-592,-459,16,158,-148
31530,2424,0,2023-03-01T18:52:40.134550,1749659,1035,1655,749,-1274,-592,-459,16,158,-148
31531,2425,0,2023-03-01T18:52:40.139935,1749665,1035,1655,749,-1274,-592,-459,16,158,-148
31532,2426,0,2023-03-01T18:52:40.145192,1749670,1035,1655,749,-1274,-592,-459,16,158,-148
31533,2427,0,2023-03-01T18:52:40.150102,1749676,1038,1655,742,-1275,-587,-457,16,158,-148
31534,2428,0,2023-03-01T18:52:40.156045,1749682,1038,1655,742,-1275,-587,-457,16,158,-148
31535,2429,0,2023-03-01T18:52:40.161133,1749686,1038,1655,742,-1275,-587,-457,16,158,-148
31536,2430,0,2023-03-01T18:52:40.166935,1749692,1035,1653,744,-1270,-582,-461,16,158,-148
31537,2431,0,2023-03-01T18:52:40.172327,1749698,1035,1653,744,-1270,-582,-461,16,158,-148
31538,2432,0,2023-03-01T18:52:40.177132,1749702,1035,1653,744,-1270,-582,-461,16,158,-148
31539,2433,0,2023-03-01T18:52:40.181760,1749707,1035,1653,744,-1270,-582,-461,16,158,-148
31540,2434,0,2023-03-01T18:52:40.187651,1749712,1037,1656,752,-1284,-589,-465,16,158,-148
31541,2435,0,2023-03-01T18:52:40.193156,1749719,1037,1656,752,-1284,-589,-465,16,158,-148
31542,2436,0,2023-03-01T18:52:40.198208,1749724,1037,1656,752,-1284,-589,-465,16,158,-148
31543,2437,0,2023-03-01T18:52:40.202889,1749728,1037,1656,752,-1284,-589,-465,16,158,-148
31544,2438,0,2023-03-01T18:52:40.208729,1749734,1038,1653,747,-1271,-585,-462,16,158,-148
31545,2439,0,2023-03-01T18:52:40.214218,1749740,1038,1653,747,-1271,-585,-462,16,158,-148
31546,2440,0,2023-03-01T18:52:40.219137,1749744,1038,1653,747,-1271,-585,-462,16,158,-148
31547,2441,0,2023-03-01T18:52:40.224983,1749750,1038,1653,747,-1271,-585,-462,16,158,-148
31548,2442,0,2023-03-01T18:52:40.229948,1749755,1035,1654,746,-1273,-583,-465,16,158,-148
31549,2443,0,2023-03-01T18:52:40.235355,1749761,1035,1654,746,-1273,-583,-465,16,158,-148
31550,2444,0,2023-03-01T18:52:40.241015,1749767,1035,1654,746,-1273,-583,-465,16,158,-148
31551,2445,0,2023-03-01T18:52:40.246778,1749772,1035,1652,749,-1274,-592,-464,16,158,-148
31552,2446,0,2023-03-01T18:52:40.252197,1749778,1035,1652,749,-1274,-592,-464,16,158,-148
31553,2447,0,2023-03-01T18:52:40.256940,1749782,1035,1652,749,-1274,-592,-464,16,158,-148
31554,2448,0,2023-03-01T18:52:40.262325,1749787,1035,1652,749,-1274,-592,-464,16,158,-148
31555,2449,0,2023-03-01T18:52:40.267835,1749793,1036,1653,750,-1272,-585,-462,5,163,-153
31556,2450,0,2023-03-01T18:52:40.273698,1749799,1036,1653,750,-1272,-585,-462,5,163,-153
31557,2451,0,2023-03-01T18:52:40.278925,1749805,1036,1653,750,-1272,-585,-462,5,163,-153
31558,2452,0,2023-03-01T18:52:40.284610,1749810,1036,1653,750,-1272,-585,-462,5,163,-153
31559,2453,0,2023-03-01T18:52:40.289444,1749815,1036,1647,751,-1269,-598,-466,5,163,-153
31560,2454,0,2023-03-01T18:52:40.295534,1749821,1036,1647,751,-1269,-598,-466,5,163,-153
31561,2455,0,2023-03-01T18:52:40.299904,1749825,1036,1647,751,-1269,-598,-466,5,163,-153
31562,2456,0,2023-03-01T18:52:40.305565,1749831,1036,1647,751,-1269,-598,-466,5,163,-153
31563,2457,0,2023-03-01T18:52:40.311088,1749836,1032,1651,753,-1266,-583,-455,5,163,-153
31564,2458,0,2023-03-01T18:52:40.317172,1749842,1032,1651,753,-1266,-583,-455,5,163,-153
31565,2459,0,2023-03-01T18:52:40.321996,1749848,1032,1651,753,-1266,-583,-455,5,163,-153
31566,2460,0,2023-03-01T18:52:40.327908,1749853,1031,1651,749,-1268,-592,-469,5,163,-153
31567,2461,0,2023-03-01T18:52:40.333740,1749859,1031,1651,749,-1268,-592,-469,5,163,-153
31568,2462,0,2023-03-01T18:52:40.339345,1749865,1031,1651,749,-1268,-592,-469,5,163,-153
31569,2463,0,2023-03-01T18:52:40.344630,1749870,1031,1651,749,-1268,-592,-469,5,163,-153
31570,2464,0,2023-03-01T18:52:40.351313,1749876,1031,1651,747,-1276,-587,-471,5,163,-153
31571,2465,0,2023-03-01T18:52:40.356771,1749882,1031,1651,747,-1276,-587,-471,5,163,-153
31572,2466,0,2023-03-01T18:52:40.361703,1749888,1031,1651,747,-1276,-587,-471,5,163,-153
31573,2467,0,2023-03-01T18:52:40.366941,1749893,1032,1652,754,-1277,-587,-471,5,163,-153
31574,2468,0,2023-03-01T18:52:40.372146,1749898,1032,1652,754,-1277,-587,-471,5,163,-153
31575,2469,0,2023-03-01T18:52:40.376813,1749902,1032,1652,754,-1277,-587,-471,5,163,-153
31576,2470,0,2023-03-01T18:52:40.382102,1749907,1032,1652,754,-1277,-587,-471,5,163,-153
31577,2471,0,2023-03-01T18:52:40.387416,1749913,1031,1650,759,-1277,-588,-471,14,164,-150
31578,2472,0,2023-03-01T18:52:40.393689,1749918,1031,1650,759,-1277,-588,-471,14,164,-150
31579,2473,0,2023-03-01T18:52:40.399395,1749924,1031,1650,759,-1277,-588,-471,14,164,-150
31580,2474,0,2023-03-01T18:52:40.404867,1749931,1031,1650,759,-1277,-588,-471,14,164,-150
31581,2475,0,2023-03-01T18:52:40.410127,1749936,1034,1647,754,-1265,-578,-466,14,164,-150
31582,2476,0,2023-03-01T18:52:40.415829,1749941,1034,1647,754,-1265,-578,-466,14,164,-150
31583,2477,0,2023-03-01T18:52:40.420900,1749946,1034,1647,754,-1265,-578,-466,14,164,-150
31584,2478,0,2023-03-01T18:52:40.426408,1749952,1034,1647,754,-1265,-578,-466,14,164,-150
31585,2479,0,2023-03-01T18:52:40.432109,1749957,1033,1648,757,-1283,-585,-465,14,164,-150
31586,2480,0,2023-03-01T18:52:40.438111,1749963,1033,1648,757,-1283,-585,-465,14,164,-150
31587,2481,0,2023-03-01T18:52:40.443025,1749968,1033,1648,757,-1283,-585,-465,14,164,-150
31588,2482,0,2023-03-01T18:52:40.448329,1749974,1034,1652,757,-1270,-591,-464,14,164,-150
31589,2483,0,2023-03-01T18:52:40.453657,1749979,1034,1652,757,-1270,-591,-464,14,164,-150
31590,2484,0,2023-03-01T18:52:40.459405,1749984,1034,1652,757,-1270,-591,-464,14,164,-150
31591,2485,0,2023-03-01T18:52:40.464922,1749990,1034,1652,757,-1270,-591,-464,14,164,-150
31592,2486,0,2023-03-01T18:52:40.470645,1749996,1030,1649,764,-1272,-587,-466,14,164,-150
31593,2487,0,2023-03-01T18:52:40.476218,1750001,1030,1649,764,-1272,-587,-466,14,164,-150
31594,2488,0,2023-03-01T18:52:40.481054,1750006,1030,1649,764,-1272,-587,-466,14,164,-150
31595,2489,0,2023-03-01T18:52:40.486685,1750012,1030,1649,764,-1272,-587,-466,14,164,-150
31596,2490,0,2023-03-01T18:52:40.491839,1750017,1027,1651,759,-1273,-590,-462,14,164,-150
31597,2491,0,2023-03-01T18:52:40.498339,1750024,1027,1651,759,-1273,-590,-462,14,164,-150
31598,2492,0,2023-03-01T18:52:40.503351,1750029,1027,1651,759,-1273,-590,-462,14,164,-150
31599,2493,0,2023-03-01T18:52:40.509098,1750034,1026,1645,765,-1273,-580,-463,14,164,-150
31600,2494,0,2023-03-01T18:52:40.514328,1750040,1026,1645,765,-1273,-580,-463,14,164,-150
31601,2495,0,2023-03-01T18:52:40.519768,1750045,1026,1645,765,-1273,-580,-463,14,164,-150
31602,2496,0,2023-03-01T18:52:40.525085,1750050,1026,1645,765,-1273,-580,-463,14,164,-150
31603,2497,0,2023-03-01T18:52:40.530172,1750055,1028,1649,761,-1287,-582,-469,11,169,-149
31604,2498,0,2023-03-01T18:52:40.536304,1750062,1028,1649,761,-1287,-582,-469,11,169,-149
31605,2499,0,2023-03-01T18:52:40.541222,1750067,1028,1649,761,-1287,-582,-469,11,169,-149
31606,2500,0,2023-03-01T18:52:40.546556,1750072,1028,1649,761,-1287,-582,-469,11,169,-149
31607,2501,0,2023-03-01T18:52:40.551813,1750077,1027,1646,760,-1252,-582,-453,11,169,-149
31608,2502,0,2023-03-01T18:52:40.558032,1750083,1027,1646,760,-1252,-582,-453,11,169,-149
31609,2503,0,2023-03-01T18:52:40.563184,1750088,1027,1646,760,-1252,-582,-453,11,169,-149
31610,2504,0,2023-03-01T18:52:40.569134,1750094,1025,1649,764,-1267,-590,-471,11,169,-149
31611,2505,0,2023-03-01T18:52:40.574740,1750099,1025,1649,764,-1267,-590,-471,11,169,-149
31612,2506,0,2023-03-01T18:52:40.580229,1750106,1025,1649,764,-1267,-590,-471,11,169,-149
31613,2507,0,2023-03-01T18:52:40.585730,1750111,1025,1649,764,-1267,-590,-471,11,169,-149
31614,2508,0,2023-03-01T18:52:40.590667,1750116,1025,1648,765,-1278,-590,-465,11,169,-149
31615,2509,0,2023-03-01T18:52:40.597039,1750122,1025,1648,765,-1278,-590,-465,11,169,-149
31616,2510,0,2023-03-01T18:52:40.602064,1750127,1025,1648,765,-1278,-590,-465,11,169,-149
31617,2511,0,2023-03-01T18:52:40.607362,1750132,1024,1645,768,-1278,-587,-463,11,169,-149
31618,2512,0,2023-03-01T18:52:40.612786,1750138,1024,1645,768,-1278,-587,-463,11,169,-149
31619,2513,0,2023-03-01T18:52:40.617597,1750142,1024,1645,768,-1278,-587,-463,11,169,-149
31620,2514,0,2023-03-01T18:52:40.622540,1750148,1024,1645,768,-1278,-587,-463,11,169,-149
31621,2515,0,2023-03-01T18:52:40.628092,1750154,1025,1645,768,-1277,-591,-465,11,169,-149
31622,2516,0,2023-03-01T18:52:40.634250,1750159,1025,1645,768,-1277,-591,-465,11,169,-149
31623,2517,0,2023-03-01T18:52:40.639643,1750165,1025,1645,768,-1277,-591,-465,11,169,-149
31624,2518,0,2023-03-01T18:52:40.645317,1750170,1025,1645,768,-1277,-591,-465,11,169,-149
31625,2519,0,2023-03-01T18:52:40.650467,1750175,1024,1643,772,-1261,-584,-461,14,162,-152
31626,2520,0,2023-03-01T18:52:40.656340,1750181,1024,1643,772,-1261,-584,-461,14,162,-152
31627,2521,0,2023-03-01T18:52:40.661330,1750187,1024,1643,772,-1261,-584,-461,14,162,-152
31628,2522,0,2023-03-01T18:52:40.666871,1750192,1024,1643,772,-1261,-584,-461,14,162,-152
31629,2523,0,2023-03-01T18:52:40.672006,1750197,1025,1645,766,-1262,-576,-457,14,162,-152
31630,2524,0,2023-03-01T18:52:40.678530,1750203,1025,1645,766,-1262,-576,-457,14,162,-152
31631,2525,0,2023-03-01T18:52:40.683865,1750209,1025,1645,766,-1262,-576,-457,14,162,-152
31632,2526,0,2023-03-01T18:52:40.689057,1750214,1024,1643,768,-1257,-586,-450,14,162,-152
31633,2527,0,2023-03-01T18:52:40.695053,1750220,1024,1643,768,-1257,-586,-450,14,162,-152
31634,2528,0,2023-03-01T18:52:40.700095,1750225,1024,1643,768,-1257,-586,-450,14,162,-152
31635,2529,0,2023-03-01T18:52:40.705512,1750231,1024,1643,768,-1257,-586,-450,14,162,-152
31636,2530,0,2023-03-01T18:52:40.710482,1750236,1024,1643,768,-1257,-586,-450,14,162,-152
31637,2531,0,2023-03-01T18:52:40.715404,1750241,1024,1643,768,-1257,-586,-450,14,162,-152
31638,2532,0,2023-03-01T18:52:40.720420,1750246,1024,1643,768,-1257,-586,-450,14,162,-152
31639,2533,0,2023-03-01T18:52:40.725333,1750250,1024,1643,768,-1257,-586,-450,14,162,-152
31640,2534,0,2023-03-01T18:52:40.730587,1750256,1024,1643,768,-1257,-586,-450,14,162,-152
31641,2535,0,2023-03-01T18:52:40.736934,1750262,1024,1643,768,-1257,-586,-450,14,162,-152
31642,2536,0,2023-03-01T18:52:40.741882,1750267,1024,1643,768,-1257,-586,-450,14,162,-152
31643,2537,0,2023-03-01T18:52:40.747155,1750273,1024,1643,768,-1257,-586,-450,14,162,-152
31644,2538,0,2023-03-01T18:52:40.752011,1750278,1022,1643,768,-1262,-580,-455,14,162,-152
31645,2539,0,2023-03-01T18:52:40.758687,1750283,1022,1643,768,-1262,-580,-455,14,162,-152
31646,2540,0,2023-03-01T18:52:40.763779,1750289,1022,1643,768,-1262,-580,-455,14,162,-152
31647,2541,0,2023-03-01T18:52:40.769111,1750295,1024,1638,774,-1269,-578,-464,3,167,-143
31648,2542,0,2023-03-01T18:52:40.774448,1750299,1024,1638,774,-1269,-578,-464,3,167,-143
31649,2543,0,2023-03-01T18:52:40.779746,1750305,1024,1638,774,-1269,-578,-464,3,167,-143
31650,2544,0,2023-03-01T18:52:40.784988,1750310,1024,1638,774,-1269,-578,-464,3,167,-143
31651,2545,0,2023-03-01T18:52:40.790120,1750316,1022,1641,776,-1266,-575,-457,3,167,-143
31652,2546,0,2023-03-01T18:52:40.796042,1750322,1022,1641,776,-1266,-575,-457,3,167,-143
31653,2547,0,2023-03-01T18:52:40.800989,1750326,1022,1641,776,-1266,-575,-457,3,167,-143
31654,2548,0,2023-03-01T18:52:40.806722,1750332,1022,1641,776,-1266,-575,-457,3,167,-143
31655,2549,0,2023-03-01T18:52:40.811487,1750337,1022,1641,769,-1268,-583,-452,3,167,-143
31656,2550,0,2023-03-01T18:52:40.817268,1750342,1022,1641,769,-1268,-583,-452,3,167,-143
31657,2551,0,2023-03-01T18:52:40.822126,1750347,1022,1641,769,-1268,-583,-452,3,167,-143
31658,2552,0,2023-03-01T18:52:40.827573,1750352,1022,1640,775,-1275,-583,-458,3,167,-143
31659,2553,0,2023-03-01T18:52:40.833309,1750359,1022,1640,775,-1275,-583,-458,3,167,-143
31660,2554,0,2023-03-01T18:52:40.838385,1750364,1022,1640,775,-1275,-583,-458,3,167,-143
31661,2555,0,2023-03-01T18:52:40.843372,1750369,1022,1640,775,-1275,-583,-458,3,167,-143
31662,2556,0,2023-03-01T18:52:40.848345,1750374,1023,1642,782,-1264,-579,-465,3,167,-143
31663,2557,0,2023-03-01T18:52:40.853627,1750379,1023,1642,782,-1264,-579,-465,3,167,-143
31664,2558,0,2023-03-01T18:52:40.858985,1750384,1023,1642,782,-1264,-579,-465,3,167,-143
31665,2559,0,2023-03-01T18:52:40.864144,1750389,1023,1642,782,-1264,-579,-465,3,167,-143
31666,2560,0,2023-03-01T18:52:40.869439,1750394,1024,1640,772,-1270,-588,-470,3,167,-143
31667,2561,0,2023-03-01T18:52:40.874558,1750401,1024,1640,772,-1270,-588,-470,3,167,-143
31668,2562,0,2023-03-01T18:52:40.880220,1750406,1024,1640,772,-1270,-588,-470,3,167,-143
31669,2563,0,2023-03-01T18:52:40.885608,1750411,1024,1640,772,-1270,-588,-470,3,167,-143
31670,2564,0,2023-03-01T18:52:40.890429,1750416,1021,1640,775,-1267,-586,-464,3,167,-143
31671,2565,0,2023-03-01T18:52:40.896558,1750422,1021,1640,775,-1267,-586,-464,3,167,-143
31672,2566,0,2023-03-01T18:52:40.902262,1750427,1021,1640,775,-1267,-586,-464,3,167,-143
31673,2567,0,2023-03-01T18:52:40.907424,1750433,1019,1638,780,-1277,-588,-465,3,167,-143
31674,2568,0,2023-03-01T18:52:40.913240,1750438,1019,1638,780,-1277,-588,-465,10,170,-156
31675,2569,0,2023-03-01T18:52:40.918347,1750444,1019,1638,780,-1277,-588,-465,10,170,-156
31676,2570,0,2023-03-01T18:52:40.923109,1750449,1019,1638,780,-1277,-588,-465,10,170,-156
31677,2571,0,2023-03-01T18:52:40.928651,1750454,1018,1637,777,-1282,-586,-465,10,170,-156
31678,2572,0,2023-03-01T18:52:40.934072,1750460,1018,1637,777,-1282,-586,-465,10,170,-156
31679,2573,0,2023-03-01T18:52:40.938874,1750464,1018,1637,777,-1282,-586,-465,10,170,-156
31680,2574,0,2023-03-01T18:52:40.943604,1750469,1018,1637,777,-1282,-586,-465,10,170,-156
31681,2575,0,2023-03-01T18:52:40.949382,1750474,1020,1639,778,-1280,-593,-472,10,170,-156
31682,2576,0,2023-03-01T18:52:40.954637,1750480,1020,1639,778,-1280,-593,-472,10,170,-156
31683,2577,0,2023-03-01T18:52:40.959874,1750486,1020,1639,778,-1280,-593,-472,10,170,-156
31684,2578,0,2023-03-01T18:52:40.965502,1750491,1020,1639,778,-1280,-593,-472,10,170,-156
31685,2579,0,2023-03-01T18:52:40.970102,1750496,1018,1638,777,-1267,-588,-463,10,170,-156
31686,2580,0,2023-03-01T18:52:40.976442,1750502,1018,1638,777,-1267,-588,-463,10,170,-156
31687,2581,0,2023-03-01T18:52:40.981641,1750507,1018,1638,777,-1267,-588,-463,10,170,-156
31688,2582,0,2023-03-01T18:52:40.987122,1750512,1018,1638,777,-1267,-588,-463,10,170,-156
31689,2583,0,2023-03-01T18:52:40.992044,1750517,1016,1633,784,-1268,-588,-469,10,170,-156
31690,2584,0,2023-03-01T18:52:40.998214,1750523,1016,1633,784,-1268,-588,-469,10,170,-156
31691,2585,0,2023-03-01T18:52:41.002758,1750529,1016,1633,784,-1268,-588,-469,10,170,-156
31692,2586,0,2023-03-01T18:52:41.007459,1750533,1016,1633,784,-1268,-588,-469,10,170,-156
31693,2587,0,2023-03-01T18:52:41.012325,1750538,1017,1639,781,-1272,-591,-466,10,170,-156
31694,2588,0,2023-03-01T18:52:41.017632,1750543,1017,1639,781,-1272,-591,-466,10,170,-156
31695,2589,0,2023-03-01T18:52:41.022756,1750548,1017,1639,781,-1272,-591,-466,10,170,-156
31696,2590,0,2023-03-01T18:52:41.028755,1750554,1017,1636,784,-1269,-584,-460,13,161,-149
31697,2591,0,2023-03-01T18:52:41.034696,1750560,1017,1636,784,-1269,-584,-460,13,161,-149
31698,2592,0,2023-03-01T18:52:41.039888,1750565,1017,1636,784,-1269,-584,-460,13,161,-149
31699,2593,0,2023-03-01T18:52:41.044757,1750569,1017,1636,784,-1269,-584,-460,13,161,-149
31700,2594,0,2023-03-01T18:52:41.049880,1750575,1015,1634,789,-1283,-591,-466,13,161,-149
31701,2595,0,2023-03-01T18:52:41.055184,1750581,1015,1634,789,-1283,-591,-466,13,161,-149
31702,2596,0,2023-03-01T18:52:41.060974,1750586,1015,1634,789,-1283,-591,-466,13,161,-149
31703,2597,0,2023-03-01T18:52:41.066603,1750592,1015,1634,789,-1283,-591,-466,13,161,-149
31704,2598,0,2023-03-01T18:52:41.071352,1750597,1015,1637,796,-1275,-583,-470,13,161,-149
31705,2599,0,2023-03-01T18:52:41.077427,1750602,1015,1637,796,-1275,-583,-470,13,161,-149
31706,2600,0,2023-03-01T18:52:41.082694,1750608,1015,1637,796,-1275,-583,-470,13,161,-149
31707,2601,0,2023-03-01T18:52:41.088971,1750614,1015,1637,796,-1275,-583,-470,13,161,-149
31708,2602,0,2023-03-01T18:52:41.094041,1750620,1015,1637,796,-1275,-583,-470,13,161,-149
31709,2603,0,2023-03-01T18:52:41.099099,1750625,1015,1637,796,-1275,-583,-470,13,161,-149
31710,2604,0,2023-03-01T18:52:41.104174,1750630,1015,1637,796,-1275,-583,-470,13,161,-149
31711,2605,0,2023-03-01T18:52:41.109248,1750634,1016,1637,785,-1266,-583,-459,13,161,-149
31712,2606,0,2023-03-01T18:52:41.114727,1750640,1016,1637,785,-1266,-583,-459,13,161,-149
31713,2607,0,2023-03-01T18:52:41.121930,1750646,1016,1637,785,-1266,-583,-459,13,161,-149
31714,2608,0,2023-03-01T18:52:41.127161,1750652,1016,1637,785,-1266,-583,-459,13,161,-149
31715,2609,0,2023-03-01T18:52:41.132245,1750658,1013,1632,786,-1268,-578,-464,13,161,-149
31716,2610,0,2023-03-01T18:52:41.138101,1750664,1013,1632,786,-1268,-578,-464,13,161,-149
31717,2611,0,2023-03-01T18:52:41.142874,1750668,1013,1632,786,-1268,-578,-464,13,161,-149
31718,2612,0,2023-03-01T18:52:41.148552,1750674,1015,1637,790,-1273,-581,-462,13,161,-149
31719,2613,0,2023-03-01T18:52:41.154236,1750679,1015,1637,790,-1273,-581,-462,13,161,-149
31720,2614,0,2023-03-01T18:52:41.159057,1750684,1015,1637,790,-1273,-581,-462,13,161,-149
31721,2615,0,2023-03-01T18:52:41.163967,1750689,1015,1637,790,-1273,-581,-462,13,161,-149
31722,2616,0,2023-03-01T18:52:41.169274,1750694,1014,1636,794,-1264,-585,-459,10,156,-148
31723,2617,0,2023-03-01T18:52:41.174474,1750700,1014,1636,794,-1264,-585,-459,10,156,-148
31724,2618,0,2023-03-01T18:52:41.180135,1750706,1014,1636,794,-1264,-585,-459,10,156,-148
31725,2619,0,2023-03-01T18:52:41.185507,1750711,1014,1636,794,-1264,-585,-459,10,156,-148
31726,2620,0,2023-03-01T18:52:41.190598,1750716,1014,1633,794,-1272,-584,-468,10,156,-148
31727,2621,0,2023-03-01T18:52:41.196774,1750722,1014,1633,794,-1272,-584,-468,10,156,-148
31728,2622,0,2023-03-01T18:52:41.201815,1750727,1014,1633,794,-1272,-584,-468,10,156,-148
31729,2623,0,2023-03-01T18:52:41.207234,1750732,1014,1633,794,-1272,-584,-468,10,156,-148
31730,2624,0,2023-03-01T18:52:41.212037,1750737,1009,1633,792,-1270,-587,-463,10,156,-148
31731,2625,0,2023-03-01T18:52:41.217762,1750744,1009,1633,792,-1270,-587,-463,10,156,-148
31732,2626,0,2023-03-01T18:52:41.222907,1750749,1009,1633,792,-1270,-587,-463,10,156,-148
31733,2627,0,2023-03-01T18:52:41.228782,1750754,1012,1631,795,-1272,-586,-468,10,156,-148
31734,2628,0,2023-03-01T18:52:41.234635,1750760,1012,1631,795,-1272,-586,-468,10,156,-148
31735,2629,0,2023-03-01T18:52:41.240051,1750765,1012,1631,795,-1272,-586,-468,10,156,-148
31736,2630,0,2023-03-01T18:52:41.245292,1750771,1012,1631,795,-1272,-586,-468,10,156,-148
31737,2631,0,2023-03-01T18:52:41.250060,1750775,1010,1633,796,-1271,-582,-463,10,156,-148
31738,2632,0,2023-03-01T18:52:41.255511,1750780,1010,1633,796,-1271,-582,-463,10,156,-148
31739,2633,0,2023-03-01T18:52:41.260226,1750786,1010,1633,796,-1271,-582,-463,10,156,-148
31740,2634,0,2023-03-01T18:52:41.265914,1750791,1010,1633,796,-1271,-582,-463,10,156,-148
31741,2635,0,2023-03-01T18:52:41.270691,1750796,1008,1629,793,-1262,-582,-460,10,156,-148
31742,2636,0,2023-03-01T18:52:41.276841,1750802,1008,1629,793,-1262,-582,-460,10,156,-148
31743,2637,0,2023-03-01T18:52:41.281750,1750807,1008,1629,793,-1262,-582,-460,10,156,-148
31744,2638,0,2023-03-01T18:52:41.287423,1750813,1008,1629,793,-1262,-582,-460,10,156,-148
31745,2639,0,2023-03-01T18:52:41.292588,1750818,1010,1630,798,-1267,-583,-457,8,158,-152
31746,2640,0,2023-03-01T18:52:41.298565,1750823,1010,1630,798,-1267,-583,-457,8,158,-152
31747,2641,0,2023-03-01T18:52:41.303410,1750829,1010,1630,798,-1267,-583,-457,8,158,-152
31748,2642,0,2023-03-01T18:52:41.309393,1750835,1010,1627,795,-1256,-579,-457,8,158,-152
31749,2643,0,2023-03-01T18:52:41.314695,1750840,1010,1627,795,-1256,-579,-457,8,158,-152
31750,2644,0,2023-03-01T18:52:41.320634,1750846,1010,1627,795,-1256,-579,-457,8,158,-152
31751,2645,0,2023-03-01T18:52:41.326128,1750851,1010,1627,795,-1256,-579,-457,8,158,-152
31752,2646,0,2023-03-01T18:52:41.330829,1750856,1010,1632,798,-1265,-589,-463,8,158,-152
31753,2647,0,2023-03-01T18:52:41.336750,1750862,1010,1632,798,-1265,-589,-463,8,158,-152
31754,2648,0,2023-03-01T18:52:41.341944,1750867,1010,1632,798,-1265,-589,-463,8,158,-152
31755,2649,0,2023-03-01T18:52:41.347574,1750873,1010,1632,798,-1265,-589,-463,8,158,-152
31756,2650,0,2023-03-01T18:52:41.352399,1750878,1008,1633,800,-1273,-585,-462,8,158,-152
31757,2651,0,2023-03-01T18:52:41.358479,1750884,1008,1633,800,-1273,-585,-462,8,158,-152
31758,2652,0,2023-03-01T18:52:41.363620,1750889,1008,1633,800,-1273,-585,-462,8,158,-152
31759,2653,0,2023-03-01T18:52:41.369258,1750894,1008,1629,795,-1266,-581,-463,8,158,-152
31760,2654,0,2023-03-01T18:52:41.374959,1750900,1008,1629,795,-1266,-581,-463,8,158,-152
31761,2655,0,2023-03-01T18:52:41.380419,1750905,1008,1629,795,-1266,-581,-463,8,158,-152
31762,2656,0,2023-03-01T18:52:41.385971,1750912,1008,1629,795,-1266,-581,-463,8,158,-152
31763,2657,0,2023-03-01T18:52:41.391033,1750917,1005,1629,798,-1268,-582,-462,8,158,-152
31764,2658,0,2023-03-01T18:52:41.396675,1750922,1005,1629,798,-1268,-582,-462,8,158,-152
31765,2659,0,2023-03-01T18:52:41.401389,1750927,1005,1629,798,-1268,-582,-462,8,158,-152
31766,2660,0,2023-03-01T18:52:41.407109,1750932,1005,1629,798,-1268,-582,-462,8,158,-152
31767,2661,0,2023-03-01T18:52:41.412187,1750937,1007,1630,800,-1256,-586,-464,8,158,-152
31768,2662,0,2023-03-01T18:52:41.417599,1750942,1007,1630,800,-1256,-586,-464,8,158,-152
31769,2663,0,2023-03-01T18:52:41.422744,1750948,1007,1630,800,-1256,-586,-464,8,158,-152
31770,2664,0,2023-03-01T18:52:41.428137,1750953,1007,1630,800,-1256,-586,-464,8,158,-152
31771,2665,0,2023-03-01T18:52:41.433060,1750959,1006,1627,802,-1260,-583,-455,8,158,-152
31772,2666,0,2023-03-01T18:52:41.439132,1750965,1006,1627,802,-1260,-583,-455,8,158,-152
31773,2667,0,2023-03-01T18:52:41.444385,1750970,1006,1627,802,-1260,-583,-455,8,158,-152
31774,2668,0,2023-03-01T18:52:41.450013,1750975,1003,1626,807,-1260,-583,-460,8,158,-152
31775,2669,0,2023-03-01T18:52:41.455453,1750981,1003,1626,807,-1260,-583,-460,8,158,-152
31776,2670,0,2023-03-01T18:52:41.461171,1750986,1003,1626,807,-1260,-583,-460,8,158,-152
31777,2671,0,2023-03-01T18:52:41.466563,1750992,1003,1626,807,-1260,-583,-460,8,158,-152
31778,2672,0,2023-03-01T18:52:41.471587,1750996,1006,1627,804,-1267,-587,-464,8,158,-152
31779,2673,0,2023-03-01T18:52:41.476497,1751002,1006,1627,804,-1267,-587,-464,8,158,-152
31780,2674,0,2023-03-01T18:52:41.481703,1751007,1006,1627,804,-1267,-587,-464,8,158,-152
31781,2675,0,2023-03-01T18:52:41.488144,1751014,1006,1626,801,-1266,-589,-463,8,158,-152
31782,2676,0,2023-03-01T18:52:41.493724,1751019,1006,1626,801,-1266,-589,-463,8,158,-152
31783,2677,0,2023-03-01T18:52:41.498849,1751024,1006,1626,801,-1266,-589,-463,8,158,-152
31784,2678,0,2023-03-01T18:52:41.503681,1751029,1006,1626,801,-1266,-589,-463,8,158,-152
31785,2679,0,2023-03-01T18:52:41.509037,1751034,1006,1627,807,-1260,-592,-456,8,158,-152
31786,2680,0,2023-03-01T18:52:41.514993,1751041,1006,1627,807,-1260,-592,-456,8,158,-152
31787,2681,0,2023-03-01T18:52:41.519548,1751045,1006,1627,807,-1260,-592,-456,8,158,-152
31788,2682,0,2023-03-01T18:52:41.524979,1751050,1006,1627,807,-1260,-592,-456,8,158,-152
31789,2683,0,2023-03-01T18:52:41.530088,1751055,1002,1626,805,-1261,-590,-455,8,158,-152
31790,2684,0,2023-03-01T18:52:41.535535,1751061,1002,1626,805,-1261,-590,-455,8,158,-152
31791,2685,0,2023-03-01T18:52:41.540574,1751066,1002,1626,805,-1261,-590,-455,8,158,-152
31792,2686,0,2023-03-01T18:52:41.546311,1751071,1002,1626,805,-1261,-590,-455,8,158,-152
31793,2687,0,2023-03-01T18:52:41.551546,1751076,1003,1623,809,-1260,-593,-456,20,164,-146
31794,2688,0,2023-03-01T18:52:41.557904,1751084,1003,1623,809,-1260,-593,-456,20,164,-146
31795,2689,0,2023-03-01T18:52:41.563055,1751089,1003,1623,809,-1260,-593,-456,20,164,-146
31796,2690,0,2023-03-01T18:52:41.568636,1751094,1000,1626,811,-1261,-592,-468,20,164,-146
31797,2691,0,2023-03-01T18:52:41.574177,1751100,1000,1626,811,-1261,-592,-468,20,164,-146
31798,2692,0,2023-03-01T18:52:41.578942,1751104,1000,1626,811,-1261,-592,-468,20,164,-146
31799,2693,0,2023-03-01T18:52:41.583841,1751109,1000,1626,811,-1261,-592,-468,20,164,-146
31800,2694,0,2023-03-01T18:52:41.589538,1751114,1007,1626,813,-1258,-581,-465,20,164,-146
31801,2695,0,2023-03-01T18:52:41.595208,1751120,1007,1626,813,-1258,-581,-465,20,164,-146
31802,2696,0,2023-03-01T18:52:41.599933,1751126,1007,1626,813,-1258,-581,-465,20,164,-146
31803,2697,0,2023-03-01T18:52:41.605232,1751131,1007,1626,813,-1258,-581,-465,20,164,-146
31804,2698,0,2023-03-01T18:52:41.609969,1751136,1006,1625,812,-1249,-579,-465,20,164,-146
31805,2699,0,2023-03-01T18:52:41.615321,1751141,1006,1625,812,-1249,-579,-465,20,164,-146
31806,2700,0,2023-03-01T18:52:41.621095,1751146,1006,1625,812,-1249,-579,-465,20,164,-146
31807,2701,0,2023-03-01T18:52:41.626833,1751152,1006,1625,812,-1249,-579,-465,20,164,-146
31808,2702,0,2023-03-01T18:52:41.631747,1751157,1004,1622,811,-1262,-582,-463,20,164,-146
31809,2703,0,2023-03-01T18:52:41.637888,1751163,1004,1622,811,-1262,-582,-463,20,164,-146
31810,2704,0,2023-03-01T18:52:41.643047,1751169,1004,1622,811,-1262,-582,-463,20,164,-146
31811,2705,0,2023-03-01T18:52:41.648628,1751174,1005,1622,806,-1259,-586,-452,20,164,-146
31812,2706,0,2023-03-01T18:52:41.654075,1751180,1005,1622,806,-1259,-586,-452,20,164,-146
31813,2707,0,2023-03-01T18:52:41.659224,1751185,1005,1622,806,-1259,-586,-452,20,164,-146
31814,2708,0,2023-03-01T18:52:41.664733,1751190,1005,1622,806,-1259,-586,-452,20,164,-146
31815,2709,0,2023-03-01T18:52:41.669440,1751195,1005,1625,807,-1257,-585,-468,21,171,-143
31816,2710,0,2023-03-01T18:52:41.674836,1751200,1005,1625,807,-1257,-585,-468,21,171,-143
31817,2711,0,2023-03-01T18:52:41.679696,1751205,1005,1625,807,-1257,-585,-468,21,171,-143
31818,2712,0,2023-03-01T18:52:41.685091,1751211,1005,1625,807,-1257,-585,-468,21,171,-143
31819,2713,0,2023-03-01T18:52:41.689939,1751216,1000,1620,818,-1255,-579,-455,21,171,-143
31820,2714,0,2023-03-01T18:52:41.695576,1751221,1000,1620,818,-1255,-579,-455,21,171,-143
31821,2715,0,2023-03-01T18:52:41.700591,1751226,1000,1620,818,-1255,-579,-455,21,171,-143
31822,2716,0,2023-03-01T18:52:41.706595,1751232,1000,1620,818,-1255,-579,-455,21,171,-143
31823,2717,0,2023-03-01T18:52:41.712019,1751237,1002,1623,818,-1267,-580,-464,21,171,-143
31824,2718,0,2023-03-01T18:52:41.717315,1751242,1002,1623,818,-1267,-580,-464,21,171,-143
31825,2719,0,2023-03-01T18:52:41.722155,1751247,1002,1623,818,-1267,-580,-464,21,171,-143
31826,2720,0,2023-03-01T18:52:41.727668,1751252,1002,1623,818,-1267,-580,-464,21,171,-143
31827,2721,0,2023-03-01T18:52:41.732563,1751258,1002,1620,816,-1252,-579,-452,21,171,-143
31828,2722,0,2023-03-01T18:52:41.738125,1751264,1002,1620,816,-1252,-579,-452,21,171,-143
31829,2723,0,2023-03-01T18:52:41.743008,1751268,1002,1620,816,-1252,-579,-452,21,171,-143
31830,2724,0,2023-03-01T18:52:41.748613,1751274,1002,1620,816,-1252,-579,-452,21,171,-143
31831,2725,0,2023-03-01T18:52:41.753286,1751279,1001,1618,819,-1255,-584,-459,21,171,-143
31832,2726,0,2023-03-01T18:52:41.758909,1751284,1001,1618,819,-1255,-584,-459,21,171,-143
31833,2727,0,2023-03-01T18:52:41.763621,1751289,1001,1618,819,-1255,-584,-459,21,171,-143
31834,2728,0,2023-03-01T18:52:41.769400,1751294,1002,1623,811,-1256,-582,-466,21,171,-143
31835,2729,0,2023-03-01T18:52:41.774807,1751301,1002,1623,811,-1256,-582,-466,21,171,-143
31836,2730,0,2023-03-01T18:52:41.780389,1751306,1002,1623,811,-1256,-582,-466,21,171,-143
31837,2731,0,2023-03-01T18:52:41.785890,1751311,1002,1623,811,-1256,-582,-466,21,171,-143
31838,2732,0,2023-03-01T18:52:41.790867,1751316,997,1623,822,-1259,-585,-463,21,171,-143
31839,2733,0,2023-03-01T18:52:41.797025,1751322,997,1623,822,-1259,-585,-463,21,171,-143
31840,2734,0,2023-03-01T18:52:41.802059,1751327,997,1623,822,-1259,-585,-463,21,171,-143
31841,2735,0,2023-03-01T18:52:41.807778,1751333,997,1623,822,-1259,-585,-463,21,171,-143
31842,2736,0,2023-03-01T18:52:41.812839,1751337,1001,1620,826,-1262,-590,-468,15,165,-149
31843,2737,0,2023-03-01T18:52:41.818952,1751345,1001,1620,826,-1262,-590,-468,15,165,-149
31844,2738,0,2023-03-01T18:52:41.823869,1751349,1001,1620,826,-1262,-590,-468,15,165,-149
31845,2739,0,2023-03-01T18:52:41.829304,1751355,997,1618,821,-1252,-586,-457,15,165,-149
31846,2740,0,2023-03-01T18:52:41.834559,1751360,997,1618,821,-1252,-586,-457,15,165,-149
31847,2741,0,2023-03-01T18:52:41.840163,1751364,997,1618,821,-1252,-586,-457,15,165,-149
31848,2742,0,2023-03-01T18:52:41.844917,1751370,997,1618,821,-1252,-586,-457,15,165,-149
31849,2743,0,2023-03-01T18:52:41.849368,1751375,996,1618,824,-1264,-584,-466,15,165,-149
31850,2744,0,2023-03-01T18:52:41.854811,1751380,996,1618,824,-1264,-584,-466,15,165,-149
31851,2745,0,2023-03-01T18:52:41.860196,1751386,996,1618,824,-1264,-584,-466,15,165,-149
31852,2746,0,2023-03-01T18:52:41.865996,1751391,996,1618,824,-1264,-584,-466,15,165,-149
31853,2747,0,2023-03-01T18:52:41.870962,1751396,996,1617,818,-1267,-589,-466,15,165,-149
31854,2748,0,2023-03-01T18:52:41.876634,1751402,996,1617,818,-1267,-589,-466,15,165,-149
31855,2749,0,2023-03-01T18:52:41.881236,1751407,996,1617,818,-1267,-589,-466,15,165,-149
31856,2750,0,2023-03-01T18:52:41.886586,1751412,996,1617,818,-1267,-589,-466,15,165,-149
31857,2751,0,2023-03-01T18:52:41.891402,1751416,995,1616,821,-1261,-586,-464,15,165,-149
31858,2752,0,2023-03-01T18:52:41.896923,1751422,995,1616,821,-1261,-586,-464,15,165,-149
31859,2753,0,2023-03-01T18:52:41.901917,1751428,995,1616,821,-1261,-586,-464,15,165,-149
31860,2754,0,2023-03-01T18:52:41.907420,1751433,995,1616,821,-1261,-586,-464,15,165,-149
31861,2755,0,2023-03-01T18:52:41.912108,1751438,994,1616,817,-1263,-595,-463,15,165,-149
31862,2756,0,2023-03-01T18:52:41.918177,1751443,994,1616,817,-1263,-595,-463,15,165,-149
31863,2757,0,2023-03-01T18:52:41.922959,1751448,994,1616,817,-1263,-595,-463,15,165,-149
31864,2758,0,2023-03-01T18:52:41.928155,1751453,994,1616,817,-1263,-595,-463,15,165,-149
31865,2759,0,2023-03-01T18:52:41.932792,1751458,993,1618,826,-1265,-583,-466,10,170,-152
31866,2760,0,2023-03-01T18:52:41.939148,1751464,993,1618,826,-1265,-583,-466,10,170,-152
31867,2761,0,2023-03-01T18:52:41.944039,1751470,993,1618,826,-1265,-583,-466,10,170,-152
31868,2762,0,2023-03-01T18:52:41.949361,1751475,991,1618,829,-1254,-579,-450,10,170,-152
31869,2763,0,2023-03-01T18:52:41.954975,1751481,991,1618,829,-1254,-579,-450,10,170,-152
31870,2764,0,2023-03-01T18:52:41.960524,1751486,991,1618,829,-1254,-579,-450,10,170,-152
31871,2765,0,2023-03-01T18:52:41.965949,1751491,991,1618,829,-1254,-579,-450,10,170,-152
31872,2766,0,2023-03-01T18:52:41.970665,1751496,991,1615,821,-1248,-576,-457,10,170,-152
31873,2767,0,2023-03-01T18:52:41.976444,1751502,991,1615,821,-1248,-576,-457,10,170,-152
31874,2768,0,2023-03-01T18:52:41.981821,1751507,991,1615,821,-1248,-576,-457,10,170,-152
31875,2769,0,2023-03-01T18:52:41.987101,1751513,991,1615,821,-1248,-576,-457,10,170,-152
31876,2770,0,2023-03-01T18:52:41.991818,1751518,996,1617,817,-1261,-583,-452,10,170,-152
31877,2771,0,2023-03-01T18:52:41.997607,1751523,996,1617,817,-1261,-583,-452,10,170,-152
31878,2772,0,2023-03-01T18:52:42.002410,1751528,996,1617,817,-1261,-583,-452,10,170,-152
31879,2773,0,2023-03-01T18:52:42.007741,1751533,996,1617,817,-1261,-583,-452,10,170,-152
31880,2774,0,2023-03-01T18:52:42.012737,1751538,993,1617,826,-1256,-584,-454,10,170,-152
31881,2775,0,2023-03-01T18:52:42.018673,1751544,993,1617,826,-1256,-584,-454,10,170,-152
31882,2776,0,2023-03-01T18:52:42.023928,1751549,993,1617,826,-1256,-584,-454,10,170,-152
31883,2777,0,2023-03-01T18:52:42.029508,1751555,994,1615,827,-1255,-583,-454,10,170,-152
31884,2778,0,2023-03-01T18:52:42.034926,1751561,994,1615,827,-1255,-583,-454,10,170,-152
31885,2779,0,2023-03-01T18:52:42.040449,1751566,994,1615,827,-1255,-583,-454,10,170,-152
31886,2780,0,2023-03-01T18:52:42.045797,1751571,994,1615,827,-1255,-583,-454,10,170,-152
31887,2781,0,2023-03-01T18:52:42.050801,1751576,993,1617,828,-1254,-587,-459,10,170,-152
31888,2782,0,2023-03-01T18:52:42.056563,1751582,993,1617,828,-1254,-587,-459,10,170,-152
31889,2783,0,2023-03-01T18:52:42.062813,1751586,993,1617,828,-1254,-587,-459,10,170,-152
31890,2784,0,2023-03-01T18:52:42.068471,1751593,993,1617,828,-1254,-587,-459,10,170,-152
31891,2785,0,2023-03-01T18:52:42.073144,1751599,992,1614,834,-1244,-582,-463,18,162,-144
31892,2786,0,2023-03-01T18:52:42.078948,1751605,992,1614,834,-1244,-582,-463,18,162,-144
31893,2787,0,2023-03-01T18:52:42.083451,1751609,992,1614,834,-1244,-582,-463,18,162,-144
31894,2788,0,2023-03-01T18:52:42.089189,1751614,992,1612,825,-1253,-593,-460,18,162,-144
31895,2789,0,2023-03-01T18:52:42.094685,1751620,992,1612,825,-1253,-593,-460,18,162,-144
31896,2790,0,2023-03-01T18:52:42.099412,1751625,992,1612,825,-1253,-593,-460,18,162,-144
31897,2791,0,2023-03-01T18:52:42.104951,1751630,992,1612,825,-1253,-593,-460,18,162,-144
31898,2792,0,2023-03-01T18:52:42.110057,1751635,991,1615,829,-1255,-594,-462,18,162,-144
31899,2793,0,2023-03-01T18:52:42.116671,1751642,991,1615,829,-1255,-594,-462,18,162,-144
31900,2794,0,2023-03-01T18:52:42.121643,1751647,991,1615,829,-1255,-594,-462,18,162,-144
31901,2795,0,2023-03-01T18:52:42.127011,1751652,991,1615,829,-1255,-594,-462,18,162,-144
31902,2796,0,2023-03-01T18:52:42.132162,1751657,991,1614,830,-1256,-591,-461,18,162,-144
31903,2797,0,2023-03-01T18:52:42.137704,1751663,991,1614,830,-1256,-591,-461,18,162,-144
31904,2798,0,2023-03-01T18:52:42.144121,1751669,991,1614,830,-1256,-591,-461,18,162,-144
31905,2799,0,2023-03-01T18:52:42.149993,1751675,992,1612,832,-1258,-580,-456,18,162,-144
31906,2800,0,2023-03-01T18:52:42.155643,1751681,992,1612,832,-1258,-580,-456,18,162,-144
31907,2801,0,2023-03-01T18:52:42.160725,1751686,992,1612,832,-1258,-580,-456,18,162,-144
31908,2802,0,2023-03-01T18:52:42.165860,1751691,992,1612,832,-1258,-580,-456,18,162,-144
31909,2803,0,2023-03-01T18:52:42.170734,1751696,992,1610,835,-1245,-587,-456,18,162,-144
31910,2804,0,2023-03-01T18:52:42.175848,1751701,992,1610,835,-1245,-587,-456,18,162,-144
31911,2805,0,2023-03-01T18:52:42.181677,1751707,992,1610,835,-1245,-587,-456,18,162,-144
31912,2806,0,2023-03-01T18:52:42.186456,1751712,992,1610,835,-1245,-587,-456,18,162,-144
31913,2807,0,2023-03-01T18:52:42.191400,1751716,990,1613,836,-1259,-592,-465,15,159,-151
31914,2808,0,2023-03-01T18:52:42.197257,1751723,990,1613,836,-1259,-592,-465,15,159,-151
31915,2809,0,2023-03-01T18:52:42.201719,1751728,990,1613,836,-1259,-592,-465,15,159,-151
31916,2810,0,2023-03-01T18:52:42.207314,1751733,990,1613,836,-1259,-592,-465,15,159,-151
31917,2811,0,2023-03-01T18:52:42.212317,1751738,989,1611,829,-1240,-584,-457,15,159,-151
31918,2812,0,2023-03-01T18:52:42.218526,1751744,989,1611,829,-1240,-584,-457,15,159,-151
31919,2813,0,2023-03-01T18:52:42.223774,1751749,989,1611,829,-1240,-584,-457,15,159,-151
31920,2814,0,2023-03-01T18:52:42.229603,1751755,988,1612,831,-1255,-585,-461,15,159,-151
31921,2815,0,2023-03-01T18:52:42.234860,1751760,988,1612,831,-1255,-585,-461,15,159,-151
31922,2816,0,2023-03-01T18:52:42.240432,1751766,988,1612,831,-1255,-585,-461,15,159,-151
31923,2817,0,2023-03-01T18:52:42.245850,1751772,988,1612,831,-1255,-585,-461,15,159,-151
31924,2818,0,2023-03-01T18:52:42.251799,1751776,989,1611,837,-1248,-583,-463,15,159,-151
31925,2819,0,2023-03-01T18:52:42.257180,1751783,989,1611,837,-1248,-583,-463,15,159,-151
31926,2820,0,2023-03-01T18:52:42.262024,1751787,989,1611,837,-1248,-583,-463,15,159,-151
31927,2821,0,2023-03-01T18:52:42.267114,1751792,989,1611,837,-1248,-583,-463,15,159,-151
31928,2822,0,2023-03-01T18:52:42.271986,1751797,986,1609,837,-1246,-599,-463,15,159,-151
31929,2823,0,2023-03-01T18:52:42.277744,1751803,986,1609,837,-1246,-599,-463,15,159,-151
31930,2824,0,2023-03-01T18:52:42.282536,1751808,986,1609,837,-1246,-599,-463,15,159,-151
31931,2825,0,2023-03-01T18:52:42.288096,1751814,986,1609,837,-1246,-599,-463,15,159,-151
31932,2826,0,2023-03-01T18:52:42.293147,1751819,989,1611,834,-1259,-593,-470,15,159,-151
31933,2827,0,2023-03-01T18:52:42.299030,1751825,989,1611,834,-1259,-593,-470,15,159,-151
31934,2828,0,2023-03-01T18:52:42.304097,1751829,989,1611,834,-1259,-593,-470,15,159,-151
31935,2829,0,2023-03-01T18:52:42.309744,1751835,986,1605,831,-1247,-586,-466,22,166,-148
31936,2830,0,2023-03-01T18:52:42.314875,1751840,986,1605,831,-1247,-586,-466,22,166,-148
31937,2831,0,2023-03-01T18:52:42.319694,1751845,986,1605,831,-1247,-586,-466,22,166,-148
31938,2832,0,2023-03-01T18:52:42.325039,1751851,986,1605,831,-1247,-586,-466,22,166,-148
31939,2833,0,2023-03-01T18:52:42.330391,1751856,989,1610,833,-1253,-593,-465,22,166,-148
31940,2834,0,2023-03-01T18:52:42.335594,1751861,989,1610,833,-1253,-593,-465,22,166,-148
31941,2835,0,2023-03-01T18:52:42.341234,1751867,989,1610,833,-1253,-593,-465,22,166,-148
31942,2836,0,2023-03-01T18:52:42.346545,1751872,989,1610,833,-1253,-593,-465,22,166,-148
31943,2837,0,2023-03-01T18:52:42.351382,1751877,984,1608,842,-1249,-590,-458,22,166,-148
31944,2838,0,2023-03-01T18:52:42.356563,1751882,984,1608,842,-1249,-590,-458,22,166,-148
31945,2839,0,2023-03-01T18:52:42.361229,1751886,984,1608,842,-1249,-590,-458,22,166,-148
31946,2840,0,2023-03-01T18:52:42.366423,1751891,984,1608,842,-1249,-590,-458,22,166,-148
31947,2841,0,2023-03-01T18:52:42.371078,1751897,985,1609,835,-1249,-593,-465,22,166,-148
31948,2842,0,2023-03-01T18:52:42.377190,1751903,985,1609,835,-1249,-593,-465,22,166,-148
31949,2843,0,2023-03-01T18:52:42.382063,1751907,985,1609,835,-1249,-593,-465,22,166,-148
31950,2844,0,2023-03-01T18:52:42.387745,1751913,985,1609,835,-1249,-593,-465,22,166,-148
31951,2845,0,2023-03-01T18:52:42.392520,1751918,985,1612,837,-1239,-590,-466,22,166,-148
31952,2846,0,2023-03-01T18:52:42.398198,1751923,985,1612,837,-1239,-590,-466,22,166,-148
31953,2847,0,2023-03-01T18:52:42.402880,1751928,985,1612,837,-1239,-590,-466,22,166,-148
31954,2848,0,2023-03-01T18:52:42.407485,1751932,985,1612,837,-1239,-590,-466,22,166,-148
31955,2849,0,2023-03-01T18:52:42.412646,1751938,986,1605,840,-1256,-594,-465,22,166,-148
31956,2850,0,2023-03-01T18:52:42.418888,1751945,986,1605,840,-1256,-594,-465,22,166,-148
31957,2851,0,2023-03-01T18:52:42.423622,1751949,986,1605,840,-1256,-594,-465,22,166,-148
31958,2852,0,2023-03-01T18:52:42.429212,1751955,986,1605,840,-1256,-594,-465,22,166,-148
31959,2853,0,2023-03-01T18:52:42.434421,1751959,985,1610,844,-1250,-583,-469,22,166,-148
31960,2854,0,2023-03-01T18:52:42.439728,1751965,985,1610,844,-1250,-583,-469,22,166,-148
31961,2855,0,2023-03-01T18:52:42.445253,1751970,985,1610,844,-1250,-583,-469,22,166,-148
31962,2856,0,2023-03-01T18:52:42.449977,1751975,983,1606,847,-1243,-582,-458,15,169,-153
31963,2857,0,2023-03-01T18:52:42.455540,1751981,983,1606,847,-1243,-582,-458,15,169,-153
31964,2858,0,2023-03-01T18:52:42.461160,1751987,983,1606,847,-1243,-582,-458,15,169,-153
31965,2859,0,2023-03-01T18:52:42.466917,1751992,983,1606,847,-1243,-582,-458,15,169,-153
31966,2860,0,2023-03-01T18:52:42.472200,1751997,987,1607,848,-1246,-587,-461,15,169,-153
31967,2861,0,2023-03-01T18:52:42.476997,1752002,987,1607,848,-1246,-587,-461,15,169,-153
31968,2862,0,2023-03-01T18:52:42.481847,1752007,987,1607,848,-1246,-587,-461,15,169,-153
31969,2863,0,2023-03-01T18:52:42.487457,1752013,987,1607,848,-1246,-587,-461,15,169,-153
31970,2864,0,2023-03-01T18:52:42.492302,1752017,983,1606,850,-1255,-593,-457,15,169,-153
31971,2865,0,2023-03-01T18:52:42.497750,1752023,983,1606,850,-1255,-593,-457,15,169,-153
31972,2866,0,2023-03-01T18:52:42.502778,1752028,983,1606,850,-1255,-593,-457,15,169,-153
31973,2867,0,2023-03-01T18:52:42.508379,1752034,983,1606,850,-1255,-593,-457,15,169,-153
31974,2868,0,2023-03-01T18:52:42.513274,1752039,985,1603,841,-1246,-579,-463,15,169,-153
31975,2869,0,2023-03-01T18:52:42.519331,1752045,985,1603,841,-1246,-579,-463,15,169,-153
31976,2870,0,2023-03-01T18:52:42.524486,1752049,985,1603,841,-1246,-579,-463,15,169,-153
31977,2871,0,2023-03-01T18:52:42.530640,1752055,984,1604,839,-1246,-577,-451,15,169,-153
31978,2872,0,2023-03-01T18:52:42.537198,1752062,984,1604,839,-1246,-577,-451,15,169,-153
31979,2873,0,2023-03-01T18:52:42.543019,1752069,984,1604,839,-1246,-577,-451,15,169,-153
31980,2874,0,2023-03-01T18:52:42.548464,1752074,984,1604,839,-1246,-577,-451,15,169,-153
31981,2875,0,2023-03-01T18:52:42.553475,1752079,980,1605,848,-1257,-587,-453,15,169,-153
31982,2876,0,2023-03-01T18:52:42.559086,1752084,980,1605,848,-1257,-587,-453,15,169,-153
31983,2877,0,2023-03-01T18:52:42.564129,1752089,980,1605,848,-1257,-587,-453,15,169,-153
31984,2878,0,2023-03-01T18:52:42.569717,1752095,981,1607,849,-1268,-585,-464,14,169,-153
31985,2879,0,2023-03-01T18:52:42.575376,1752100,981,1607,849,-1268,-585,-464,14,156,-140
31986,2880,0,2023-03-01T18:52:42.580855,1752107,981,1607,849,-1268,-585,-464,14,156,-140
31987,2881,0,2023-03-01T18:52:42.586739,1752112,981,1607,849,-1268,-585,-464,14,156,-140
31988,2882,0,2023-03-01T18:52:42.591923,1752117,980,1604,854,-1253,-585,-460,14,156,-140
31989,2883,0,2023-03-01T18:52:42.597358,1752123,980,1604,854,-1253,-585,-460,14,156,-140
31990,2884,0,2023-03-01T18:52:42.602198,1752128,980,1604,854,-1253,-585,-460,14,156,-140
31991,2885,0,2023-03-01T18:52:42.607596,1752133,980,1604,854,-1253,-585,-460,14,156,-140
31992,2886,0,2023-03-01T18:52:42.612336,1752137,981,1603,849,-1251,-577,-460,14,156,-140
31993,2887,0,2023-03-01T18:52:42.618432,1752143,981,1603,849,-1251,-577,-460,14,156,-140
31994,2888,0,2023-03-01T18:52:42.623669,1752148,981,1603,849,-1251,-577,-460,14,156,-140
31995,2889,0,2023-03-01T18:52:42.629033,1752155,981,1603,849,-1251,-577,-460,14,156,-140
31996,2890,0,2023-03-01T18:52:42.633875,1752159,984,1602,845,-1247,-580,-462,14,156,-140
31997,2891,0,2023-03-01T18:52:42.639751,1752165,984,1602,845,-1247,-580,-462,14,156,-140
31998,2892,0,2023-03-01T18:52:42.644705,1752170,984,1602,845,-1247,-580,-462,14,156,-140
31999,2893,0,2023-03-01T18:52:42.649908,1752175,980,1601,850,-1257,-588,-461,14,156,-140
32000,2894,0,2023-03-01T18:52:42.655688,1752181,980,1601,850,-1257,-588,-461,14,156,-140
32001,2895,0,2023-03-01T18:52:42.660354,1752185,980,1601,850,-1257,-588,-461,14,156,-140
32002,2896,0,2023-03-01T18:52:42.666465,1752192,980,1601,850,-1257,-588,-461,14,156,-140
32003,2897,0,2023-03-01T18:52:42.671399,1752197,979,1604,855,-1262,-589,-466,14,156,-140
32004,2898,0,2023-03-01T18:52:42.677963,1752203,979,1604,855,-1262,-589,-466,14,156,-140
32005,2899,0,2023-03-01T18:52:42.683303,1752208,979,1604,855,-1262,-589,-466,14,156,-140
32006,2900,0,2023-03-01T18:52:42.688732,1752214,979,1604,855,-1262,-589,-466,14,156,-140
32007,2901,0,2023-03-01T18:52:42.694437,1752220,975,1599,852,-1263,-588,-466,14,156,-140
32008,2902,0,2023-03-01T18:52:42.700533,1752226,975,1599,852,-1263,-588,-466,14,156,-140
32009,2903,0,2023-03-01T18:52:42.705944,1752231,975,1599,852,-1263,-588,-466,14,156,-140
32010,2904,0,2023-03-01T18:52:42.711112,1752237,977,1603,855,-1268,-587,-465,18,160,-144
32011,2905,0,2023-03-01T18:52:42.716595,1752242,977,1603,855,-1268,-587,-465,18,160,-144
32012,2906,0,2023-03-01T18:52:42.721521,1752247,977,1603,855,-1268,-587,-465,18,160,-144
32013,2907,0,2023-03-01T18:52:42.727196,1752253,977,1603,855,-1268,-587,-465,18,160,-144
32014,2908,0,2023-03-01T18:52:42.731931,1752257,976,1600,851,-1264,-586,-468,18,160,-144
32015,2909,0,2023-03-01T18:52:42.737270,1752262,976,1600,851,-1264,-586,-468,18,160,-144
32016,2910,0,2023-03-01T18:52:42.741986,1752267,976,1600,851,-1264,-586,-468,18,160,-144
32017,2911,0,2023-03-01T18:52:42.747606,1752273,976,1600,851,-1264,-586,-468,18,160,-144
32018,2912,0,2023-03-01T18:52:42.752498,1752278,974,1601,858,-1259,-588,-467,18,160,-144
32019,2913,0,2023-03-01T18:52:42.758898,1752284,974,1601,858,-1259,-588,-467,18,160,-144
32020,2914,0,2023-03-01T18:52:42.764052,1752289,974,1601,858,-1259,-588,-467,18,160,-144
32021,2915,0,2023-03-01T18:52:42.769669,1752295,974,1601,858,-1259,-588,-467,18,160,-144
32022,2916,0,2023-03-01T18:52:42.774748,1752300,972,1599,861,-1255,-580,-465,18,160,-144
32023,2917,0,2023-03-01T18:52:42.780538,1752306,972,1599,861,-1255,-580,-465,18,160,-144
32024,2918,0,2023-03-01T18:52:42.786891,1752312,972,1599,861,-1255,-580,-465,18,160,-144
32025,2919,0,2023-03-01T18:52:42.791996,1752317,974,1599,855,-1256,-593,-468,18,160,-144
32026,2920,0,2023-03-01T18:52:42.797892,1752324,974,1599,855,-1256,-593,-468,18,160,-144
32027,2921,0,2023-03-01T18:52:42.802715,1752328,974,1599,855,-1256,-593,-468,18,160,-144
32028,2922,0,2023-03-01T18:52:42.808619,1752334,974,1599,855,-1256,-593,-468,18,160,-144
32029,2923,0,2023-03-01T18:52:42.813410,1752339,975,1598,855,-1254,-589,-463,18,160,-144
32030,2924,0,2023-03-01T18:52:42.819343,1752345,975,1598,855,-1254,-589,-463,18,160,-144
32031,2925,0,2023-03-01T18:52:42.824134,1752349,975,1598,855,-1254,-589,-463,18,160,-144
32032,2926,0,2023-03-01T18:52:42.829675,1752355,975,1598,855,-1254,-589,-463,18,160,-144
32033,2927,0,2023-03-01T18:52:42.835052,1752360,974,1598,860,-1259,-585,-462,18,160,-142
32034,2928,0,2023-03-01T18:52:42.840914,1752367,974,1598,860,-1259,-585,-462,18,160,-142
32035,2929,0,2023-03-01T18:52:42.846459,1752372,974,1598,860,-1259,-585,-462,18,160,-142
32036,2930,0,2023-03-01T18:52:42.851590,1752377,974,1601,863,-1265,-598,-475,18,160,-142
32037,2931,0,2023-03-01T18:52:42.857678,1752383,974,1601,863,-1265,-598,-475,18,160,-142
32038,2932,0,2023-03-01T18:52:42.862757,1752388,974,1601,863,-1265,-598,-475,18,160,-142
32039,2933,0,2023-03-01T18:52:42.868319,1752393,974,1601,863,-1265,-598,-475,18,160,-142
32040,2934,0,2023-03-01T18:52:42.873060,1752398,970,1598,861,-1260,-598,-464,18,160,-142
32041,2935,0,2023-03-01T18:52:42.878737,1752403,970,1598,861,-1260,-598,-464,18,160,-142
32042,2936,0,2023-03-01T18:52:42.883654,1752409,970,1598,861,-1260,-598,-464,18,160,-142
32043,2937,0,2023-03-01T18:52:42.889204,1752415,970,1598,861,-1260,-598,-464,18,160,-142
32044,2938,0,2023-03-01T18:52:42.894174,1752420,975,1595,858,-1257,-596,-469,18,160,-142
32045,2939,0,2023-03-01T18:52:42.900114,1752426,975,1595,858,-1257,-596,-469,18,160,-142
32046,2940,0,2023-03-01T18:52:42.905936,1752431,975,1595,858,-1257,-596,-469,18,160,-142
32047,2941,0,2023-03-01T18:52:42.911053,1752436,970,1598,861,-1257,-579,-469,18,160,-142
32048,2942,0,2023-03-01T18:52:42.916528,1752442,970,1598,861,-1257,-579,-469,18,160,-142
32049,2943,0,2023-03-01T18:52:42.922148,1752448,970,1598,861,-1257,-579,-469,18,160,-142
32050,2944,0,2023-03-01T18:52:42.927573,1752453,970,1598,861,-1257,-579,-469,18,160,-142
32051,2945,0,2023-03-01T18:52:42.932435,1752458,969,1596,862,-1251,-591,-473,18,160,-142
32052,2946,0,2023-03-01T18:52:42.938334,1752464,969,1596,862,-1251,-591,-473,18,160,-142
32053,2947,0,2023-03-01T18:52:42.943394,1752469,969,1596,862,-1251,-591,-473,18,160,-142
32054,2948,0,2023-03-01T18:52:42.948899,1752474,969,1596,862,-1251,-591,-473,18,160,-142
32055,2949,0,2023-03-01T18:52:42.953719,1752479,970,1597,862,-1259,-589,-471,18,160,-142
32056,2950,0,2023-03-01T18:52:42.959539,1752485,970,1597,862,-1259,-589,-471,18,160,-142
32057,2951,0,2023-03-01T18:52:42.964605,1752491,970,1597,862,-1259,-589,-471,18,160,-142
32058,2952,0,2023-03-01T18:52:42.970458,1752496,969,1592,866,-1247,-592,-463,18,160,-142
32059,2953,0,2023-03-01T18:52:42.975788,1752501,969,1592,866,-1247,-592,-463,16,168,-142
32060,2954,0,2023-03-01T18:52:42.980601,1752506,969,1592,866,-1247,-592,-463,16,168,-142
32061,2955,0,2023-03-01T18:52:42.985975,1752511,969,1592,866,-1247,-592,-463,16,168,-142
32062,2956,0,2023-03-01T18:52:42.991006,1752516,971,1597,870,-1254,-589,-471,16,168,-142
32063,2957,0,2023-03-01T18:52:42.996695,1752522,971,1597,870,-1254,-589,-471,16,168,-142
32064,2958,0,2023-03-01T18:52:43.001559,1752527,971,1597,870,-1254,-589,-471,16,168,-142
32065,2959,0,2023-03-01T18:52:43.006501,1752531,971,1597,870,-1254,-589,-471,16,168,-142
32066,2960,0,2023-03-01T18:52:43.011833,1752537,971,1596,867,-1249,-588,-467,16,168,-142
32067,2961,0,2023-03-01T18:52:43.017812,1752543,971,1596,867,-1249,-588,-467,16,168,-142
32068,2962,0,2023-03-01T18:52:43.023194,1752548,971,1596,867,-1249,-588,-467,16,168,-142
32069,2963,0,2023-03-01T18:52:43.028509,1752554,971,1596,867,-1249,-588,-467,16,168,-142
32070,2964,0,2023-03-01T18:52:43.033729,1752559,969,1594,868,-1255,-581,-469,16,168,-142
32071,2965,0,2023-03-01T18:52:43.039165,1752564,969,1594,868,-1255,-581,-469,16,168,-142
32072,2966,0,2023-03-01T18:52:43.044173,1752569,969,1594,868,-1255,-581,-469,16,168,-142
32073,2967,0,2023-03-01T18:52:43.049696,1752576,969,1594,868,-1255,-581,-469,16,168,-142
32074,2968,0,2023-03-01T18:52:43.055194,1752581,966,1595,871,-1251,-581,-465,16,168,-142
32075,2969,0,2023-03-01T18:52:43.061355,1752587,966,1595,871,-1251,-581,-465,16,168,-142
32076,2970,0,2023-03-01T18:52:43.066215,1752591,966,1595,871,-1251,-581,-465,16,168,-142
32077,2971,0,2023-03-01T18:52:43.071054,1752597,964,1593,869,-1251,-589,-466,16,168,-142
32078,2972,0,2023-03-01T18:52:43.076571,1752602,964,1593,869,-1251,-589,-466,16,168,-142
32079,2973,0,2023-03-01T18:52:43.081614,1752607,964,1593,869,-1251,-589,-466,16,168,-142
32080,2974,0,2023-03-01T18:52:43.087615,1752613,964,1593,869,-1251,-589,-466,16,168,-142
32081,2975,0,2023-03-01T18:52:43.092573,1752617,967,1591,870,-1254,-590,-462,11,173,-149
32082,2976,0,2023-03-01T18:52:43.098760,1752624,967,1591,870,-1254,-590,-462,11,173,-149
32083,2977,0,2023-03-01T18:52:43.104012,1752630,967,1591,870,-1254,-590,-462,11,173,-149
32084,2978,0,2023-03-01T18:52:43.110163,1752635,967,1591,870,-1254,-590,-462,11,173,-149
32085,2979,0,2023-03-01T18:52:43.115021,1752640,968,1594,877,-1254,-588,-460,11,173,-149
32086,2980,0,2023-03-01T18:52:43.121010,1752646,968,1594,877,-1254,-588,-460,11,173,-149
32087,2981,0,2023-03-01T18:52:43.127433,1752652,968,1594,877,-1254,-588,-460,11,173,-149
32088,2982,0,2023-03-01T18:52:43.132479,1752657,967,1591,867,-1251,-594,-462,11,173,-149
32089,2983,0,2023-03-01T18:52:43.138750,1752664,967,1591,867,-1251,-594,-462,11,173,-149
32090,2984,0,2023-03-01T18:52:43.143806,1752669,967,1591,867,-1251,-594,-462,11,173,-149
32091,2985,0,2023-03-01T18:52:43.149987,1752675,967,1591,867,-1251,-594,-462,11,173,-149
32092,2986,0,2023-03-01T18:52:43.154651,1752680,969,1589,874,-1248,-580,-460,11,173,-149
32093,2987,0,2023-03-01T18:52:43.160362,1752686,969,1589,874,-1248,-580,-460,11,173,-149
32094,2988,0,2023-03-01T18:52:43.166202,1752691,969,1589,874,-1248,-580,-460,11,173,-149
32095,2989,0,2023-03-01T18:52:43.171135,1752696,967,1594,867,-1253,-582,-460,11,173,-149
32096,2990,0,2023-03-01T18:52:43.176678,1752701,967,1594,867,-1253,-582,-460,11,173,-149
32097,2991,0,2023-03-01T18:52:43.181479,1752707,967,1594,867,-1253,-582,-460,11,173,-149
32098,2992,0,2023-03-01T18:52:43.187152,1752713,967,1594,867,-1253,-582,-460,11,173,-149
32099,2993,0,2023-03-01T18:52:43.192108,1752718,970,1591,875,-1252,-572,-460,11,173,-149
32100,2994,0,2023-03-01T18:52:43.198016,1752723,970,1591,875,-1252,-572,-460,11,173,-149
32101,2995,0,2023-03-01T18:52:43.203017,1752728,970,1591,875,-1252,-572,-460,11,173,-149
32102,2996,0,2023-03-01T18:52:43.208442,1752734,970,1591,875,-1252,-572,-460,11,173,-149
32103,2997,0,2023-03-01T18:52:43.213427,1752738,965,1588,878,-1247,-575,-452,21,173,-143
32104,2998,0,2023-03-01T18:52:43.219677,1752745,965,1588,878,-1247,-575,-452,21,173,-143
32105,2999,0,2023-03-01T18:52:43.224493,1752750,965,1588,878,-1247,-575,-452,21,173,-143
32106,3000,0,2023-03-01T18:52:43.230272,1752756,965,1588,878,-1247,-575,-452,21,173,-143
32107,3001,0,2023-03-01T18:52:43.235446,1752761,965,1586,874,-1248,-581,-463,21,173,-143
32108,3002,0,2023-03-01T18:52:43.241760,1752767,965,1586,874,-1248,-581,-463,21,173,-143
32109,3003,0,2023-03-01T18:52:43.247293,1752773,965,1586,874,-1248,-581,-463,21,173,-143
32110,3004,0,2023-03-01T18:52:43.252441,1752778,964,1588,876,-1240,-577,-466,21,173,-143
32111,3005,0,2023-03-01T18:52:43.257692,1752783,964,1588,876,-1240,-577,-466,21,173,-143
32112,3006,0,2023-03-01T18:52:43.262472,1752787,964,1588,876,-1240,-577,-466,21,173,-143
32113,3007,0,2023-03-01T18:52:43.267980,1752794,964,1588,876,-1240,-577,-466,21,173,-143
32114,3008,0,2023-03-01T18:52:43.273017,1752799,966,1590,880,-1251,-584,-464,21,173,-143
32115,3009,0,2023-03-01T18:52:43.279422,1752805,966,1590,880,-1251,-584,-464,21,173,-143
32116,3010,0,2023-03-01T18:52:43.284275,1752810,966,1590,880,-1251,-584,-464,21,173,-143
32117,3011,0,2023-03-01T18:52:43.289729,1752815,966,1590,880,-1251,-584,-464,21,173,-143
32118,3012,0,2023-03-01T18:52:43.294532,1752820,961,1588,879,-1251,-588,-456,21,173,-143
32119,3013,0,2023-03-01T18:52:43.300160,1752825,961,1588,879,-1251,-588,-456,21,173,-143
32120,3014,0,2023-03-01T18:52:43.305455,1752830,961,1588,879,-1251,-588,-456,21,173,-143
32121,3015,0,2023-03-01T18:52:43.310273,1752836,961,1588,879,-1251,-588,-456,21,173,-143
32122,3016,0,2023-03-01T18:52:43.314857,1752841,961,1588,876,-1237,-582,-462,21,173,-143
32123,3017,0,2023-03-01T18:52:43.320371,1752846,961,1588,876,-1237,-582,-462,21,173,-143
32124,3018,0,2023-03-01T18:52:43.326152,1752851,961,1588,876,-1237,-582,-462,21,173,-143
32125,3019,0,2023-03-01T18:52:43.331007,1752856,965,1587,879,-1245,-586,-458,21,173,-143
32126,3020,0,2023-03-01T18:52:43.337009,1752862,965,1587,879,-1245,-586,-458,21,173,-143
32127,3021,0,2023-03-01T18:52:43.342488,1752868,965,1587,879,-1245,-586,-458,21,173,-143
32128,3022,0,2023-03-01T18:52:43.348127,1752873,965,1587,879,-1245,-586,-458,21,173,-143
32129,3023,0,2023-03-01T18:52:43.352704,1752879,958,1587,882,-1240,-578,-452,20,164,-154
32130,3024,0,2023-03-01T18:52:43.358176,1752884,958,1587,882,-1240,-578,-452,20,164,-154
32131,3025,0,2023-03-01T18:52:43.363254,1752889,958,1587,882,-1240,-578,-452,20,164,-154
32132,3026,0,2023-03-01T18:52:43.368984,1752894,958,1587,882,-1240,-578,-452,20,164,-154
32133,3027,0,2023-03-01T18:52:43.373886,1752899,958,1589,878,-1245,-594,-458,20,164,-154
32134,3028,0,2023-03-01T18:52:43.378710,1752904,958,1589,878,-1245,-594,-458,20,164,-154
32135,3029,0,2023-03-01T18:52:43.383713,1752909,958,1589,878,-1245,-594,-458,20,164,-154
32136,3030,0,2023-03-01T18:52:43.389278,1752914,958,1589,878,-1245,-594,-458,20,164,-154
32137,3031,0,2023-03-01T18:52:43.394221,1752920,963,1586,885,-1253,-581,-457,20,164,-154
32138,3032,0,2023-03-01T18:52:43.400179,1752926,963,1586,885,-1253,-581,-457,20,164,-154
32139,3033,0,2023-03-01T18:52:43.405755,1752931,963,1586,885,-1253,-581,-457,20,164,-154
32140,3034,0,2023-03-01T18:52:43.410463,1752936,963,1585,885,-1240,-582,-467,20,164,-154
32141,3035,0,2023-03-01T18:52:43.416144,1752941,963,1585,885,-1240,-582,-467,20,164,-154
32142,3036,0,2023-03-01T18:52:43.420932,1752946,963,1585,885,-1240,-582,-467,20,164,-154
32143,3037,0,2023-03-01T18:52:43.425916,1752951,963,1585,885,-1240,-582,-467,20,164,-154
32144,3038,0,2023-03-01T18:52:43.431018,1752956,960,1588,884,-1245,-571,-459,20,164,-154
32145,3039,0,2023-03-01T18:52:43.436718,1752963,960,1588,884,-1245,-571,-459,20,164,-154
32146,3040,0,2023-03-01T18:52:43.441525,1752967,960,1588,884,-1245,-571,-459,20,164,-154
32147,3041,0,2023-03-01T18:52:43.446889,1752973,960,1588,884,-1245,-571,-459,20,164,-154
32148,3042,0,2023-03-01T18:52:43.452068,1752978,957,1588,887,-1238,-580,-451,20,164,-154
32149,3043,0,2023-03-01T18:52:43.458041,1752983,957,1588,887,-1238,-580,-451,20,164,-154
32150,3044,0,2023-03-01T18:52:43.462928,1752988,957,1588,887,-1238,-580,-451,20,164,-154
32151,3045,0,2023-03-01T18:52:43.468682,1752994,957,1588,887,-1238,-580,-451,20,164,-154
32152,3046,0,2023-03-01T18:52:43.473412,1752999,959,1582,883,-1246,-587,-454,19,167,-143
32153,3047,0,2023-03-01T18:52:43.479228,1753005,959,1582,883,-1246,-587,-454,19,167,-143
32154,3048,0,2023-03-01T18:52:43.484132,1753010,959,1582,883,-1246,-587,-454,19,167,-143
32155,3049,0,2023-03-01T18:52:43.489609,1753015,959,1582,883,-1246,-587,-454,19,167,-143
32156,3050,0,2023-03-01T18:52:43.494740,1753020,961,1587,889,-1240,-586,-454,19,167,-143
32157,3051,0,2023-03-01T18:52:43.501020,1753026,961,1587,889,-1240,-586,-454,19,167,-143
32158,3052,0,2023-03-01T18:52:43.507173,1753032,961,1587,889,-1240,-586,-454,19,167,-143
32159,3053,0,2023-03-01T18:52:43.512208,1753037,956,1585,885,-1247,-587,-462,19,167,-143
32160,3054,0,2023-03-01T18:52:43.517494,1753043,956,1585,885,-1247,-587,-462,19,167,-143
32161,3055,0,2023-03-01T18:52:43.522298,1753048,956,1585,885,-1247,-587,-462,19,167,-143
32162,3056,0,2023-03-01T18:52:43.527722,1753053,956,1585,885,-1247,-587,-462,19,167,-143
32163,3057,0,2023-03-01T18:52:43.533104,1753059,960,1586,889,-1242,-569,-456,19,167,-143
32164,3058,0,2023-03-01T18:52:43.540720,1753066,960,1586,889,-1242,-569,-456,19,167,-143
32165,3059,0,2023-03-01T18:52:43.546088,1753072,960,1586,889,-1242,-569,-456,19,167,-143
32166,3060,0,2023-03-01T18:52:43.551144,1753076,958,1580,891,-1231,-581,-461,19,167,-143
32167,3061,0,2023-03-01T18:52:43.557068,1753082,958,1580,891,-1231,-581,-461,19,167,-143
32168,3062,0,2023-03-01T18:52:43.562567,1753088,958,1580,891,-1231,-581,-461,19,167,-143
32169,3063,0,2023-03-01T18:52:43.568369,1753094,958,1580,891,-1231,-581,-461,19,167,-143
32170,3064,0,2023-03-01T18:52:43.573312,1753099,958,1583,892,-1241,-577,-460,19,167,-143
32171,3065,0,2023-03-01T18:52:43.578996,1753105,958,1583,892,-1241,-577,-460,19,167,-143
32172,3066,0,2023-03-01T18:52:43.583962,1753109,958,1583,892,-1241,-577,-460,19,167,-143
32173,3067,0,2023-03-01T18:52:43.589537,1753115,958,1583,892,-1241,-577,-460,19,167,-143
32174,3068,0,2023-03-01T18:52:43.594712,1753120,957,1581,885,-1237,-582,-452,19,167,-143
32175,3069,0,2023-03-01T18:52:43.599731,1753125,957,1581,885,-1237,-582,-452,19,167,-143
32176,3070,0,2023-03-01T18:52:43.604654,1753131,957,1581,885,-1237,-582,-452,19,167,-143
32177,3071,0,2023-03-01T18:52:43.609978,1753136,957,1581,885,-1237,-582,-452,19,167,-143
32178,3072,0,2023-03-01T18:52:43.614847,1753140,955,1581,891,-1251,-582,-460,15,167,-145
32179,3073,0,2023-03-01T18:52:43.619466,1753145,955,1581,891,-1251,-582,-460,15,167,-145
32180,3074,0,2023-03-01T18:52:43.624834,1753150,955,1581,891,-1251,-582,-460,15,167,-145
32181,3075,0,2023-03-01T18:52:43.630446,1753156,955,1581,891,-1251,-582,-460,15,167,-145
32182,3076,0,2023-03-01T18:52:43.635254,1753160,956,1580,890,-1235,-587,-453,15,167,-145
32183,3077,0,2023-03-01T18:52:43.641300,1753166,956,1580,890,-1235,-587,-453,15,167,-145
32184,3078,0,2023-03-01T18:52:43.647128,1753172,956,1580,890,-1235,-587,-453,15,167,-145
32185,3079,0,2023-03-01T18:52:43.652137,1753178,955,1583,897,-1252,-589,-467,15,167,-145
32186,3080,0,2023-03-01T18:52:43.657810,1753183,955,1583,897,-1252,-589,-467,15,167,-145
32187,3081,0,2023-03-01T18:52:43.663168,1753189,955,1583,897,-1252,-589,-467,15,167,-145
32188,3082,0,2023-03-01T18:52:43.669711,1753194,955,1583,897,-1252,-589,-467,15,167,-145
32189,3083,0,2023-03-01T18:52:43.675079,1753200,955,1577,887,-1244,-583,-460,15,167,-145
32190,3084,0,2023-03-01T18:52:43.682004,1753207,955,1577,887,-1244,-583,-460,15,167,-145
32191,3085,0,2023-03-01T18:52:43.687137,1753212,955,1577,887,-1244,-583,-460,15,167,-145
32192,3086,0,2023-03-01T18:52:43.693078,1753218,952,1579,887,-1237,-587,-461,15,167,-145
32193,3087,0,2023-03-01T18:52:43.699511,1753225,952,1579,887,-1237,-587,-461,15,167,-145
32194,3088,0,2023-03-01T18:52:43.705315,1753231,952,1579,887,-1237,-587,-461,15,167,-145
32195,3089,0,2023-03-01T18:52:43.711273,1753237,952,1580,893,-1249,-592,-470,15,167,-145
32196,3090,0,2023-03-01T18:52:43.716940,1753242,952,1580,893,-1249,-592,-470,15,167,-145
32197,3091,0,2023-03-01T18:52:43.723052,1753247,952,1580,893,-1249,-592,-470,15,167,-145
32198,3092,0,2023-03-01T18:52:43.729903,1753255,952,1580,893,-1249,-592,-470,15,167,-145
32199,3093,0,2023-03-01T18:52:43.735091,1753261,954,1580,895,-1241,-587,-464,16,168,-146
