,Unnamed: 0,imu,server_time,arduino_time,ax,ay,az,gx,gy,gz,mx,my,mz
32200,3094,0,2023-03-01T18:52:43.740477,1753266,954,1580,895,-1241,-587,-464,16,168,-146
32201,3095,0,2023-03-01T18:52:43.746034,1753272,954,1580,895,-1241,-587,-464,16,168,-146
32202,3096,0,2023-03-01T18:52:43.751117,1753276,954,1580,895,-1241,-587,-464,16,168,-146
32203,3097,0,2023-03-01T18:52:43.755957,1753281,950,1582,899,-1251,-587,-470,16,168,-146
32204,3098,0,2023-03-01T18:52:43.762172,1753287,950,1582,899,-1251,-587,-470,16,168,-146
32205,3099,0,2023-03-01T18:52:43.768087,1753293,950,1582,899,-1251,-587,-470,16,168,-146
32206,3100,0,2023-03-01T18:52:43.773104,1753298,952,1579,899,-1252,-587,-471,16,168,-146
32207,3101,0,2023-03-01T18:52:43.779107,1753305,952,1579,899,-1252,-587,-471,16,168,-146
32208,3102,0,2023-03-01T18:52:43.784120,1753310,952,1579,899,-1252,-587,-471,16,168,-146
32209,3103,0,2023-03-01T18:52:43.789914,1753316,952,1579,899,-1252,-587,-471,16,168,-146
32210,3104,0,2023-03-01T18:52:43.794772,1753320,953,1577,896,-1241,-581,-468,16,168,-146
32211,3105,0,2023-03-01T18:52:43.800843,1753326,953,1577,896,-1241,-581,-468,16,168,-146
32212,3106,0,2023-03-01T18:52:43.806124,1753331,953,1577,896,-1241,-581,-468,16,168,-146
32213,3107,0,2023-03-01T18:52:43.811557,1753336,951,1577,898,-1245,-583,-465,16,168,-146
32214,3108,0,2023-03-01T18:52:43.817475,1753342,951,1577,898,-1245,-583,-465,16,168,-146
32215,3109,0,2023-03-01T18:52:43.823130,1753349,951,1577,898,-1245,-583,-465,16,168,-146
32216,3110,0,2023-03-01T18:52:43.828083,1753354,951,1577,898,-1245,-583,-465,16,168,-146
32217,3111,0,2023-03-01T18:52:43.833333,1753359,948,1578,894,-1241,-590,-468,16,168,-146
32218,3112,0,2023-03-01T18:52:43.839369,1753365,948,1578,894,-1241,-590,-468,16,168,-146
32219,3113,0,2023-03-01T18:52:43.844009,1753369,948,1578,894,-1241,-590,-468,16,168,-146
32220,3114,0,2023-03-01T18:52:43.849229,1753375,948,1578,894,-1241,-590,-468,16,168,-146
32221,3115,0,2023-03-01T18:52:43.854208,1753379,948,1577,894,-1236,-591,-471,16,168,-146
32222,3116,0,2023-03-01T18:52:43.860558,1753385,948,1577,894,-1236,-591,-471,16,168,-146
32223,3117,0,2023-03-01T18:52:43.865718,1753391,948,1577,894,-1236,-591,-471,16,168,-146
32224,3118,0,2023-03-01T18:52:43.871008,1753397,948,1577,894,-1236,-591,-471,16,168,-146
32225,3119,0,2023-03-01T18:52:43.876731,1753401,951,1576,897,-1240,-582,-466,16,166,-150
32226,3120,0,2023-03-01T18:52:43.882179,1753408,951,1576,897,-1240,-582,-466,16,166,-150
32227,3121,0,2023-03-01T18:52:43.887970,1753413,951,1576,897,-1240,-582,-466,16,166,-150
32228,3122,0,2023-03-01T18:52:43.893224,1753418,948,1571,892,-1245,-580,-467,16,166,-150
32229,3123,0,2023-03-01T18:52:43.899069,1753424,948,1571,892,-1245,-580,-467,16,166,-150
32230,3124,0,2023-03-01T18:52:43.903956,1753430,948,1571,892,-1245,-580,-467,16,166,-150
32231,3125,0,2023-03-01T18:52:43.909219,1753435,948,1571,892,-1245,-580,-467,16,166,-150
32232,3126,0,2023-03-01T18:52:43.913893,1753440,951,1574,895,-1248,-585,-467,16,166,-150
32233,3127,0,2023-03-01T18:52:43.919574,1753445,951,1574,895,-1248,-585,-467,16,166,-150
32234,3128,0,2023-03-01T18:52:43.924318,1753450,951,1574,895,-1248,-585,-467,16,166,-150
32235,3129,0,2023-03-01T18:52:43.929908,1753455,951,1574,895,-1248,-585,-467,16,166,-150
32236,3130,0,2023-03-01T18:52:43.934961,1753460,946,1575,904,-1259,-591,-468,16,166,-150
32237,3131,0,2023-03-01T18:52:43.940286,1753465,946,1575,904,-1259,-591,-468,16,166,-150
32238,3132,0,2023-03-01T18:52:43.945880,1753472,946,1575,904,-1259,-591,-468,16,166,-150
32239,3133,0,2023-03-01T18:52:43.950870,1753477,946,1575,904,-1259,-591,-468,16,166,-150
32240,3134,0,2023-03-01T18:52:43.955837,1753482,949,1573,902,-1269,-586,-474,16,166,-150
32241,3135,0,2023-03-01T18:52:43.961964,1753487,949,1573,902,-1269,-586,-474,16,166,-150
32242,3136,0,2023-03-01T18:52:43.967339,1753493,949,1573,902,-1269,-586,-474,16,166,-150
32243,3137,0,2023-03-01T18:52:43.972367,1753498,946,1573,906,-1238,-594,-462,16,166,-150
32244,3138,0,2023-03-01T18:52:43.978206,1753503,946,1573,906,-1238,-594,-462,16,166,-150
32245,3139,0,2023-03-01T18:52:43.983177,1753508,946,1573,906,-1238,-594,-462,16,166,-150
32246,3140,0,2023-03-01T18:52:43.988795,1753515,946,1573,906,-1238,-594,-462,16,166,-150
32247,3141,0,2023-03-01T18:52:43.993957,1753520,946,1573,906,-1238,-594,-462,16,168,-142
32248,3142,0,2023-03-01T18:52:43.999697,1753525,946,1573,906,-1238,-594,-462,16,168,-142
32249,3143,0,2023-03-01T18:52:44.004358,1753530,946,1573,906,-1238,-594,-462,16,168,-142
32250,3144,0,2023-03-01T18:52:44.009987,1753535,946,1573,906,-1238,-594,-462,16,168,-142
32251,3145,0,2023-03-01T18:52:44.014971,1753540,948,1578,910,-1237,-580,-462,16,168,-142
32252,3146,0,2023-03-01T18:52:44.021137,1753546,948,1578,910,-1237,-580,-462,16,168,-142
32253,3147,0,2023-03-01T18:52:44.027134,1753552,948,1578,910,-1237,-580,-462,16,168,-142
32254,3148,0,2023-03-01T18:52:44.032197,1753558,949,1573,909,-1238,-586,-469,16,168,-142
32255,3149,0,2023-03-01T18:52:44.037540,1753563,949,1573,909,-1238,-586,-469,16,168,-142
32256,3150,0,2023-03-01T18:52:44.042181,1753568,949,1573,909,-1238,-586,-469,16,168,-142
32257,3151,0,2023-03-01T18:52:44.047299,1753573,949,1573,909,-1238,-586,-469,16,168,-142
32258,3152,0,2023-03-01T18:52:44.051770,1753577,946,1571,906,-1240,-579,-464,16,168,-142
32259,3153,0,2023-03-01T18:52:44.057114,1753583,946,1571,906,-1240,-579,-464,16,168,-142
32260,3154,0,2023-03-01T18:52:44.063053,1753588,946,1571,906,-1240,-579,-464,16,168,-142
32261,3155,0,2023-03-01T18:52:44.068343,1753594,946,1571,906,-1240,-579,-464,16,168,-142
32262,3156,0,2023-03-01T18:52:44.073116,1753598,942,1571,908,-1235,-583,-462,16,168,-142
32263,3157,0,2023-03-01T18:52:44.079200,1753605,942,1571,908,-1235,-583,-462,16,168,-142
32264,3158,0,2023-03-01T18:52:44.084184,1753610,942,1571,908,-1235,-583,-462,16,168,-142
32265,3159,0,2023-03-01T18:52:44.090184,1753616,942,1571,908,-1235,-583,-462,16,168,-142
32266,3160,0,2023-03-01T18:52:44.094966,1753621,944,1573,907,-1244,-586,-471,16,168,-142
32267,3161,0,2023-03-01T18:52:44.101151,1753626,944,1573,907,-1244,-586,-471,16,168,-142
32268,3162,0,2023-03-01T18:52:44.107357,1753632,944,1573,907,-1244,-586,-471,16,168,-142
32269,3163,0,2023-03-01T18:52:44.112107,1753637,940,1567,913,-1241,-587,-468,18,168,-140
32270,3164,0,2023-03-01T18:52:44.118471,1753644,940,1567,913,-1241,-587,-468,18,168,-140
32271,3165,0,2023-03-01T18:52:44.123259,1753649,940,1567,913,-1241,-587,-468,18,168,-140
32272,3166,0,2023-03-01T18:52:44.128543,1753654,940,1567,913,-1241,-587,-468,18,168,-140
32273,3167,0,2023-03-01T18:52:44.133463,1753659,942,1573,905,-1248,-598,-469,18,168,-140
32274,3168,0,2023-03-01T18:52:44.139144,1753665,942,1573,905,-1248,-598,-469,18,168,-140
32275,3169,0,2023-03-01T18:52:44.143992,1753669,942,1573,905,-1248,-598,-469,18,168,-140
32276,3170,0,2023-03-01T18:52:44.148858,1753674,942,1573,905,-1248,-598,-469,18,168,-140
32277,3171,0,2023-03-01T18:52:44.154026,1753679,938,1570,906,-1244,-590,-466,18,168,-140
32278,3172,0,2023-03-01T18:52:44.160255,1753686,938,1570,906,-1244,-590,-466,18,168,-140
32279,3173,0,2023-03-01T18:52:44.166043,1753692,938,1570,906,-1244,-590,-466,18,168,-140
32280,3174,0,2023-03-01T18:52:44.171303,1753697,938,1570,906,-1244,-590,-466,18,168,-140
32281,3175,0,2023-03-01T18:52:44.176192,1753702,941,1567,912,-1244,-591,-472,18,168,-140
32282,3176,0,2023-03-01T18:52:44.182222,1753708,941,1567,912,-1244,-591,-472,18,168,-140
32283,3177,0,2023-03-01T18:52:44.187972,1753713,941,1567,912,-1244,-591,-472,18,168,-140
32284,3178,0,2023-03-01T18:52:44.193119,1753718,941,1572,909,-1246,-583,-468,18,168,-140
32285,3179,0,2023-03-01T18:52:44.198897,1753724,941,1572,909,-1246,-583,-468,18,168,-140
32286,3180,0,2023-03-01T18:52:44.203775,1753730,941,1572,909,-1246,-583,-468,18,168,-140
32287,3181,0,2023-03-01T18:52:44.209009,1753735,941,1572,909,-1246,-583,-468,18,168,-140
32288,3182,0,2023-03-01T18:52:44.213934,1753740,941,1568,914,-1252,-593,-467,18,168,-140
32289,3183,0,2023-03-01T18:52:44.219344,1753745,941,1568,914,-1252,-593,-467,18,168,-140
32290,3184,0,2023-03-01T18:52:44.224459,1753750,941,1568,914,-1252,-593,-467,18,168,-140
32291,3185,0,2023-03-01T18:52:44.229958,1753755,941,1568,914,-1252,-593,-467,18,168,-140
32292,3186,0,2023-03-01T18:52:44.235578,1753760,940,1570,908,-1243,-595,-474,18,168,-140
32293,3187,0,2023-03-01T18:52:44.241302,1753766,940,1570,908,-1243,-595,-474,18,168,-140
32294,3188,0,2023-03-01T18:52:44.246897,1753773,940,1570,908,-1243,-595,-474,18,168,-140
32295,3189,0,2023-03-01T18:52:44.251572,1753777,940,1570,908,-1243,-595,-474,18,168,-140
32296,3190,0,2023-03-01T18:52:44.256192,1753782,936,1567,913,-1235,-595,-474,24,164,-144
32297,3191,0,2023-03-01T18:52:44.261665,1753787,936,1567,913,-1235,-595,-474,24,164,-144
32298,3192,0,2023-03-01T18:52:44.266958,1753792,936,1567,913,-1235,-595,-474,24,164,-144
32299,3193,0,2023-03-01T18:52:44.271536,1753797,944,1569,918,-1244,-595,-478,24,164,-144
32300,3194,0,2023-03-01T18:52:44.277003,1753802,944,1569,918,-1244,-595,-478,24,164,-144
32301,3195,0,2023-03-01T18:52:44.281794,1753807,944,1569,918,-1244,-595,-478,24,164,-144
32302,3196,0,2023-03-01T18:52:44.287137,1753812,944,1569,918,-1244,-595,-478,24,164,-144
32303,3197,0,2023-03-01T18:52:44.292186,1753818,940,1565,918,-1238,-589,-468,24,164,-144
32304,3198,0,2023-03-01T18:52:44.297605,1753823,940,1565,918,-1238,-589,-468,24,164,-144
32305,3199,0,2023-03-01T18:52:44.303483,1753829,940,1565,918,-1238,-589,-468,24,164,-144
32306,3200,0,2023-03-01T18:52:44.310065,1753836,940,1565,918,-1238,-589,-468,24,164,-144
32307,3201,0,2023-03-01T18:52:44.315172,1753840,939,1566,922,-1238,-595,-480,24,164,-144
32308,3202,0,2023-03-01T18:52:44.320665,1753846,939,1566,922,-1238,-595,-480,24,164,-144
32309,3203,0,2023-03-01T18:52:44.326327,1753851,939,1566,922,-1238,-595,-480,24,164,-144
32310,3204,0,2023-03-01T18:52:44.331139,1753857,939,1566,922,-1238,-595,-480,24,164,-144
32311,3205,0,2023-03-01T18:52:44.335821,1753862,938,1567,913,-1244,-594,-475,24,164,-144
32312,3206,0,2023-03-01T18:52:44.341091,1753867,938,1567,913,-1244,-594,-475,24,164,-144
32313,3207,0,2023-03-01T18:52:44.346423,1753872,938,1567,913,-1244,-594,-475,24,164,-144
32314,3208,0,2023-03-01T18:52:44.352224,1753877,938,1567,913,-1244,-594,-475,24,164,-144
32315,3209,0,2023-03-01T18:52:44.356952,1753882,938,1564,916,-1238,-595,-472,24,164,-144
32316,3210,0,2023-03-01T18:52:44.363261,1753888,938,1564,916,-1238,-595,-472,24,164,-144
32317,3211,0,2023-03-01T18:52:44.368495,1753894,938,1564,916,-1238,-595,-472,24,164,-144
32318,3212,0,2023-03-01T18:52:44.373511,1753899,938,1564,916,-1238,-595,-472,23,175,-143
32319,3213,0,2023-03-01T18:52:44.378409,1753904,938,1564,916,-1238,-595,-472,23,175,-143
32320,3214,0,2023-03-01T18:52:44.383221,1753909,938,1564,916,-1238,-595,-472,23,175,-143
32321,3215,0,2023-03-01T18:52:44.388839,1753914,938,1564,916,-1238,-595,-472,23,175,-143
32322,3216,0,2023-03-01T18:52:44.393667,1753919,935,1563,926,-1240,-591,-473,23,175,-143
32323,3217,0,2023-03-01T18:52:44.399663,1753925,935,1563,926,-1240,-591,-473,23,175,-143
32324,3218,0,2023-03-01T18:52:44.404235,1753930,935,1563,926,-1240,-591,-473,23,175,-143
32325,3219,0,2023-03-01T18:52:44.409574,1753935,935,1563,926,-1240,-591,-473,23,175,-143
32326,3220,0,2023-03-01T18:52:44.415173,1753939,936,1567,920,-1241,-584,-466,23,175,-143
32327,3221,0,2023-03-01T18:52:44.420629,1753946,936,1567,920,-1241,-584,-466,23,175,-143
32328,3222,0,2023-03-01T18:52:44.425820,1753952,936,1567,920,-1241,-584,-466,23,175,-143
32329,3223,0,2023-03-01T18:52:44.430686,1753956,936,1567,920,-1241,-584,-466,23,175,-143
32330,3224,0,2023-03-01T18:52:44.435880,1753961,938,1564,921,-1235,-581,-463,23,175,-143
32331,3225,0,2023-03-01T18:52:44.440255,1753966,938,1564,921,-1235,-581,-463,23,175,-143
32332,3226,0,2023-03-01T18:52:44.446196,1753972,938,1564,921,-1235,-581,-463,23,175,-143
32333,3227,0,2023-03-01T18:52:44.451182,1753976,938,1564,921,-1235,-581,-463,23,175,-143
32334,3228,0,2023-03-01T18:52:44.456159,1753981,935,1564,918,-1237,-579,-471,23,175,-143
32335,3229,0,2023-03-01T18:52:44.461930,1753988,935,1564,918,-1237,-579,-471,23,175,-143
32336,3230,0,2023-03-01T18:52:44.467753,1753994,935,1564,918,-1237,-579,-471,23,175,-143
32337,3231,0,2023-03-01T18:52:44.472555,1753998,937,1563,922,-1243,-590,-463,23,175,-143
32338,3232,0,2023-03-01T18:52:44.478099,1754004,937,1563,922,-1243,-590,-463,23,175,-143
32339,3233,0,2023-03-01T18:52:44.483025,1754008,937,1563,922,-1243,-590,-463,23,175,-143
32340,3234,0,2023-03-01T18:52:44.488685,1754014,937,1563,922,-1243,-590,-463,23,175,-143
32341,3235,0,2023-03-01T18:52:44.493759,1754019,933,1561,918,-1252,-590,-467,23,175,-143
32342,3236,0,2023-03-01T18:52:44.499870,1754025,933,1561,918,-1252,-590,-467,23,175,-143
32343,3237,0,2023-03-01T18:52:44.505257,1754031,933,1561,918,-1252,-590,-467,23,175,-143
32344,3238,0,2023-03-01T18:52:44.510447,1754036,933,1561,918,-1252,-590,-467,23,175,-143
32345,3239,0,2023-03-01T18:52:44.515015,1754041,935,1560,923,-1238,-589,-463,25,171,-151
32346,3240,0,2023-03-01T18:52:44.520401,1754046,935,1560,923,-1238,-589,-463,25,171,-151
32347,3241,0,2023-03-01T18:52:44.525164,1754051,935,1560,923,-1238,-589,-463,25,171,-151
32348,3242,0,2023-03-01T18:52:44.530322,1754055,935,1560,923,-1238,-589,-463,25,171,-151
32349,3243,0,2023-03-01T18:52:44.535185,1754060,935,1559,928,-1236,-589,-464,25,171,-151
32350,3244,0,2023-03-01T18:52:44.541137,1754066,935,1559,928,-1236,-589,-464,25,171,-151
32351,3245,0,2023-03-01T18:52:44.546547,1754072,935,1559,928,-1236,-589,-464,25,171,-151
32352,3246,0,2023-03-01T18:52:44.551311,1754077,935,1559,928,-1236,-589,-464,25,171,-151
32353,3247,0,2023-03-01T18:52:44.556428,1754082,932,1561,927,-1242,-595,-464,25,171,-151
32354,3248,0,2023-03-01T18:52:44.562544,1754088,932,1561,927,-1242,-595,-464,25,171,-151
32355,3249,0,2023-03-01T18:52:44.567980,1754093,932,1561,927,-1242,-595,-464,25,171,-151
32356,3250,0,2023-03-01T18:52:44.572604,1754098,934,1559,924,-1240,-593,-463,25,171,-151
32357,3251,0,2023-03-01T18:52:44.578519,1754103,934,1559,924,-1240,-593,-463,25,171,-151
32358,3252,0,2023-03-01T18:52:44.584340,1754109,934,1559,924,-1240,-593,-463,25,171,-151
32359,3253,0,2023-03-01T18:52:44.589138,1754115,934,1559,924,-1240,-593,-463,25,171,-151
32360,3254,0,2023-03-01T18:52:44.593896,1754120,934,1560,924,-1250,-598,-470,25,171,-151
32361,3255,0,2023-03-01T18:52:44.601122,1754127,934,1560,924,-1250,-598,-470,25,171,-151
32362,3256,0,2023-03-01T18:52:44.606942,1754132,934,1560,924,-1250,-598,-470,25,171,-151
32363,3257,0,2023-03-01T18:52:44.612009,1754137,934,1560,924,-1250,-598,-470,25,171,-151
32364,3258,0,2023-03-01T18:52:44.617319,1754143,934,1563,924,-1251,-600,-470,25,171,-151
32365,3259,0,2023-03-01T18:52:44.623255,1754148,934,1563,924,-1251,-600,-470,25,171,-151
32366,3260,0,2023-03-01T18:52:44.628623,1754155,934,1563,924,-1251,-600,-470,25,171,-151
32367,3261,0,2023-03-01T18:52:44.633705,1754159,934,1559,929,-1249,-586,-466,22,166,-142
32368,3262,0,2023-03-01T18:52:44.640260,1754166,934,1559,929,-1249,-586,-466,22,166,-142
32369,3263,0,2023-03-01T18:52:44.645744,1754172,934,1559,929,-1249,-586,-466,22,166,-142
32370,3264,0,2023-03-01T18:52:44.650683,1754176,934,1559,929,-1249,-586,-466,22,166,-142
32371,3265,0,2023-03-01T18:52:44.655453,1754181,933,1562,930,-1253,-591,-479,22,166,-142
32372,3266,0,2023-03-01T18:52:44.660855,1754186,933,1562,930,-1253,-591,-479,22,166,-142
32373,3267,0,2023-03-01T18:52:44.666129,1754191,933,1562,930,-1253,-591,-479,22,166,-142
32374,3268,0,2023-03-01T18:52:44.670881,1754196,933,1562,930,-1253,-591,-479,22,166,-142
32375,3269,0,2023-03-01T18:52:44.675717,1754202,929,1558,933,-1248,-594,-479,22,166,-142
32376,3270,0,2023-03-01T18:52:44.681986,1754208,929,1558,933,-1248,-594,-479,22,166,-142
32377,3271,0,2023-03-01T18:52:44.687689,1754213,929,1558,933,-1248,-594,-479,22,166,-142
32378,3272,0,2023-03-01T18:52:44.692475,1754218,932,1557,928,-1247,-592,-474,22,166,-142
32379,3273,0,2023-03-01T18:52:44.698350,1754224,932,1557,928,-1247,-592,-474,22,166,-142
32380,3274,0,2023-03-01T18:52:44.703106,1754228,932,1557,928,-1247,-592,-474,22,166,-142
32381,3275,0,2023-03-01T18:52:44.708438,1754234,932,1557,928,-1247,-592,-474,22,166,-142
32382,3276,0,2023-03-01T18:52:44.713445,1754238,929,1557,930,-1242,-581,-474,22,166,-142
32383,3277,0,2023-03-01T18:52:44.719616,1754245,929,1557,930,-1242,-581,-474,22,166,-142
32384,3278,0,2023-03-01T18:52:44.724726,1754250,929,1557,930,-1242,-581,-474,22,166,-142
32385,3279,0,2023-03-01T18:52:44.729851,1754256,929,1557,930,-1242,-581,-474,22,166,-142
32386,3280,0,2023-03-01T18:52:44.734411,1754260,929,1553,927,-1240,-591,-466,22,166,-142
32387,3281,0,2023-03-01T18:52:44.740340,1754266,929,1553,927,-1240,-591,-466,22,166,-142
32388,3282,0,2023-03-01T18:52:44.745696,1754271,929,1553,927,-1240,-591,-466,22,166,-142
32389,3283,0,2023-03-01T18:52:44.750723,1754276,929,1553,927,-1240,-591,-466,22,166,-142
32390,3284,0,2023-03-01T18:52:44.755546,1754281,929,1558,934,-1247,-593,-474,22,166,-142
32391,3285,0,2023-03-01T18:52:44.760927,1754287,929,1558,934,-1247,-593,-474,22,166,-142
32392,3286,0,2023-03-01T18:52:44.766022,1754292,929,1558,934,-1247,-593,-474,22,166,-142
32393,3287,0,2023-03-01T18:52:44.771202,1754297,929,1558,934,-1247,-593,-474,22,166,-142
32394,3288,0,2023-03-01T18:52:44.776457,1754302,929,1558,934,-1247,-593,-474,26,172,-136
32395,3289,0,2023-03-01T18:52:44.782477,1754308,929,1558,934,-1247,-593,-474,26,172,-136
32396,3290,0,2023-03-01T18:52:44.788313,1754314,929,1558,934,-1247,-593,-474,26,172,-136
32397,3291,0,2023-03-01T18:52:44.793101,1754318,929,1557,937,-1248,-604,-476,26,172,-136
32398,3292,0,2023-03-01T18:52:44.798395,1754323,929,1557,937,-1248,-604,-476,26,172,-136
32399,3293,0,2023-03-01T18:52:44.804013,1754330,929,1557,937,-1248,-604,-476,26,172,-136
32400,3294,0,2023-03-01T18:52:44.809613,1754335,929,1557,937,-1248,-604,-476,26,172,-136
32401,3295,0,2023-03-01T18:52:44.814213,1754340,929,1556,934,-1242,-582,-470,26,172,-136
32402,3296,0,2023-03-01T18:52:44.820670,1754346,929,1556,934,-1242,-582,-470,26,172,-136
32403,3297,0,2023-03-01T18:52:44.826028,1754351,929,1556,934,-1242,-582,-470,26,172,-136
32404,3298,0,2023-03-01T18:52:44.830563,1754356,929,1556,934,-1242,-582,-470,26,172,-136
32405,3299,0,2023-03-01T18:52:44.835138,1754360,928,1555,929,-1237,-592,-476,26,172,-136
32406,3300,0,2023-03-01T18:52:44.840698,1754366,928,1555,929,-1237,-592,-476,26,172,-136
32407,3301,0,2023-03-01T18:52:44.846010,1754372,928,1555,929,-1237,-592,-476,26,172,-136
32408,3302,0,2023-03-01T18:52:44.851113,1754377,928,1555,929,-1237,-592,-476,26,172,-136
32409,3303,0,2023-03-01T18:52:44.857281,1754382,928,1554,935,-1244,-595,-476,26,172,-136
32410,3304,0,2023-03-01T18:52:44.862758,1754388,928,1554,935,-1244,-595,-476,26,172,-136
32411,3305,0,2023-03-01T18:52:44.867876,1754393,928,1554,935,-1244,-595,-476,26,172,-136
32412,3306,0,2023-03-01T18:52:44.872987,1754398,927,1553,937,-1237,-598,-471,26,172,-136
32413,3307,0,2023-03-01T18:52:44.878647,1754404,927,1553,937,-1237,-598,-471,26,172,-136
32414,3308,0,2023-03-01T18:52:44.883747,1754408,927,1553,937,-1237,-598,-471,26,172,-136
32415,3309,0,2023-03-01T18:52:44.889206,1754415,927,1553,937,-1237,-598,-471,26,172,-136
32416,3310,0,2023-03-01T18:52:44.894113,1754420,925,1553,939,-1242,-599,-474,14,172,-142
32417,3311,0,2023-03-01T18:52:44.900404,1754426,925,1553,939,-1242,-599,-474,14,172,-142
32418,3312,0,2023-03-01T18:52:44.905997,1754431,925,1553,939,-1242,-599,-474,14,172,-142
32419,3313,0,2023-03-01T18:52:44.910985,1754436,925,1553,939,-1242,-599,-474,14,172,-142
32420,3314,0,2023-03-01T18:52:44.916100,1754441,924,1550,941,-1242,-592,-463,14,172,-142
32421,3315,0,2023-03-01T18:52:44.922925,1754448,924,1550,941,-1242,-592,-463,14,172,-142
32422,3316,0,2023-03-01T18:52:44.928424,1754454,924,1550,941,-1242,-592,-463,14,172,-142
32423,3317,0,2023-03-01T18:52:44.933426,1754459,926,1555,938,-1240,-592,-475,14,172,-142
32424,3318,0,2023-03-01T18:52:44.939404,1754465,926,1555,938,-1240,-592,-475,14,172,-142
32425,3319,0,2023-03-01T18:52:44.944349,1754470,926,1555,938,-1240,-592,-475,14,172,-142
32426,3320,0,2023-03-01T18:52:44.949491,1754475,926,1555,938,-1240,-592,-475,14,172,-142
32427,3321,0,2023-03-01T18:52:44.954284,1754480,926,1551,940,-1241,-579,-458,14,172,-142
32428,3322,0,2023-03-01T18:52:44.961071,1754486,926,1551,940,-1241,-579,-458,14,172,-142
32429,3323,0,2023-03-01T18:52:44.967746,1754493,926,1551,940,-1241,-579,-458,14,172,-142
32430,3324,0,2023-03-01T18:52:44.972339,1754499,922,1551,945,-1256,-588,-472,14,172,-142
32431,3325,0,2023-03-01T18:52:44.977644,1754503,922,1551,945,-1256,-588,-472,14,172,-142
32432,3326,0,2023-03-01T18:52:44.982968,1754509,922,1551,945,-1256,-588,-472,14,172,-142
32433,3327,0,2023-03-01T18:52:44.988604,1754514,922,1551,945,-1256,-588,-472,14,172,-142
32434,3328,0,2023-03-01T18:52:44.993491,1754519,924,1552,937,-1251,-586,-479,14,172,-142
32435,3329,0,2023-03-01T18:52:44.999611,1754525,924,1552,937,-1251,-586,-479,14,172,-142
32436,3330,0,2023-03-01T18:52:45.004496,1754530,924,1552,937,-1251,-586,-479,14,172,-142
32437,3331,0,2023-03-01T18:52:45.009782,1754535,924,1552,937,-1251,-586,-479,14,172,-142
32438,3332,0,2023-03-01T18:52:45.014561,1754541,922,1549,940,-1254,-587,-481,27,165,-151
32439,3333,0,2023-03-01T18:52:45.021118,1754547,922,1549,940,-1254,-587,-481,27,165,-151
32440,3334,0,2023-03-01T18:52:45.026744,1754552,922,1549,940,-1254,-587,-481,27,165,-151
32441,3335,0,2023-03-01T18:52:45.031533,1754557,922,1549,940,-1254,-587,-481,27,165,-151
32442,3336,0,2023-03-01T18:52:45.036555,1754562,926,1553,946,-1256,-586,-476,27,165,-151
32443,3337,0,2023-03-01T18:52:45.043676,1754568,926,1553,946,-1256,-586,-476,27,165,-151
32444,3338,0,2023-03-01T18:52:45.049095,1754574,926,1553,946,-1256,-586,-476,27,165,-151
32445,3339,0,2023-03-01T18:52:45.054490,1754579,924,1548,949,-1262,-588,-477,27,165,-151
32446,3340,0,2023-03-01T18:52:45.060421,1754587,924,1548,949,-1262,-588,-477,27,165,-151
32447,3341,0,2023-03-01T18:52:45.066402,1754592,924,1548,949,-1262,-588,-477,27,165,-151
32448,3342,0,2023-03-01T18:52:45.071170,1754597,924,1548,949,-1262,-588,-477,27,165,-151
32449,3343,0,2023-03-01T18:52:45.076229,1754601,923,1550,949,-1259,-589,-489,27,165,-151
32450,3344,0,2023-03-01T18:52:45.082022,1754607,923,1550,949,-1259,-589,-489,27,165,-151
32451,3345,0,2023-03-01T18:52:45.087848,1754613,923,1550,949,-1259,-589,-489,27,165,-151
32452,3346,0,2023-03-01T18:52:45.092878,1754618,922,1550,945,-1254,-581,-476,27,165,-151
32453,3347,0,2023-03-01T18:52:45.098424,1754624,922,1550,945,-1254,-581,-476,27,165,-151
32454,3348,0,2023-03-01T18:52:45.104043,1754630,922,1550,945,-1254,-581,-476,27,165,-151
32455,3349,0,2023-03-01T18:52:45.109586,1754635,922,1550,945,-1254,-581,-476,27,165,-151
32456,3350,0,2023-03-01T18:52:45.114303,1754640,920,1549,944,-1248,-587,-486,27,165,-151
32457,3351,0,2023-03-01T18:52:45.120219,1754646,920,1549,944,-1248,-587,-486,27,165,-151
32458,3352,0,2023-03-01T18:52:45.124866,1754650,920,1549,944,-1248,-587,-486,27,165,-151
32459,3353,0,2023-03-01T18:52:45.130217,1754656,920,1549,944,-1248,-587,-486,27,165,-151
32460,3354,0,2023-03-01T18:52:45.135063,1754660,920,1546,947,-1256,-596,-480,27,165,-151
32461,3355,0,2023-03-01T18:52:45.141353,1754667,920,1546,947,-1256,-596,-480,27,165,-151
32462,3356,0,2023-03-01T18:52:45.146911,1754673,920,1546,947,-1256,-596,-480,27,165,-151
32463,3357,0,2023-03-01T18:52:45.151979,1754678,920,1546,947,-1256,-596,-480,27,165,-151
32464,3358,0,2023-03-01T18:52:45.156959,1754683,919,1547,953,-1260,-585,-480,15,163,-143
32465,3359,0,2023-03-01T18:52:45.162606,1754688,919,1547,953,-1260,-585,-480,15,163,-143
32466,3360,0,2023-03-01T18:52:45.168047,1754693,919,1547,953,-1260,-585,-480,15,163,-143
32467,3361,0,2023-03-01T18:52:45.173003,1754698,918,1547,947,-1255,-588,-477,15,163,-143
32468,3362,0,2023-03-01T18:52:45.178172,1754703,918,1547,947,-1255,-588,-477,15,163,-143
32469,3363,0,2023-03-01T18:52:45.184225,1754710,918,1547,947,-1255,-588,-477,15,163,-143
32470,3364,0,2023-03-01T18:52:45.190102,1754716,918,1547,947,-1255,-588,-477,15,163,-143
32471,3365,0,2023-03-01T18:52:45.194585,1754720,917,1546,946,-1260,-596,-482,15,163,-143
32472,3366,0,2023-03-01T18:52:45.200512,1754726,917,1546,946,-1260,-596,-482,15,163,-143
32473,3367,0,2023-03-01T18:52:45.206303,1754731,917,1546,946,-1260,-596,-482,15,163,-143
32474,3368,0,2023-03-01T18:52:45.211292,1754737,917,1546,946,-1260,-596,-482,15,163,-143
32475,3369,0,2023-03-01T18:52:45.216256,1754742,916,1547,946,-1250,-590,-487,15,163,-143
32476,3370,0,2023-03-01T18:52:45.221941,1754747,916,1547,946,-1250,-590,-487,15,163,-143
32477,3371,0,2023-03-01T18:52:45.227041,1754753,916,1547,946,-1250,-590,-487,15,163,-143
32478,3372,0,2023-03-01T18:52:45.231971,1754758,916,1547,946,-1250,-590,-487,15,163,-143
32479,3373,0,2023-03-01T18:52:45.237566,1754763,919,1545,946,-1250,-587,-475,15,163,-143
32480,3374,0,2023-03-01T18:52:45.243351,1754769,919,1545,946,-1250,-587,-475,15,163,-143
32481,3375,0,2023-03-01T18:52:45.248994,1754775,919,1545,946,-1250,-587,-475,15,163,-143
32482,3376,0,2023-03-01T18:52:45.254292,1754779,918,1544,948,-1248,-586,-479,15,163,-143
32483,3377,0,2023-03-01T18:52:45.260625,1754786,918,1544,948,-1248,-586,-479,15,163,-143
32484,3378,0,2023-03-01T18:52:45.266218,1754791,918,1544,948,-1248,-586,-479,15,163,-143
32485,3379,0,2023-03-01T18:52:45.271033,1754797,918,1544,948,-1248,-586,-479,15,163,-143
32486,3380,0,2023-03-01T18:52:45.276239,1754802,921,1543,952,-1245,-593,-474,24,162,-144
32487,3381,0,2023-03-01T18:52:45.282263,1754808,921,1543,952,-1245,-593,-474,24,162,-144
32488,3382,0,2023-03-01T18:52:45.287124,1754813,921,1543,952,-1245,-593,-474,24,162,-144
32489,3383,0,2023-03-01T18:52:45.291863,1754817,921,1543,952,-1245,-593,-474,24,162,-144
32490,3384,0,2023-03-01T18:52:45.297243,1754822,915,1547,958,-1248,-582,-480,24,162,-144
32491,3385,0,2023-03-01T18:52:45.303011,1754828,915,1547,958,-1248,-582,-480,24,162,-144
32492,3386,0,2023-03-01T18:52:45.308552,1754834,915,1547,958,-1248,-582,-480,24,162,-144
32493,3387,0,2023-03-01T18:52:45.313574,1754839,916,1540,956,-1250,-582,-475,24,162,-144
32494,3388,0,2023-03-01T18:52:45.319055,1754845,916,1540,956,-1250,-582,-475,24,162,-144
32495,3389,0,2023-03-01T18:52:45.324301,1754850,916,1540,956,-1250,-582,-475,24,162,-144
32496,3390,0,2023-03-01T18:52:45.330254,1754856,916,1540,956,-1250,-582,-475,24,162,-144
32497,3391,0,2023-03-01T18:52:45.334911,1754860,918,1543,957,-1250,-580,-476,24,162,-144
32498,3392,0,2023-03-01T18:52:45.340681,1754866,918,1543,957,-1250,-580,-476,24,162,-144
32499,3393,0,2023-03-01T18:52:45.345955,1754871,918,1543,957,-1250,-580,-476,24,162,-144
32500,3394,0,2023-03-01T18:52:45.350980,1754876,918,1543,957,-1250,-580,-476,24,162,-144
32501,3395,0,2023-03-01T18:52:45.356409,1754882,914,1542,957,-1252,-584,-475,24,162,-144
32502,3396,0,2023-03-01T18:52:45.360818,1754887,914,1542,957,-1252,-584,-475,24,162,-144
32503,3397,0,2023-03-01T18:52:45.366396,1754892,914,1542,957,-1252,-584,-475,24,162,-144
32504,3398,0,2023-03-01T18:52:45.371894,1754898,914,1542,957,-1252,-584,-475,24,162,-144
32505,3399,0,2023-03-01T18:52:45.376678,1754902,917,1542,957,-1246,-585,-475,24,162,-144
32506,3400,0,2023-03-01T18:52:45.382421,1754908,917,1542,957,-1246,-585,-475,24,162,-144
32507,3401,0,2023-03-01T18:52:45.388103,1754913,917,1542,957,-1246,-585,-475,24,162,-144
32508,3402,0,2023-03-01T18:52:45.392988,1754918,917,1542,957,-1246,-585,-475,24,162,-144
32509,3403,0,2023-03-01T18:52:45.397924,1754924,912,1542,956,-1250,-588,-476,24,162,-144
32510,3404,0,2023-03-01T18:52:45.403822,1754930,912,1542,956,-1250,-588,-476,24,162,-144
32511,3405,0,2023-03-01T18:52:45.409870,1754935,912,1542,956,-1250,-588,-476,24,162,-144
32512,3406,0,2023-03-01T18:52:45.415188,1754941,913,1541,957,-1251,-590,-481,24,166,-142
32513,3407,0,2023-03-01T18:52:45.419853,1754945,913,1541,957,-1251,-590,-481,24,166,-142
32514,3408,0,2023-03-01T18:52:45.424515,1754950,913,1541,957,-1251,-590,-481,24,166,-142
32515,3409,0,2023-03-01T18:52:45.430720,1754956,913,1541,957,-1251,-590,-481,24,166,-142
32516,3410,0,2023-03-01T18:52:45.436260,1754961,914,1540,958,-1249,-580,-473,24,166,-142
32517,3411,0,2023-03-01T18:52:45.442252,1754968,914,1540,958,-1249,-580,-473,24,166,-142
32518,3412,0,2023-03-01T18:52:45.447137,1754973,914,1540,958,-1249,-580,-473,24,166,-142
32519,3413,0,2023-03-01T18:52:45.452016,1754978,914,1540,958,-1249,-580,-473,24,166,-142
32520,3414,0,2023-03-01T18:52:45.457348,1754983,916,1540,957,-1254,-587,-465,24,166,-142
32521,3415,0,2023-03-01T18:52:45.463776,1754989,916,1540,957,-1254,-587,-465,24,166,-142
32522,3416,0,2023-03-01T18:52:45.469635,1754995,916,1540,957,-1254,-587,-465,24,166,-142
32523,3417,0,2023-03-01T18:52:45.474299,1755000,912,1539,959,-1246,-580,-472,24,166,-142
32524,3418,0,2023-03-01T18:52:45.480228,1755005,912,1539,959,-1246,-580,-472,24,166,-142
32525,3419,0,2023-03-01T18:52:45.485623,1755011,912,1539,959,-1246,-580,-472,24,166,-142
32526,3420,0,2023-03-01T18:52:45.491760,1755017,912,1539,959,-1246,-580,-472,24,166,-142
32527,3421,0,2023-03-01T18:52:45.496936,1755023,911,1544,955,-1248,-584,-485,24,166,-142
32528,3422,0,2023-03-01T18:52:45.502645,1755028,911,1544,955,-1248,-584,-485,24,166,-142
32529,3423,0,2023-03-01T18:52:45.508168,1755034,911,1544,955,-1248,-584,-485,24,166,-142
32530,3424,0,2023-03-01T18:52:45.513259,1755038,911,1544,955,-1248,-584,-485,24,166,-142
32531,3425,0,2023-03-01T18:52:45.518963,1755043,910,1541,961,-1250,-589,-487,24,166,-142
32532,3426,0,2023-03-01T18:52:45.526395,1755052,910,1541,961,-1250,-589,-487,24,166,-142
32533,3427,0,2023-03-01T18:52:45.531834,1755058,910,1541,961,-1250,-589,-487,24,166,-142
32534,3428,0,2023-03-01T18:52:45.536981,1755062,909,1539,963,-1256,-585,-474,23,169,-145
32535,3429,0,2023-03-01T18:52:45.542961,1755069,909,1539,963,-1256,-585,-474,23,169,-145
32536,3430,0,2023-03-01T18:52:45.548679,1755074,909,1539,963,-1256,-585,-474,23,169,-145
32537,3431,0,2023-03-01T18:52:45.553726,1755079,909,1537,958,-1252,-586,-479,23,169,-145
32538,3432,0,2023-03-01T18:52:45.559413,1755085,909,1537,958,-1252,-586,-479,23,169,-145
32539,3433,0,2023-03-01T18:52:45.564598,1755090,909,1537,958,-1252,-586,-479,23,169,-145
32540,3434,0,2023-03-01T18:52:45.570122,1755096,909,1537,958,-1252,-586,-479,23,169,-145
32541,3435,0,2023-03-01T18:52:45.575045,1755101,909,1537,961,-1243,-587,-473,23,169,-145
32542,3436,0,2023-03-01T18:52:45.581669,1755107,909,1537,961,-1243,-587,-473,23,169,-145
32543,3437,0,2023-03-01T18:52:45.587232,1755113,909,1537,961,-1243,-587,-473,23,169,-145
32544,3438,0,2023-03-01T18:52:45.592463,1755118,909,1537,961,-1243,-587,-473,23,169,-145
32545,3439,0,2023-03-01T18:52:45.597603,1755123,909,1538,964,-1261,-591,-486,23,169,-145
32546,3440,0,2023-03-01T18:52:45.604535,1755130,909,1538,964,-1261,-591,-486,23,169,-145
32547,3441,0,2023-03-01T18:52:45.610008,1755136,909,1538,964,-1261,-591,-486,23,169,-145
32548,3442,0,2023-03-01T18:52:45.615036,1755141,911,1536,960,-1258,-592,-481,23,169,-145
32549,3443,0,2023-03-01T18:52:45.622027,1755148,911,1536,960,-1258,-592,-481,23,169,-145
32550,3444,0,2023-03-01T18:52:45.627330,1755153,911,1536,960,-1258,-592,-481,23,169,-145
32551,3445,0,2023-03-01T18:52:45.632516,1755158,911,1536,960,-1258,-592,-481,23,169,-145
32552,3446,0,2023-03-01T18:52:45.637554,1755163,907,1540,959,-1258,-588,-479,23,169,-145
32553,3447,0,2023-03-01T18:52:45.643756,1755169,907,1540,959,-1258,-588,-479,23,169,-145
32554,3448,0,2023-03-01T18:52:45.648255,1755174,907,1540,959,-1258,-588,-479,23,169,-145
32555,3449,0,2023-03-01T18:52:45.652966,1755179,907,1540,959,-1258,-588,-479,23,169,-145
32556,3450,0,2023-03-01T18:52:45.657882,1755184,906,1540,964,-1247,-579,-472,24,172,-132
32557,3451,0,2023-03-01T18:52:45.664027,1755190,906,1540,964,-1247,-579,-472,24,172,-132
32558,3452,0,2023-03-01T18:52:45.669608,1755195,906,1540,964,-1247,-579,-472,24,172,-132
32559,3453,0,2023-03-01T18:52:45.674434,1755200,906,1534,968,-1265,-581,-482,24,172,-132
32560,3454,0,2023-03-01T18:52:45.680488,1755206,906,1534,968,-1265,-581,-482,24,172,-132
32561,3455,0,2023-03-01T18:52:45.685651,1755211,906,1534,968,-1265,-581,-482,24,172,-132
32562,3456,0,2023-03-01T18:52:45.692021,1755217,906,1534,968,-1265,-581,-482,24,172,-132
32563,3457,0,2023-03-01T18:52:45.696612,1755223,909,1534,962,-1263,-584,-488,24,172,-132
32564,3458,0,2023-03-01T18:52:45.702196,1755228,909,1534,962,-1263,-584,-488,24,172,-132
32565,3459,0,2023-03-01T18:52:45.707623,1755233,909,1534,962,-1263,-584,-488,24,172,-132
32566,3460,0,2023-03-01T18:52:45.712414,1755238,909,1534,962,-1263,-584,-488,24,172,-132
32567,3461,0,2023-03-01T18:52:45.717990,1755244,906,1532,971,-1251,-591,-480,24,172,-132
32568,3462,0,2023-03-01T18:52:45.724593,1755250,906,1532,971,-1251,-591,-480,24,172,-132
32569,3463,0,2023-03-01T18:52:45.730152,1755255,906,1532,971,-1251,-591,-480,24,172,-132
32570,3464,0,2023-03-01T18:52:45.734821,1755260,906,1536,963,-1257,-583,-491,24,172,-132
32571,3465,0,2023-03-01T18:52:45.741391,1755267,906,1536,963,-1257,-583,-491,24,172,-132
32572,3466,0,2023-03-01T18:52:45.748285,1755274,906,1536,963,-1257,-583,-491,24,172,-132
32573,3467,0,2023-03-01T18:52:45.753142,1755279,906,1536,963,-1257,-583,-491,24,172,-132
32574,3468,0,2023-03-01T18:52:45.758093,1755284,904,1532,967,-1253,-586,-482,24,172,-132
32575,3469,0,2023-03-01T18:52:45.764020,1755290,904,1532,967,-1253,-586,-482,24,172,-132
32576,3470,0,2023-03-01T18:52:45.769533,1755295,904,1532,967,-1253,-586,-482,24,172,-132
32577,3471,0,2023-03-01T18:52:45.774352,1755300,903,1533,970,-1265,-581,-484,24,172,-132
32578,3472,0,2023-03-01T18:52:45.780741,1755307,903,1533,970,-1265,-581,-484,24,172,-132
32579,3473,0,2023-03-01T18:52:45.786532,1755312,903,1533,970,-1265,-581,-484,24,172,-132
32580,3474,0,2023-03-01T18:52:45.791653,1755317,903,1533,970,-1265,-581,-484,24,172,-132
32581,3475,0,2023-03-01T18:52:45.796214,1755322,903,1534,972,-1262,-588,-485,24,174,-138
32582,3476,0,2023-03-01T18:52:45.802377,1755328,903,1534,972,-1262,-588,-485,24,174,-138
32583,3477,0,2023-03-01T18:52:45.808085,1755334,903,1534,972,-1262,-588,-485,24,174,-138
32584,3478,0,2023-03-01T18:52:45.813053,1755338,903,1534,972,-1262,-588,-485,24,174,-138
32585,3479,0,2023-03-01T18:52:45.818005,1755343,900,1531,978,-1256,-582,-496,24,174,-138
32586,3480,0,2023-03-01T18:52:45.823691,1755350,900,1531,978,-1256,-582,-496,24,174,-138
32587,3481,0,2023-03-01T18:52:45.829338,1755355,900,1531,978,-1256,-582,-496,24,174,-138
32588,3482,0,2023-03-01T18:52:45.834509,1755360,905,1530,967,-1263,-580,-490,24,174,-138
32589,3483,0,2023-03-01T18:52:45.840286,1755366,905,1530,967,-1263,-580,-490,24,174,-138
32590,3484,0,2023-03-01T18:52:45.845040,1755371,905,1530,967,-1263,-580,-490,24,174,-138
32591,3485,0,2023-03-01T18:52:45.850924,1755376,905,1530,967,-1263,-580,-490,24,174,-138
32592,3486,0,2023-03-01T18:52:45.856016,1755381,903,1533,969,-1253,-574,-488,24,174,-138
32593,3487,0,2023-03-01T18:52:45.862041,1755387,903,1533,969,-1253,-574,-488,24,174,-138
32594,3488,0,2023-03-01T18:52:45.866518,1755393,903,1533,969,-1253,-574,-488,24,174,-138
32595,3489,0,2023-03-01T18:52:45.871360,1755397,903,1533,969,-1253,-574,-488,24,174,-138
32596,3490,0,2023-03-01T18:52:45.876188,1755402,903,1530,968,-1258,-577,-485,24,174,-138
32597,3491,0,2023-03-01T18:52:45.882144,1755408,903,1530,968,-1258,-577,-485,24,174,-138
32598,3492,0,2023-03-01T18:52:45.887967,1755413,903,1530,968,-1258,-577,-485,24,174,-138
32599,3493,0,2023-03-01T18:52:45.892666,1755418,903,1530,968,-1258,-577,-485,24,174,-138
32600,3494,0,2023-03-01T18:52:45.897301,1755423,903,1530,971,-1274,-587,-489,24,174,-138
32601,3495,0,2023-03-01T18:52:45.902712,1755428,903,1530,971,-1274,-587,-489,24,174,-138
32602,3496,0,2023-03-01T18:52:45.908429,1755433,903,1530,971,-1274,-587,-489,24,174,-138
32603,3497,0,2023-03-01T18:52:45.913386,1755439,903,1530,971,-1274,-587,-489,24,174,-138
32604,3498,0,2023-03-01T18:52:45.918207,1755444,902,1529,972,-1273,-577,-486,25,171,-135
32605,3499,0,2023-03-01T18:52:45.923707,1755449,902,1529,972,-1273,-577,-486,25,171,-135
32606,3500,0,2023-03-01T18:52:45.928561,1755454,902,1529,972,-1273,-577,-486,25,171,-135
32607,3501,0,2023-03-01T18:52:45.933657,1755459,902,1529,972,-1273,-577,-486,25,171,-135
32608,3502,0,2023-03-01T18:52:45.938505,1755464,901,1531,975,-1270,-579,-486,25,171,-135
32609,3503,0,2023-03-01T18:52:45.944672,1755470,901,1531,975,-1270,-579,-486,25,171,-135
32610,3504,0,2023-03-01T18:52:45.950376,1755475,901,1531,975,-1270,-579,-486,25,171,-135
32611,3505,0,2023-03-01T18:52:45.955272,1755481,902,1531,975,-1263,-567,-481,25,171,-135
32612,3506,0,2023-03-01T18:52:45.962167,1755487,902,1531,975,-1263,-567,-481,25,171,-135
32613,3507,0,2023-03-01T18:52:45.968466,1755494,902,1531,975,-1263,-567,-481,25,171,-135
32614,3508,0,2023-03-01T18:52:45.973592,1755499,902,1531,975,-1263,-567,-481,25,171,-135
32615,3509,0,2023-03-01T18:52:45.978367,1755504,903,1528,974,-1261,-576,-478,25,171,-135
32616,3510,0,2023-03-01T18:52:45.984814,1755510,903,1528,974,-1261,-576,-478,25,171,-135
32617,3511,0,2023-03-01T18:52:45.989859,1755515,903,1528,974,-1261,-576,-478,25,171,-135
32618,3512,0,2023-03-01T18:52:45.994779,1755521,898,1527,974,-1263,-571,-473,25,171,-135
32619,3513,0,2023-03-01T18:52:46.000976,1755527,898,1527,974,-1263,-571,-473,25,171,-135
32620,3514,0,2023-03-01T18:52:46.006059,1755532,898,1527,974,-1263,-571,-473,25,171,-135
32621,3515,0,2023-03-01T18:52:46.010974,1755537,898,1527,974,-1263,-571,-473,25,171,-135
32622,3516,0,2023-03-01T18:52:46.015917,1755541,898,1524,972,-1253,-578,-480,25,171,-135
32623,3517,0,2023-03-01T18:52:46.022776,1755548,898,1524,972,-1253,-578,-480,25,171,-135
32624,3518,0,2023-03-01T18:52:46.028688,1755554,898,1524,972,-1253,-578,-480,25,171,-135
32625,3519,0,2023-03-01T18:52:46.033462,1755559,898,1524,972,-1253,-578,-480,25,171,-135
32626,3520,0,2023-03-01T18:52:46.038828,1755564,897,1526,977,-1262,-579,-480,25,171,-135
32627,3521,0,2023-03-01T18:52:46.044690,1755571,897,1526,977,-1262,-579,-480,25,171,-135
32628,3522,0,2023-03-01T18:52:46.050250,1755576,897,1526,977,-1262,-579,-480,25,171,-135
32629,3523,0,2023-03-01T18:52:46.056069,1755581,893,1525,985,-1259,-580,-480,24,178,-140
32630,3524,0,2023-03-01T18:52:46.062089,1755588,893,1525,985,-1259,-580,-480,24,178,-140
32631,3525,0,2023-03-01T18:52:46.067620,1755593,893,1525,985,-1259,-580,-480,24,178,-140
32632,3526,0,2023-03-01T18:52:46.072974,1755598,893,1525,985,-1259,-580,-480,24,178,-140
32633,3527,0,2023-03-01T18:52:46.078241,1755603,898,1525,980,-1259,-576,-490,24,178,-140
32634,3528,0,2023-03-01T18:52:46.084570,1755611,898,1525,980,-1259,-576,-490,24,178,-140
32635,3529,0,2023-03-01T18:52:46.089867,1755616,898,1525,980,-1259,-576,-490,24,178,-140
32636,3530,0,2023-03-01T18:52:46.094625,1755620,895,1527,991,-1258,-571,-485,24,178,-140
32637,3531,0,2023-03-01T18:52:46.101071,1755627,895,1527,991,-1258,-571,-485,24,178,-140
32638,3532,0,2023-03-01T18:52:46.106565,1755632,895,1527,991,-1258,-571,-485,24,178,-140
32639,3533,0,2023-03-01T18:52:46.111302,1755637,895,1527,991,-1258,-571,-485,24,178,-140
32640,3534,0,2023-03-01T18:52:46.116107,1755641,894,1523,982,-1265,-580,-481,24,178,-140
32641,3535,0,2023-03-01T18:52:46.121928,1755648,894,1523,982,-1265,-580,-481,24,178,-140
32642,3536,0,2023-03-01T18:52:46.127618,1755653,894,1523,982,-1265,-580,-481,24,178,-140
32643,3537,0,2023-03-01T18:52:46.132389,1755658,894,1523,982,-1265,-580,-481,24,178,-140
32644,3538,0,2023-03-01T18:52:46.137257,1755663,895,1525,984,-1265,-566,-482,24,178,-140
32645,3539,0,2023-03-01T18:52:46.143418,1755669,895,1525,984,-1265,-566,-482,24,178,-140
32646,3540,0,2023-03-01T18:52:46.148996,1755674,895,1525,984,-1265,-566,-482,24,178,-140
32647,3541,0,2023-03-01T18:52:46.154146,1755679,895,1519,981,-1261,-572,-484,24,178,-140
32648,3542,0,2023-03-01T18:52:46.159935,1755685,895,1519,981,-1261,-572,-484,24,178,-140
32649,3543,0,2023-03-01T18:52:46.165575,1755692,895,1519,981,-1261,-572,-484,24,178,-140
32650,3544,0,2023-03-01T18:52:46.171611,1755697,895,1519,981,-1261,-572,-484,24,178,-140
32651,3545,0,2023-03-01T18:52:46.176722,1755703,898,1523,986,-1268,-577,-488,23,171,-141
32652,3546,0,2023-03-01T18:52:46.182661,1755708,898,1523,986,-1268,-577,-488,23,171,-141
32653,3547,0,2023-03-01T18:52:46.188476,1755714,898,1523,986,-1268,-577,-488,23,171,-141
32654,3548,0,2023-03-01T18:52:46.193144,1755719,898,1523,986,-1268,-577,-488,23,171,-141
32655,3549,0,2023-03-01T18:52:46.198407,1755724,893,1521,988,-1266,-581,-484,23,171,-141
32656,3550,0,2023-03-01T18:52:46.204369,1755730,893,1521,988,-1266,-581,-484,23,171,-141
32657,3551,0,2023-03-01T18:52:46.209538,1755736,893,1521,988,-1266,-581,-484,23,171,-141
32658,3552,0,2023-03-01T18:52:46.214452,1755740,894,1522,991,-1273,-581,-486,23,171,-141
32659,3553,0,2023-03-01T18:52:46.221499,1755747,894,1522,991,-1273,-581,-486,23,171,-141
32660,3554,0,2023-03-01T18:52:46.227801,1755753,894,1522,991,-1273,-581,-486,23,171,-141
32661,3555,0,2023-03-01T18:52:46.232680,1755758,894,1522,991,-1273,-581,-486,23,171,-141
32662,3556,0,2023-03-01T18:52:46.237038,1755763,891,1517,996,-1264,-574,-487,23,171,-141
32663,3557,0,2023-03-01T18:52:46.243039,1755768,891,1517,996,-1264,-574,-487,23,171,-141
32664,3558,0,2023-03-01T18:52:46.248530,1755774,891,1517,996,-1264,-574,-487,23,171,-141
32665,3559,0,2023-03-01T18:52:46.253665,1755780,891,1517,996,-1264,-574,-487,23,171,-141
32666,3560,0,2023-03-01T18:52:46.258565,1755784,891,1517,996,-1264,-574,-487,23,171,-141
32667,3561,0,2023-03-01T18:52:46.263157,1755789,891,1517,996,-1264,-574,-487,23,171,-141
32668,3562,0,2023-03-01T18:52:46.268580,1755794,891,1517,996,-1264,-574,-487,23,171,-141
32669,3563,0,2023-03-01T18:52:46.273435,1755799,891,1517,996,-1264,-574,-487,23,171,-141
32670,3564,0,2023-03-01T18:52:46.278361,1755804,890,1520,987,-1263,-583,-489,23,171,-141
32671,3565,0,2023-03-01T18:52:46.284322,1755810,890,1520,987,-1263,-583,-489,23,171,-141
32672,3566,0,2023-03-01T18:52:46.289449,1755815,890,1520,987,-1263,-583,-489,23,171,-141
32673,3567,0,2023-03-01T18:52:46.294109,1755820,890,1520,987,-1263,-583,-489,23,171,-141
32674,3568,0,2023-03-01T18:52:46.298929,1755825,888,1518,993,-1261,-581,-488,23,171,-141
32675,3569,0,2023-03-01T18:52:46.305034,1755831,888,1518,993,-1261,-581,-488,23,171,-141
32676,3570,0,2023-03-01T18:52:46.310723,1755836,888,1518,993,-1261,-581,-488,23,171,-141
32677,3571,0,2023-03-01T18:52:46.315509,1755841,890,1521,998,-1266,-581,-488,32,168,-142
32678,3572,0,2023-03-01T18:52:46.321041,1755847,890,1521,998,-1266,-581,-488,32,168,-142
32679,3573,0,2023-03-01T18:52:46.325926,1755852,890,1521,998,-1266,-581,-488,32,168,-142
32680,3574,0,2023-03-01T18:52:46.330593,1755856,890,1521,998,-1266,-581,-488,32,168,-142
32681,3575,0,2023-03-01T18:52:46.335428,1755860,890,1520,996,-1257,-585,-487,32,168,-142
32682,3576,0,2023-03-01T18:52:46.341591,1755868,890,1520,996,-1257,-585,-487,32,168,-142
32683,3577,0,2023-03-01T18:52:46.347054,1755873,890,1520,996,-1257,-585,-487,32,168,-142
32684,3578,0,2023-03-01T18:52:46.351863,1755878,890,1520,996,-1257,-585,-487,32,168,-142
32685,3579,0,2023-03-01T18:52:46.356994,1755883,889,1518,997,-1260,-594,-490,32,168,-142
32686,3580,0,2023-03-01T18:52:46.363239,1755889,889,1518,997,-1260,-594,-490,32,168,-142
32687,3581,0,2023-03-01T18:52:46.368782,1755894,889,1518,997,-1260,-594,-490,32,168,-142
32688,3582,0,2023-03-01T18:52:46.373498,1755899,889,1518,997,-1260,-594,-490,32,168,-142
32689,3583,0,2023-03-01T18:52:46.378201,1755904,888,1515,992,-1253,-579,-484,32,168,-142
32690,3584,0,2023-03-01T18:52:46.383527,1755910,888,1515,992,-1253,-579,-484,32,168,-142
32691,3585,0,2023-03-01T18:52:46.388699,1755915,888,1515,992,-1253,-579,-484,32,168,-142
32692,3586,0,2023-03-01T18:52:46.393551,1755919,888,1515,992,-1253,-579,-484,32,168,-142
32693,3587,0,2023-03-01T18:52:46.398739,1755924,890,1517,991,-1264,-584,-486,32,168,-142
32694,3588,0,2023-03-01T18:52:46.404131,1755930,890,1517,991,-1264,-584,-486,32,168,-142
32695,3589,0,2023-03-01T18:52:46.409933,1755935,890,1517,991,-1264,-584,-486,32,168,-142
32696,3590,0,2023-03-01T18:52:46.415356,1755940,885,1512,994,-1261,-582,-487,32,168,-142
32697,3591,0,2023-03-01T18:52:46.423464,1755949,885,1512,994,-1261,-582,-487,32,168,-142
32698,3592,0,2023-03-01T18:52:46.429012,1755955,885,1512,994,-1261,-582,-487,32,168,-142
32699,3593,0,2023-03-01T18:52:46.434178,1755960,885,1512,994,-1261,-582,-487,32,168,-142
32700,3594,0,2023-03-01T18:52:46.440445,1755966,886,1517,1000,-1260,-575,-497,26,166,-146
32701,3595,0,2023-03-01T18:52:46.447399,1755973,886,1517,1000,-1260,-575,-497,26,166,-146
32702,3596,0,2023-03-01T18:52:46.453395,1755979,886,1517,1000,-1260,-575,-497,26,166,-146
32703,3597,0,2023-03-01T18:52:46.458332,1755984,885,1513,999,-1267,-579,-489,26,166,-146
32704,3598,0,2023-03-01T18:52:46.464690,1755991,885,1513,999,-1267,-579,-489,26,166,-146
32705,3599,0,2023-03-01T18:52:46.470743,1755996,885,1513,999,-1267,-579,-489,26,166,-146
32706,3600,0,2023-03-01T18:52:46.476386,1756002,883,1515,1004,-1260,-576,-478,26,166,-146
32707,3601,0,2023-03-01T18:52:46.484752,1756010,883,1515,1004,-1260,-576,-478,26,166,-146
32708,3602,0,2023-03-01T18:52:46.490339,1756016,883,1515,1004,-1260,-576,-478,26,166,-146
32709,3603,0,2023-03-01T18:52:46.495907,1756021,884,1516,997,-1270,-574,-486,26,166,-146
32710,3604,0,2023-03-01T18:52:46.502165,1756027,884,1516,997,-1270,-574,-486,26,166,-146
32711,3605,0,2023-03-01T18:52:46.508094,1756034,884,1516,997,-1270,-574,-486,26,166,-146
32712,3606,0,2023-03-01T18:52:46.513586,1756039,884,1516,997,-1270,-574,-486,26,166,-146
32713,3607,0,2023-03-01T18:52:46.520009,1756045,882,1513,994,-1264,-572,-494,26,166,-146
32714,3608,0,2023-03-01T18:52:46.526636,1756052,882,1513,994,-1264,-572,-494,26,166,-146
32715,3609,0,2023-03-01T18:52:46.533019,1756058,882,1513,994,-1264,-572,-494,26,166,-146
32716,3610,0,2023-03-01T18:52:46.538157,1756063,886,1514,1001,-1264,-574,-493,26,166,-146
32717,3611,0,2023-03-01T18:52:46.544130,1756069,886,1514,1001,-1264,-574,-493,26,166,-146
32718,3612,0,2023-03-01T18:52:46.550021,1756076,886,1514,1001,-1264,-574,-493,26,166,-146
32719,3613,0,2023-03-01T18:52:46.555257,1756081,885,1516,1005,-1270,-577,-485,26,174,-144
32720,3614,0,2023-03-01T18:52:46.561585,1756087,885,1516,1005,-1270,-577,-485,26,174,-144
32721,3615,0,2023-03-01T18:52:46.567038,1756093,885,1516,1005,-1270,-577,-485,26,174,-144
32722,3616,0,2023-03-01T18:52:46.572029,1756098,885,1516,1005,-1270,-577,-485,26,174,-144
32723,3617,0,2023-03-01T18:52:46.577277,1756102,882,1512,1006,-1262,-576,-490,26,174,-144
32724,3618,0,2023-03-01T18:52:46.583512,1756109,882,1512,1006,-1262,-576,-490,26,174,-144
32725,3619,0,2023-03-01T18:52:46.589357,1756114,882,1512,1006,-1262,-576,-490,26,174,-144
32726,3620,0,2023-03-01T18:52:46.594008,1756120,882,1512,1006,-1262,-576,-490,26,174,-144
32727,3621,0,2023-03-01T18:52:46.598780,1756125,883,1512,1002,-1265,-582,-494,26,174,-144
32728,3622,0,2023-03-01T18:52:46.604850,1756131,883,1512,1002,-1265,-582,-494,26,174,-144
32729,3623,0,2023-03-01T18:52:46.610508,1756136,883,1512,1002,-1265,-582,-494,26,174,-144
32730,3624,0,2023-03-01T18:52:46.615572,1756141,883,1510,1008,-1259,-580,-481,26,174,-144
32731,3625,0,2023-03-01T18:52:46.622299,1756147,883,1510,1008,-1259,-580,-481,26,174,-144
32732,3626,0,2023-03-01T18:52:46.627813,1756153,883,1510,1008,-1259,-580,-481,26,174,-144
32733,3627,0,2023-03-01T18:52:46.633052,1756158,883,1510,1008,-1259,-580,-481,26,174,-144
32734,3628,0,2023-03-01T18:52:46.638921,1756164,880,1512,1001,-1261,-578,-485,26,174,-144
32735,3629,0,2023-03-01T18:52:46.646023,1756172,880,1512,1001,-1261,-578,-485,26,174,-144
32736,3630,0,2023-03-01T18:52:46.651706,1756177,880,1512,1001,-1261,-578,-485,26,174,-144
32737,3631,0,2023-03-01T18:52:46.656572,1756182,880,1510,1001,-1260,-579,-481,26,174,-144
32738,3632,0,2023-03-01T18:52:46.661902,1756188,880,1510,1001,-1260,-579,-481,26,174,-144
32739,3633,0,2023-03-01T18:52:46.667791,1756193,880,1510,1001,-1260,-579,-481,26,174,-144
32740,3634,0,2023-03-01T18:52:46.673073,1756198,880,1510,1001,-1260,-579,-481,26,174,-144
32741,3635,0,2023-03-01T18:52:46.678408,1756204,879,1503,1006,-1264,-574,-483,26,174,-144
32742,3636,0,2023-03-01T18:52:46.684699,1756210,879,1503,1006,-1264,-574,-483,26,174,-144
32743,3637,0,2023-03-01T18:52:46.690600,1756216,879,1503,1006,-1264,-574,-483,26,174,-144
32744,3638,0,2023-03-01T18:52:46.695348,1756221,880,1510,1005,-1262,-570,-483,28,174,-140
32745,3639,0,2023-03-01T18:52:46.700690,1756226,880,1510,1005,-1262,-570,-483,28,174,-140
32746,3640,0,2023-03-01T18:52:46.706009,1756231,880,1510,1005,-1262,-570,-483,28,174,-140
32747,3641,0,2023-03-01T18:52:46.710678,1756236,880,1510,1005,-1262,-570,-483,28,174,-140
32748,3642,0,2023-03-01T18:52:46.715636,1756241,878,1507,1002,-1264,-580,-477,28,174,-140
32749,3643,0,2023-03-01T18:52:46.721607,1756247,878,1507,1002,-1264,-580,-477,28,174,-140
32750,3644,0,2023-03-01T18:52:46.727380,1756253,878,1507,1002,-1264,-580,-477,28,174,-140
32751,3645,0,2023-03-01T18:52:46.732910,1756258,878,1507,1002,-1264,-580,-477,28,174,-140
32752,3646,0,2023-03-01T18:52:46.738208,1756264,879,1510,1002,-1263,-580,-493,28,174,-140
32753,3647,0,2023-03-01T18:52:46.743631,1756269,879,1510,1002,-1263,-580,-493,28,174,-140
32754,3648,0,2023-03-01T18:52:46.749560,1756275,879,1510,1002,-1263,-580,-493,28,174,-140
32755,3649,0,2023-03-01T18:52:46.754691,1756280,879,1510,1002,-1263,-580,-493,28,174,-140
32756,3650,0,2023-03-01T18:52:46.759837,1756285,879,1507,1010,-1256,-572,-479,28,174,-140
32757,3651,0,2023-03-01T18:52:46.766207,1756292,879,1507,1010,-1256,-572,-479,28,174,-140
32758,3652,0,2023-03-01T18:52:46.771152,1756297,879,1507,1010,-1256,-572,-479,28,174,-140
32759,3653,0,2023-03-01T18:52:46.776189,1756302,878,1508,1009,-1258,-572,-481,28,174,-140
32760,3654,0,2023-03-01T18:52:46.783044,1756308,878,1508,1009,-1258,-572,-481,28,174,-140
32761,3655,0,2023-03-01T18:52:46.787919,1756313,878,1508,1009,-1258,-572,-481,28,174,-140
32762,3656,0,2023-03-01T18:52:46.792710,1756318,878,1508,1009,-1258,-572,-481,28,174,-140
32763,3657,0,2023-03-01T18:52:46.797610,1756323,880,1507,1012,-1248,-578,-481,28,174,-140
32764,3658,0,2023-03-01T18:52:46.804197,1756329,880,1507,1012,-1248,-578,-481,28,174,-140
32765,3659,0,2023-03-01T18:52:46.809547,1756336,880,1507,1012,-1248,-578,-481,28,174,-140
32766,3660,0,2023-03-01T18:52:46.814039,1756340,880,1507,1012,-1248,-578,-481,28,174,-140
32767,3661,0,2023-03-01T18:52:46.818991,1756345,873,1507,1008,-1242,-566,-468,29,167,-133
32768,3662,0,2023-03-01T18:52:46.824114,1756350,873,1507,1008,-1242,-566,-468,29,167,-133
32769,3663,0,2023-03-01T18:52:46.829751,1756355,873,1507,1008,-1242,-566,-468,29,167,-133
32770,3664,0,2023-03-01T18:52:46.834494,1756360,873,1507,1008,-1242,-566,-468,29,167,-133
32771,3665,0,2023-03-01T18:52:46.839173,1756365,879,1502,1009,-1252,-570,-483,29,167,-133
32772,3666,0,2023-03-01T18:52:46.844765,1756370,879,1502,1009,-1252,-570,-483,29,167,-133
32773,3667,0,2023-03-01T18:52:46.850640,1756377,879,1502,1009,-1252,-570,-483,29,167,-133
32774,3668,0,2023-03-01T18:52:46.855113,1756381,875,1501,1013,-1258,-566,-480,29,167,-133
32775,3669,0,2023-03-01T18:52:46.860593,1756386,875,1501,1013,-1258,-566,-480,29,167,-133
32776,3670,0,2023-03-01T18:52:46.865028,1756391,875,1501,1013,-1258,-566,-480,29,167,-133
32777,3671,0,2023-03-01T18:52:46.870251,1756396,875,1501,1013,-1258,-566,-480,29,167,-133
32778,3672,0,2023-03-01T18:52:46.874962,1756400,873,1501,1010,-1266,-575,-487,29,167,-133
32779,3673,0,2023-03-01T18:52:46.880478,1756406,873,1501,1010,-1266,-575,-487,29,167,-133
32780,3674,0,2023-03-01T18:52:46.885215,1756411,873,1501,1010,-1266,-575,-487,29,167,-133
32781,3675,0,2023-03-01T18:52:46.890212,1756416,873,1501,1010,-1266,-575,-487,29,167,-133
32782,3676,0,2023-03-01T18:52:46.895229,1756421,874,1502,1010,-1253,-576,-481,29,167,-133
32783,3677,0,2023-03-01T18:52:46.900766,1756427,874,1502,1010,-1253,-576,-481,29,167,-133
32784,3678,0,2023-03-01T18:52:46.905849,1756431,874,1502,1010,-1253,-576,-481,29,167,-133
32785,3679,0,2023-03-01T18:52:46.911608,1756437,874,1502,1010,-1253,-576,-481,29,167,-133
32786,3680,0,2023-03-01T18:52:46.916543,1756442,874,1503,1012,-1246,-575,-487,29,167,-133
32787,3681,0,2023-03-01T18:52:46.922463,1756448,874,1503,1012,-1246,-575,-487,29,167,-133
32788,3682,0,2023-03-01T18:52:46.927896,1756453,874,1503,1012,-1246,-575,-487,29,167,-133
32789,3683,0,2023-03-01T18:52:46.932626,1756459,874,1503,1012,-1246,-575,-487,29,167,-133
32790,3684,0,2023-03-01T18:52:46.937481,1756464,873,1504,1017,-1242,-573,-482,29,167,-133
32791,3685,0,2023-03-01T18:52:46.943228,1756469,873,1504,1017,-1242,-573,-482,29,167,-133
32792,3686,0,2023-03-01T18:52:46.948875,1756475,873,1504,1017,-1242,-573,-482,29,167,-133
32793,3687,0,2023-03-01T18:52:46.954486,1756480,873,1504,1017,-1242,-573,-482,29,167,-133
32794,3688,0,2023-03-01T18:52:46.959370,1756485,867,1502,1021,-1249,-574,-473,24,176,-136
32795,3689,0,2023-03-01T18:52:46.965122,1756490,867,1502,1021,-1249,-574,-473,24,176,-136
32796,3690,0,2023-03-01T18:52:46.971097,1756496,867,1502,1021,-1249,-574,-473,24,176,-136
32797,3691,0,2023-03-01T18:52:46.975926,1756502,872,1500,1014,-1251,-572,-473,24,176,-136
32798,3692,0,2023-03-01T18:52:46.981904,1756508,872,1500,1014,-1251,-572,-473,24,176,-136
32799,3693,0,2023-03-01T18:52:46.987300,1756513,872,1500,1014,-1251,-572,-473,24,176,-136
32800,3694,0,2023-03-01T18:52:46.992560,1756518,872,1500,1014,-1251,-572,-473,24,176,-136
32801,3695,0,2023-03-01T18:52:46.997663,1756523,869,1495,1021,-1246,-572,-472,24,176,-136
32802,3696,0,2023-03-01T18:52:47.007942,1756533,869,1495,1021,-1246,-572,-472,24,176,-136
32803,3697,0,2023-03-01T18:52:47.012732,1756538,869,1495,1021,-1246,-572,-472,24,176,-136
32804,3698,0,2023-03-01T18:52:47.017609,1756544,869,1501,1015,-1251,-567,-473,24,176,-136
32805,3699,0,2023-03-01T18:52:47.023586,1756550,869,1501,1015,-1251,-567,-473,24,176,-136
32806,3700,0,2023-03-01T18:52:47.029298,1756555,869,1501,1015,-1251,-567,-473,24,176,-136
32807,3701,0,2023-03-01T18:52:47.034206,1756560,869,1501,1015,-1251,-567,-473,24,176,-136
32808,3702,0,2023-03-01T18:52:47.038778,1756565,870,1499,1021,-1255,-571,-477,24,176,-136
32809,3703,0,2023-03-01T18:52:47.044500,1756570,870,1499,1021,-1255,-571,-477,24,176,-136
32810,3704,0,2023-03-01T18:52:47.050017,1756575,870,1499,1021,-1255,-571,-477,24,176,-136
32811,3705,0,2023-03-01T18:52:47.055354,1756581,870,1498,1022,-1249,-568,-477,24,176,-136
32812,3706,0,2023-03-01T18:52:47.061277,1756587,870,1498,1022,-1249,-568,-477,24,176,-136
32813,3707,0,2023-03-01T18:52:47.066806,1756593,870,1498,1022,-1249,-568,-477,24,176,-136
32814,3708,0,2023-03-01T18:52:47.071608,1756598,870,1498,1022,-1249,-568,-477,24,176,-136
32815,3709,0,2023-03-01T18:52:47.076594,1756602,869,1499,1021,-1246,-577,-487,31,173,-133
32816,3710,0,2023-03-01T18:52:47.082811,1756608,869,1499,1021,-1246,-577,-487,31,173,-133
32817,3711,0,2023-03-01T18:52:47.088621,1756614,869,1499,1021,-1246,-577,-487,31,173,-133
32818,3712,0,2023-03-01T18:52:47.093754,1756619,869,1499,1021,-1246,-577,-487,31,173,-133
32819,3713,0,2023-03-01T18:52:47.098572,1756624,869,1497,1026,-1257,-573,-490,31,173,-133
32820,3714,0,2023-03-01T18:52:47.104430,1756631,869,1497,1026,-1257,-573,-490,31,173,-133
32821,3715,0,2023-03-01T18:52:47.110104,1756636,869,1497,1026,-1257,-573,-490,31,173,-133
32822,3716,0,2023-03-01T18:52:47.115053,1756641,869,1497,1026,-1257,-573,-490,31,173,-133
32823,3717,0,2023-03-01T18:52:47.119839,1756646,869,1494,1025,-1256,-580,-482,31,173,-133
32824,3718,0,2023-03-01T18:52:47.125328,1756651,869,1494,1025,-1256,-580,-482,31,173,-133
32825,3719,0,2023-03-01T18:52:47.130305,1756656,869,1494,1025,-1256,-580,-482,31,173,-133
32826,3720,0,2023-03-01T18:52:47.135083,1756661,869,1494,1025,-1256,-580,-482,31,173,-133
32827,3721,0,2023-03-01T18:52:47.139821,1756665,867,1498,1022,-1252,-573,-478,31,173,-133
32828,3722,0,2023-03-01T18:52:47.145162,1756670,867,1498,1022,-1252,-573,-478,31,173,-133
32829,3723,0,2023-03-01T18:52:47.150544,1756677,867,1498,1022,-1252,-573,-478,31,173,-133
32830,3724,0,2023-03-01T18:52:47.155273,1756681,868,1494,1022,-1250,-569,-472,31,173,-133
32831,3725,0,2023-03-01T18:52:47.161503,1756687,868,1494,1022,-1250,-569,-472,31,173,-133
32832,3726,0,2023-03-01T18:52:47.166901,1756693,868,1494,1022,-1250,-569,-472,31,173,-133
32833,3727,0,2023-03-01T18:52:47.171987,1756697,868,1494,1022,-1250,-569,-472,31,173,-133
32834,3728,0,2023-03-01T18:52:47.177519,1756703,865,1498,1022,-1248,-565,-475,31,173,-133
32835,3729,0,2023-03-01T18:52:47.183695,1756709,865,1498,1022,-1248,-565,-475,31,173,-133
32836,3730,0,2023-03-01T18:52:47.189288,1756715,865,1498,1022,-1248,-565,-475,31,173,-133
32837,3731,0,2023-03-01T18:52:47.193986,1756720,865,1498,1022,-1248,-565,-475,31,173,-133
32838,3732,0,2023-03-01T18:52:47.199491,1756725,868,1494,1023,-1255,-577,-478,31,173,-133
32839,3733,0,2023-03-01T18:52:47.205987,1756732,868,1494,1023,-1255,-577,-478,31,173,-133
32840,3734,0,2023-03-01T18:52:47.211693,1756737,868,1494,1023,-1255,-577,-478,31,173,-133
32841,3735,0,2023-03-01T18:52:47.216859,1756742,863,1495,1026,-1252,-583,-481,30,174,-142
32842,3736,0,2023-03-01T18:52:47.222538,1756748,863,1495,1026,-1252,-583,-481,30,174,-142
32843,3737,0,2023-03-01T18:52:47.228368,1756753,863,1495,1026,-1252,-583,-481,30,174,-142
32844,3738,0,2023-03-01T18:52:47.233497,1756759,863,1495,1026,-1252,-583,-481,30,174,-142
32845,3739,0,2023-03-01T18:52:47.238307,1756764,866,1496,1028,-1247,-564,-477,30,174,-142
32846,3740,0,2023-03-01T18:52:47.243209,1756769,866,1496,1028,-1247,-564,-477,30,174,-142
32847,3741,0,2023-03-01T18:52:47.248014,1756774,866,1496,1028,-1247,-564,-477,30,174,-142
32848,3742,0,2023-03-01T18:52:47.252539,1756778,866,1496,1028,-1247,-564,-477,30,174,-142
32849,3743,0,2023-03-01T18:52:47.257194,1756783,862,1491,1028,-1247,-575,-483,30,174,-142
32850,3744,0,2023-03-01T18:52:47.262472,1756788,862,1491,1028,-1247,-575,-483,30,174,-142
32851,3745,0,2023-03-01T18:52:47.267877,1756793,862,1491,1028,-1247,-575,-483,30,174,-142
32852,3746,0,2023-03-01T18:52:47.272966,1756798,862,1491,1028,-1247,-575,-483,30,174,-142
32853,3747,0,2023-03-01T18:52:47.278175,1756804,863,1496,1031,-1247,-578,-482,30,174,-142
32854,3748,0,2023-03-01T18:52:47.284787,1756811,863,1496,1031,-1247,-578,-482,30,174,-142
32855,3749,0,2023-03-01T18:52:47.290187,1756816,863,1496,1031,-1247,-578,-482,30,174,-142
32856,3750,0,2023-03-01T18:52:47.295483,1756821,863,1496,1031,-1247,-578,-482,30,174,-142
32857,3751,0,2023-03-01T18:52:47.301876,1756827,860,1495,1028,-1244,-573,-481,30,174,-142
32858,3752,0,2023-03-01T18:52:47.308041,1756833,860,1495,1028,-1244,-573,-481,30,174,-142
32859,3753,0,2023-03-01T18:52:47.312809,1756838,860,1495,1028,-1244,-573,-481,30,174,-142
32860,3754,0,2023-03-01T18:52:47.317821,1756844,862,1491,1033,-1248,-572,-480,30,174,-142
32861,3755,0,2023-03-01T18:52:47.323045,1756849,862,1491,1033,-1248,-572,-480,30,174,-142
32862,3756,0,2023-03-01T18:52:47.328849,1756855,862,1491,1033,-1248,-572,-480,30,174,-142
32863,3757,0,2023-03-01T18:52:47.333943,1756860,862,1491,1033,-1248,-572,-480,30,174,-142
32864,3758,0,2023-03-01T18:52:47.339038,1756865,861,1490,1030,-1249,-575,-476,29,169,-143
32865,3759,0,2023-03-01T18:52:47.345148,1756870,861,1490,1030,-1249,-575,-476,29,169,-143
32866,3760,0,2023-03-01T18:52:47.350540,1756876,861,1490,1030,-1249,-575,-476,29,169,-143
32867,3761,0,2023-03-01T18:52:47.355398,1756881,862,1494,1032,-1262,-566,-480,29,169,-143
32868,3762,0,2023-03-01T18:52:47.360941,1756887,862,1494,1032,-1262,-566,-480,29,169,-143
32869,3763,0,2023-03-01T18:52:47.365809,1756892,862,1494,1032,-1262,-566,-480,29,169,-143
32870,3764,0,2023-03-01T18:52:47.371426,1756897,862,1494,1032,-1262,-566,-480,29,169,-143
32871,3765,0,2023-03-01T18:52:47.376072,1756902,859,1487,1028,-1257,-566,-474,29,169,-143
32872,3766,0,2023-03-01T18:52:47.382020,1756908,859,1487,1028,-1257,-566,-474,29,169,-143
32873,3767,0,2023-03-01T18:52:47.388001,1756913,859,1487,1028,-1257,-566,-474,29,169,-143
32874,3768,0,2023-03-01T18:52:47.395336,1756921,859,1487,1028,-1257,-566,-474,29,169,-143
32875,3769,0,2023-03-01T18:52:47.400196,1756925,862,1489,1033,-1257,-558,-481,29,169,-143
32876,3770,0,2023-03-01T18:52:47.405522,1756932,862,1489,1033,-1257,-558,-481,29,169,-143
32877,3771,0,2023-03-01T18:52:47.411931,1756937,862,1489,1033,-1257,-558,-481,29,169,-143
32878,3772,0,2023-03-01T18:52:47.416986,1756943,863,1489,1029,-1244,-566,-472,29,169,-143
32879,3773,0,2023-03-01T18:52:47.423324,1756949,863,1489,1029,-1244,-566,-472,29,169,-143
32880,3774,0,2023-03-01T18:52:47.428924,1756955,863,1489,1029,-1244,-566,-472,29,169,-143
32881,3775,0,2023-03-01T18:52:47.434357,1756959,863,1489,1029,-1244,-566,-472,29,169,-143
32882,3776,0,2023-03-01T18:52:47.439003,1756964,860,1486,1033,-1247,-575,-478,29,169,-143
32883,3777,0,2023-03-01T18:52:47.445263,1756971,860,1486,1033,-1247,-575,-478,29,169,-143
32884,3778,0,2023-03-01T18:52:47.450584,1756977,860,1486,1033,-1247,-575,-478,29,169,-143
32885,3779,0,2023-03-01T18:52:47.455129,1756981,860,1486,1033,-1247,-575,-478,29,169,-143
32886,3780,0,2023-03-01T18:52:47.459803,1756986,860,1489,1033,-1254,-570,-475,31,173,-141
32887,3781,0,2023-03-01T18:52:47.464969,1756991,860,1489,1033,-1254,-570,-475,31,173,-141
32888,3782,0,2023-03-01T18:52:47.469528,1756995,860,1489,1033,-1254,-570,-475,31,173,-141
32889,3783,0,2023-03-01T18:52:47.474408,1757000,860,1489,1033,-1254,-570,-475,31,173,-141
32890,3784,0,2023-03-01T18:52:47.479548,1757005,859,1491,1043,-1254,-564,-473,31,173,-141
32891,3785,0,2023-03-01T18:52:47.485483,1757011,859,1491,1043,-1254,-564,-473,31,173,-141
32892,3786,0,2023-03-01T18:52:47.491110,1757017,859,1491,1043,-1254,-564,-473,31,173,-141
32893,3787,0,2023-03-01T18:52:47.496394,1757022,858,1490,1038,-1251,-570,-476,31,173,-141
32894,3788,0,2023-03-01T18:52:47.502362,1757028,858,1490,1038,-1251,-570,-476,31,173,-141
32895,3789,0,2023-03-01T18:52:47.508584,1757034,858,1490,1038,-1251,-570,-476,31,173,-141
32896,3790,0,2023-03-01T18:52:47.513624,1757039,858,1490,1038,-1251,-570,-476,31,173,-141
32897,3791,0,2023-03-01T18:52:47.518625,1757044,856,1486,1041,-1245,-577,-472,31,173,-141
32898,3792,0,2023-03-01T18:52:47.525543,1757050,856,1486,1041,-1245,-577,-472,31,173,-141
32899,3793,0,2023-03-01T18:52:47.531551,1757057,856,1486,1041,-1245,-577,-472,31,173,-141
