,Unnamed: 0,imu,server_time,arduino_time,ax,ay,az,gx,gy,gz,mx,my,mz
32900,3794,0,2023-03-01T18:52:47.536910,1757063,856,1491,1041,-1249,-580,-477,31,173,-141
32901,3795,0,2023-03-01T18:52:47.543449,1757069,856,1491,1041,-1249,-580,-477,31,173,-141
32902,3796,0,2023-03-01T18:52:47.549011,1757075,856,1491,1041,-1249,-580,-477,31,173,-141
32903,3797,0,2023-03-01T18:52:47.554019,1757080,856,1491,1041,-1249,-580,-477,31,173,-141
32904,3798,0,2023-03-01T18:52:47.559273,1757085,855,1484,1048,-1237,-577,-478,31,173,-141
32905,3799,0,2023-03-01T18:52:47.566122,1757091,855,1484,1048,-1237,-577,-478,31,173,-141
32906,3800,0,2023-03-01T18:52:47.573288,1757099,855,1484,1048,-1237,-577,-478,31,173,-141
32907,3801,0,2023-03-01T18:52:47.578522,1757104,854,1487,1043,-1251,-572,-487,31,173,-141
32908,3802,0,2023-03-01T18:52:47.584882,1757111,854,1487,1043,-1251,-572,-487,31,173,-141
32909,3803,0,2023-03-01T18:52:47.590876,1757116,854,1487,1043,-1251,-572,-487,31,173,-141
32910,3804,0,2023-03-01T18:52:47.596251,1757122,858,1483,1046,-1239,-570,-474,31,173,-141
32911,3805,0,2023-03-01T18:52:47.601499,1757127,858,1483,1046,-1239,-570,-474,23,173,-137
32912,3806,0,2023-03-01T18:52:47.606411,1757132,858,1483,1046,-1239,-570,-474,23,173,-137
32913,3807,0,2023-03-01T18:52:47.611574,1757137,858,1483,1046,-1239,-570,-474,23,173,-137
32914,3808,0,2023-03-01T18:52:47.618181,1757144,858,1483,1047,-1235,-571,-473,23,173,-137
32915,3809,0,2023-03-01T18:52:47.624931,1757151,858,1483,1047,-1235,-571,-473,23,173,-137
32916,3810,0,2023-03-01T18:52:47.630578,1757156,858,1483,1047,-1235,-571,-473,23,173,-137
32917,3811,0,2023-03-01T18:52:47.635912,1757162,854,1484,1047,-1245,-571,-476,23,173,-137
32918,3812,0,2023-03-01T18:52:47.643291,1757168,854,1484,1047,-1245,-571,-476,23,173,-137
32919,3813,0,2023-03-01T18:52:47.648270,1757173,854,1484,1047,-1245,-571,-476,23,173,-137
32920,3814,0,2023-03-01T18:52:47.653326,1757178,854,1484,1047,-1245,-571,-476,23,173,-137
32921,3815,0,2023-03-01T18:52:47.658712,1757185,853,1482,1044,-1251,-568,-478,23,173,-137
32922,3816,0,2023-03-01T18:52:47.664809,1757191,853,1482,1044,-1251,-568,-478,23,173,-137
32923,3817,0,2023-03-01T18:52:47.670459,1757196,853,1482,1044,-1251,-568,-478,23,173,-137
32924,3818,0,2023-03-01T18:52:47.675932,1757201,853,1482,1044,-1251,-568,-478,23,173,-137
32925,3819,0,2023-03-01T18:52:47.681203,1757207,851,1482,1042,-1247,-571,-484,23,173,-137
32926,3820,0,2023-03-01T18:52:47.687802,1757213,851,1482,1042,-1247,-571,-484,23,173,-137
32927,3821,0,2023-03-01T18:52:47.693146,1757218,851,1482,1042,-1247,-571,-484,23,173,-137
32928,3822,0,2023-03-01T18:52:47.698152,1757223,853,1481,1039,-1246,-573,-481,23,173,-137
32929,3823,0,2023-03-01T18:52:47.704120,1757230,853,1481,1039,-1246,-573,-481,23,173,-137
32930,3824,0,2023-03-01T18:52:47.709780,1757236,853,1481,1039,-1246,-573,-481,23,173,-137
32931,3825,0,2023-03-01T18:52:47.714716,1757241,853,1481,1039,-1246,-573,-481,23,173,-137
32932,3826,0,2023-03-01T18:52:47.719571,1757245,850,1480,1044,-1254,-561,-482,30,184,-138
32933,3827,0,2023-03-01T18:52:47.725523,1757251,850,1480,1044,-1254,-561,-482,30,184,-138
32934,3828,0,2023-03-01T18:52:47.731306,1757257,850,1480,1044,-1254,-561,-482,30,184,-138
32935,3829,0,2023-03-01T18:52:47.736272,1757262,855,1479,1047,-1254,-568,-484,30,184,-138
32936,3830,0,2023-03-01T18:52:47.742946,1757268,855,1479,1047,-1254,-568,-484,30,184,-138
32937,3831,0,2023-03-01T18:52:47.748279,1757274,855,1479,1047,-1254,-568,-484,30,184,-138
32938,3832,0,2023-03-01T18:52:47.754010,1757279,855,1479,1047,-1254,-568,-484,30,184,-138
32939,3833,0,2023-03-01T18:52:47.759159,1757285,849,1481,1052,-1239,-572,-482,30,184,-138
32940,3834,0,2023-03-01T18:52:47.764908,1757291,849,1481,1052,-1239,-572,-482,30,184,-138
32941,3835,0,2023-03-01T18:52:47.770591,1757296,849,1481,1052,-1239,-572,-482,30,184,-138
32942,3836,0,2023-03-01T18:52:47.775387,1757301,849,1481,1052,-1239,-572,-482,30,184,-138
32943,3837,0,2023-03-01T18:52:47.781041,1757306,849,1479,1048,-1246,-574,-481,30,184,-138
32944,3838,0,2023-03-01T18:52:47.787686,1757313,849,1479,1048,-1246,-574,-481,30,184,-138
32945,3839,0,2023-03-01T18:52:47.793217,1757319,849,1479,1048,-1246,-574,-481,30,184,-138
32946,3840,0,2023-03-01T18:52:47.798249,1757324,847,1481,1044,-1250,-575,-490,30,184,-138
32947,3841,0,2023-03-01T18:52:47.804206,1757330,847,1481,1044,-1250,-575,-490,30,184,-138
32948,3842,0,2023-03-01T18:52:47.809819,1757335,847,1481,1044,-1250,-575,-490,30,184,-138
32949,3843,0,2023-03-01T18:52:47.814825,1757340,847,1481,1044,-1250,-575,-490,30,184,-138
32950,3844,0,2023-03-01T18:52:47.819872,1757345,847,1482,1052,-1253,-573,-484,30,184,-138
32951,3845,0,2023-03-01T18:52:47.826114,1757351,847,1482,1052,-1253,-573,-484,30,184,-138
32952,3846,0,2023-03-01T18:52:47.831367,1757358,847,1482,1052,-1253,-573,-484,30,184,-138
32953,3847,0,2023-03-01T18:52:47.836498,1757362,850,1481,1051,-1251,-574,-483,30,184,-138
32954,3848,0,2023-03-01T18:52:47.843454,1757369,850,1481,1051,-1251,-574,-483,30,184,-138
32955,3849,0,2023-03-01T18:52:47.848890,1757375,850,1481,1051,-1251,-574,-483,30,184,-138
32956,3850,0,2023-03-01T18:52:47.853943,1757379,850,1481,1051,-1251,-574,-483,30,184,-138
32957,3851,0,2023-03-01T18:52:47.858887,1757384,844,1478,1053,-1243,-564,-480,27,177,-145
32958,3852,0,2023-03-01T18:52:47.865372,1757390,844,1478,1053,-1243,-564,-480,27,177,-145
32959,3853,0,2023-03-01T18:52:47.871521,1757396,844,1478,1053,-1243,-564,-480,27,177,-145
32960,3854,0,2023-03-01T18:52:47.876367,1757402,848,1478,1052,-1247,-580,-486,27,177,-145
32961,3855,0,2023-03-01T18:52:47.882581,1757408,848,1478,1052,-1247,-580,-486,27,177,-145
32962,3856,0,2023-03-01T18:52:47.888552,1757414,848,1478,1052,-1247,-580,-486,27,177,-145
32963,3857,0,2023-03-01T18:52:47.893493,1757419,848,1478,1052,-1247,-580,-486,27,177,-145
32964,3858,0,2023-03-01T18:52:47.898569,1757424,847,1478,1052,-1249,-569,-480,27,177,-145
32965,3859,0,2023-03-01T18:52:47.904483,1757430,847,1478,1052,-1249,-569,-480,27,177,-145
32966,3860,0,2023-03-01T18:52:47.909782,1757435,847,1478,1052,-1249,-569,-480,27,177,-145
32967,3861,0,2023-03-01T18:52:47.914354,1757441,847,1478,1052,-1249,-569,-480,27,177,-145
32968,3862,0,2023-03-01T18:52:47.918993,1757445,844,1479,1046,-1253,-578,-483,27,177,-145
32969,3863,0,2023-03-01T18:52:47.923953,1757450,844,1479,1046,-1253,-578,-483,27,177,-145
32970,3864,0,2023-03-01T18:52:47.930101,1757456,844,1479,1046,-1253,-578,-483,27,177,-145
32971,3865,0,2023-03-01T18:52:47.934905,1757461,844,1479,1046,-1253,-578,-483,27,177,-145
32972,3866,0,2023-03-01T18:52:47.939702,1757465,845,1477,1058,-1257,-572,-486,27,177,-145
32973,3867,0,2023-03-01T18:52:47.945073,1757470,845,1477,1058,-1257,-572,-486,27,177,-145
32974,3868,0,2023-03-01T18:52:47.950784,1757476,845,1477,1058,-1257,-572,-486,27,177,-145
32975,3869,0,2023-03-01T18:52:47.955522,1757481,845,1477,1058,-1257,-572,-486,27,177,-145
32976,3870,0,2023-03-01T18:52:47.960448,1757487,846,1476,1054,-1247,-568,-476,27,177,-145
32977,3871,0,2023-03-01T18:52:47.966316,1757492,846,1476,1054,-1247,-568,-476,27,177,-145
32978,3872,0,2023-03-01T18:52:47.971742,1757498,846,1476,1054,-1247,-568,-476,27,177,-145
32979,3873,0,2023-03-01T18:52:47.976903,1757502,846,1478,1059,-1249,-575,-478,27,177,-145
32980,3874,0,2023-03-01T18:52:47.983315,1757509,846,1478,1059,-1249,-575,-478,36,174,-132
32981,3875,0,2023-03-01T18:52:47.988900,1757514,846,1478,1059,-1249,-575,-478,36,174,-132
32982,3876,0,2023-03-01T18:52:47.994198,1757520,846,1478,1059,-1249,-575,-478,36,174,-132
32983,3877,0,2023-03-01T18:52:47.999141,1757524,843,1474,1058,-1245,-570,-473,36,174,-132
32984,3878,0,2023-03-01T18:52:48.005109,1757531,843,1474,1058,-1245,-570,-473,36,174,-132
32985,3879,0,2023-03-01T18:52:48.010547,1757536,843,1474,1058,-1245,-570,-473,36,174,-132
32986,3880,0,2023-03-01T18:52:48.015482,1757541,843,1474,1058,-1245,-570,-473,36,174,-132
32987,3881,0,2023-03-01T18:52:48.020172,1757546,846,1470,1056,-1248,-574,-482,36,174,-132
32988,3882,0,2023-03-01T18:52:48.026316,1757552,846,1470,1056,-1248,-574,-482,36,174,-132
32989,3883,0,2023-03-01T18:52:48.032083,1757557,846,1470,1056,-1248,-574,-482,36,174,-132
32990,3884,0,2023-03-01T18:52:48.037316,1757563,843,1474,1059,-1245,-580,-478,36,174,-132
32991,3885,0,2023-03-01T18:52:48.044002,1757570,843,1474,1059,-1245,-580,-478,36,174,-132
32992,3886,0,2023-03-01T18:52:48.049766,1757576,843,1474,1059,-1245,-580,-478,36,174,-132
32993,3887,0,2023-03-01T18:52:48.055422,1757581,843,1474,1059,-1245,-580,-478,36,174,-132
32994,3888,0,2023-03-01T18:52:48.060373,1757586,845,1473,1050,-1239,-580,-479,36,174,-132
32995,3889,0,2023-03-01T18:52:48.066405,1757592,845,1473,1050,-1239,-580,-479,36,174,-132
32996,3890,0,2023-03-01T18:52:48.072169,1757598,845,1473,1050,-1239,-580,-479,36,174,-132
32997,3891,0,2023-03-01T18:52:48.076929,1757602,841,1474,1061,-1236,-574,-478,36,174,-132
32998,3892,0,2023-03-01T18:52:48.082217,1757607,841,1474,1061,-1236,-574,-478,36,174,-132
32999,3893,0,2023-03-01T18:52:48.087882,1757614,841,1474,1061,-1236,-574,-478,36,174,-132
33000,3894,0,2023-03-01T18:52:48.092759,1757619,841,1474,1061,-1236,-574,-478,36,174,-132
33001,3895,0,2023-03-01T18:52:48.097860,1757624,842,1470,1061,-1235,-581,-476,36,174,-132
33002,3896,0,2023-03-01T18:52:48.104766,1757630,842,1470,1061,-1235,-581,-476,36,174,-132
33003,3897,0,2023-03-01T18:52:48.110091,1757636,842,1470,1061,-1235,-581,-476,36,174,-132
33004,3898,0,2023-03-01T18:52:48.115142,1757640,842,1470,1061,-1235,-581,-476,36,174,-132
33005,3899,0,2023-03-01T18:52:48.120490,1757646,845,1474,1057,-1244,-578,-484,36,172,-136
33006,3900,0,2023-03-01T18:52:48.126839,1757652,845,1474,1057,-1244,-578,-484,36,172,-136
33007,3901,0,2023-03-01T18:52:48.132339,1757659,845,1474,1057,-1244,-578,-484,36,172,-136
33008,3902,0,2023-03-01T18:52:48.137291,1757663,840,1470,1061,-1232,-571,-469,36,172,-136
33009,3903,0,2023-03-01T18:52:48.143079,1757669,840,1470,1061,-1232,-571,-469,36,172,-136
33010,3904,0,2023-03-01T18:52:48.148639,1757674,840,1470,1061,-1232,-571,-469,36,172,-136
33011,3905,0,2023-03-01T18:52:48.153264,1757679,840,1470,1061,-1232,-571,-469,36,172,-136
33012,3906,0,2023-03-01T18:52:48.157982,1757684,842,1468,1065,-1245,-568,-477,36,172,-136
33013,3907,0,2023-03-01T18:52:48.164331,1757689,842,1468,1065,-1245,-568,-477,36,172,-136
33014,3908,0,2023-03-01T18:52:48.170343,1757696,842,1468,1065,-1245,-568,-477,36,172,-136
33015,3909,0,2023-03-01T18:52:48.175466,1757701,842,1468,1065,-1245,-568,-477,36,172,-136
33016,3910,0,2023-03-01T18:52:48.180161,1757706,840,1468,1056,-1254,-575,-478,36,172,-136
33017,3911,0,2023-03-01T18:52:48.186299,1757712,840,1468,1056,-1254,-575,-478,36,172,-136
33018,3912,0,2023-03-01T18:52:48.191643,1757717,840,1468,1056,-1254,-575,-478,36,172,-136
33019,3913,0,2023-03-01T18:52:48.196389,1757722,837,1468,1066,-1238,-577,-481,36,172,-136
33020,3914,0,2023-03-01T18:52:48.202368,1757728,837,1468,1066,-1238,-577,-481,36,172,-136
33021,3915,0,2023-03-01T18:52:48.208325,1757733,837,1468,1066,-1238,-577,-481,36,172,-136
33022,3916,0,2023-03-01T18:52:48.213403,1757740,837,1468,1066,-1238,-577,-481,36,172,-136
33023,3917,0,2023-03-01T18:52:48.218139,1757744,836,1470,1065,-1233,-573,-480,36,172,-136
33024,3918,0,2023-03-01T18:52:48.224350,1757750,836,1470,1065,-1233,-573,-480,36,172,-136
33025,3919,0,2023-03-01T18:52:48.230444,1757756,836,1470,1065,-1233,-573,-480,36,172,-136
33026,3920,0,2023-03-01T18:52:48.235788,1757761,836,1470,1065,-1233,-573,-480,36,172,-136
33027,3921,0,2023-03-01T18:52:48.240975,1757766,836,1466,1066,-1240,-569,-486,37,179,-137
33028,3922,0,2023-03-01T18:52:48.247115,1757772,836,1466,1066,-1240,-569,-486,37,179,-137
33029,3923,0,2023-03-01T18:52:48.252182,1757777,836,1466,1066,-1240,-569,-486,37,179,-137
33030,3924,0,2023-03-01T18:52:48.257142,1757783,840,1470,1064,-1247,-573,-493,37,179,-137
33031,3925,0,2023-03-01T18:52:48.263529,1757790,840,1470,1064,-1247,-573,-493,37,179,-137
33032,3926,0,2023-03-01T18:52:48.268844,1757795,840,1470,1064,-1247,-573,-493,37,179,-137
33033,3927,0,2023-03-01T18:52:48.274575,1757800,840,1470,1064,-1247,-573,-493,37,179,-137
33034,3928,0,2023-03-01T18:52:48.279613,1757805,836,1467,1069,-1249,-578,-485,37,179,-137
33035,3929,0,2023-03-01T18:52:48.286092,1757811,836,1467,1069,-1249,-578,-485,37,179,-137
33036,3930,0,2023-03-01T18:52:48.291802,1757817,836,1467,1069,-1249,-578,-485,37,179,-137
33037,3931,0,2023-03-01T18:52:48.296535,1757822,835,1469,1071,-1240,-569,-484,37,179,-137
33038,3932,0,2023-03-01T18:52:48.301877,1757828,835,1469,1071,-1240,-569,-484,37,179,-137
33039,3933,0,2023-03-01T18:52:48.306751,1757833,835,1469,1071,-1240,-569,-484,37,179,-137
33040,3934,0,2023-03-01T18:52:48.311778,1757838,835,1469,1071,-1240,-569,-484,37,179,-137
33041,3935,0,2023-03-01T18:52:48.316679,1757843,835,1466,1066,-1246,-570,-488,37,179,-137
33042,3936,0,2023-03-01T18:52:48.321978,1757848,835,1466,1066,-1246,-570,-488,37,179,-137
33043,3937,0,2023-03-01T18:52:48.327525,1757853,835,1466,1066,-1246,-570,-488,37,179,-137
33044,3938,0,2023-03-01T18:52:48.332098,1757858,835,1466,1066,-1246,-570,-488,37,179,-137
33045,3939,0,2023-03-01T18:52:48.337139,1757862,836,1467,1069,-1240,-568,-479,37,179,-137
33046,3940,0,2023-03-01T18:52:48.343526,1757869,836,1467,1069,-1240,-568,-479,37,179,-137
33047,3941,0,2023-03-01T18:52:48.348960,1757875,836,1467,1069,-1240,-568,-479,37,179,-137
33048,3942,0,2023-03-01T18:52:48.354006,1757880,836,1467,1069,-1240,-568,-479,37,179,-137
33049,3943,0,2023-03-01T18:52:48.358795,1757885,837,1466,1069,-1239,-568,-477,30,176,-132
33050,3944,0,2023-03-01T18:52:48.364410,1757890,837,1466,1069,-1239,-568,-477,30,176,-132
33051,3945,0,2023-03-01T18:52:48.370202,1757896,837,1466,1069,-1239,-568,-477,30,176,-132
33052,3946,0,2023-03-01T18:52:48.375252,1757901,837,1466,1069,-1239,-568,-477,30,176,-132
33053,3947,0,2023-03-01T18:52:48.379865,1757905,832,1461,1077,-1234,-572,-475,30,176,-132
33054,3948,0,2023-03-01T18:52:48.387249,1757913,832,1461,1077,-1234,-572,-475,30,176,-132
33055,3949,0,2023-03-01T18:52:48.392880,1757919,832,1461,1077,-1234,-572,-475,30,176,-132
33056,3950,0,2023-03-01T18:52:48.397922,1757924,837,1464,1073,-1231,-576,-478,30,176,-132
33057,3951,0,2023-03-01T18:52:48.403184,1757929,837,1464,1073,-1231,-576,-478,30,176,-132
33058,3952,0,2023-03-01T18:52:48.408431,1757934,837,1464,1073,-1231,-576,-478,30,176,-132
33059,3953,0,2023-03-01T18:52:48.413221,1757939,837,1464,1073,-1231,-576,-478,30,176,-132
33060,3954,0,2023-03-01T18:52:48.418721,1757944,835,1462,1076,-1235,-570,-477,30,176,-132
33061,3955,0,2023-03-01T18:52:48.425262,1757950,835,1462,1076,-1235,-570,-477,30,176,-132
33062,3956,0,2023-03-01T18:52:48.429824,1757956,835,1462,1076,-1235,-570,-477,30,176,-132
33063,3957,0,2023-03-01T18:52:48.434409,1757961,835,1462,1076,-1235,-570,-477,30,176,-132
33064,3958,0,2023-03-01T18:52:48.439252,1757965,831,1459,1074,-1240,-573,-478,30,176,-132
33065,3959,0,2023-03-01T18:52:48.443712,1757970,831,1459,1074,-1240,-573,-478,30,176,-132
33066,3960,0,2023-03-01T18:52:48.449428,1757975,831,1459,1074,-1240,-573,-478,30,176,-132
33067,3961,0,2023-03-01T18:52:48.454178,1757980,831,1459,1074,-1240,-573,-478,30,176,-132
33068,3962,0,2023-03-01T18:52:48.458972,1757985,832,1463,1068,-1235,-564,-476,30,176,-132
33069,3963,0,2023-03-01T18:52:48.465423,1757991,832,1463,1068,-1235,-564,-476,30,176,-132
33070,3964,0,2023-03-01T18:52:48.470607,1757997,832,1463,1068,-1235,-564,-476,30,176,-132
33071,3965,0,2023-03-01T18:52:48.475289,1758001,832,1463,1068,-1235,-564,-476,30,176,-132
33072,3966,0,2023-03-01T18:52:48.480148,1758006,832,1462,1072,-1241,-566,-476,30,176,-132
33073,3967,0,2023-03-01T18:52:48.485519,1758012,832,1462,1072,-1241,-566,-476,30,176,-132
33074,3968,0,2023-03-01T18:52:48.490792,1758016,832,1462,1072,-1241,-566,-476,30,176,-132
33075,3969,0,2023-03-01T18:52:48.496201,1758022,832,1462,1072,-1241,-566,-476,30,176,-132
33076,3970,0,2023-03-01T18:52:48.501053,1758027,830,1464,1073,-1234,-577,-489,19,173,-135
33077,3971,0,2023-03-01T18:52:48.507093,1758032,830,1464,1073,-1234,-577,-489,19,173,-135
33078,3972,0,2023-03-01T18:52:48.512755,1758039,830,1464,1073,-1234,-577,-489,19,173,-135
33079,3973,0,2023-03-01T18:52:48.517979,1758044,829,1461,1075,-1237,-572,-477,19,173,-135
33080,3974,0,2023-03-01T18:52:48.524107,1758050,829,1461,1075,-1237,-572,-477,19,173,-135
33081,3975,0,2023-03-01T18:52:48.529822,1758056,829,1461,1075,-1237,-572,-477,19,173,-135
33082,3976,0,2023-03-01T18:52:48.534776,1758060,829,1461,1075,-1237,-572,-477,19,173,-135
33083,3977,0,2023-03-01T18:52:48.539880,1758065,832,1463,1078,-1237,-574,-492,19,173,-135
33084,3978,0,2023-03-01T18:52:48.545814,1758071,832,1463,1078,-1237,-574,-492,19,173,-135
33085,3979,0,2023-03-01T18:52:48.551218,1758077,832,1463,1078,-1237,-574,-492,19,173,-135
33086,3980,0,2023-03-01T18:52:48.556087,1758082,832,1463,1078,-1237,-574,-492,19,173,-135
33087,3981,0,2023-03-01T18:52:48.560972,1758087,833,1459,1076,-1237,-562,-480,19,173,-135
33088,3982,0,2023-03-01T18:52:48.567009,1758093,833,1459,1076,-1237,-562,-480,19,173,-135
33089,3983,0,2023-03-01T18:52:48.572084,1758098,833,1459,1076,-1237,-562,-480,19,173,-135
33090,3984,0,2023-03-01T18:52:48.577420,1758103,829,1458,1073,-1233,-574,-485,19,173,-135
33091,3985,0,2023-03-01T18:52:48.583861,1758109,829,1458,1073,-1233,-574,-485,19,173,-135
33092,3986,0,2023-03-01T18:52:48.589245,1758115,829,1458,1073,-1233,-574,-485,19,173,-135
33093,3987,0,2023-03-01T18:52:48.594162,1758119,829,1458,1073,-1233,-574,-485,19,173,-135
33094,3988,0,2023-03-01T18:52:48.599404,1758126,827,1460,1069,-1241,-566,-486,19,173,-135
33095,3989,0,2023-03-01T18:52:48.604111,1758130,827,1460,1069,-1241,-566,-486,19,173,-135
33096,3990,0,2023-03-01T18:52:48.609956,1758136,827,1460,1069,-1241,-566,-486,19,173,-135
33097,3991,0,2023-03-01T18:52:48.614956,1758141,827,1460,1069,-1241,-566,-486,19,173,-135
33098,3992,0,2023-03-01T18:52:48.620045,1758145,827,1456,1080,-1230,-575,-473,31,175,-141
33099,3993,0,2023-03-01T18:52:48.625848,1758152,827,1456,1080,-1230,-575,-473,31,175,-141
33100,3994,0,2023-03-01T18:52:48.631294,1758157,827,1456,1080,-1230,-575,-473,31,175,-141
33101,3995,0,2023-03-01T18:52:48.635883,1758161,827,1456,1080,-1230,-575,-473,31,175,-141
33102,3996,0,2023-03-01T18:52:48.640980,1758167,827,1456,1080,-1240,-569,-483,31,175,-141
33103,3997,0,2023-03-01T18:52:48.647248,1758173,827,1456,1080,-1240,-569,-483,31,175,-141
33104,3998,0,2023-03-01T18:52:48.652953,1758179,827,1456,1080,-1240,-569,-483,31,175,-141
33105,3999,0,2023-03-01T18:52:48.657791,1758183,824,1455,1081,-1237,-567,-472,31,175,-141
33106,4000,0,2023-03-01T18:52:48.663990,1758190,824,1455,1081,-1237,-567,-472,31,175,-141
33107,4001,0,2023-03-01T18:52:48.669298,1758194,824,1455,1081,-1237,-567,-472,31,175,-141
33108,4002,0,2023-03-01T18:52:48.674460,1758200,824,1455,1081,-1237,-567,-472,31,175,-141
33109,4003,0,2023-03-01T18:52:48.679408,1758205,828,1458,1077,-1241,-573,-486,31,175,-141
33110,4004,0,2023-03-01T18:52:48.685518,1758211,828,1458,1077,-1241,-573,-486,31,175,-141
33111,4005,0,2023-03-01T18:52:48.691650,1758217,828,1458,1077,-1241,-573,-486,31,175,-141
33112,4006,0,2023-03-01T18:52:48.696722,1758222,828,1458,1077,-1241,-573,-486,31,175,-141
33113,4007,0,2023-03-01T18:52:48.701259,1758227,829,1455,1081,-1241,-566,-479,31,175,-141
33114,4008,0,2023-03-01T18:52:48.707367,1758233,829,1455,1081,-1241,-566,-479,31,175,-141
33115,4009,0,2023-03-01T18:52:48.712285,1758238,829,1455,1081,-1241,-566,-479,31,175,-141
33116,4010,0,2023-03-01T18:52:48.716989,1758242,829,1455,1081,-1241,-566,-479,31,175,-141
33117,4011,0,2023-03-01T18:52:48.723089,1758248,824,1454,1084,-1237,-565,-477,31,175,-141
33118,4012,0,2023-03-01T18:52:48.729012,1758255,824,1454,1084,-1237,-565,-477,31,175,-141
33119,4013,0,2023-03-01T18:52:48.734240,1758260,824,1454,1084,-1237,-565,-477,31,175,-141
33120,4014,0,2023-03-01T18:52:48.739208,1758265,825,1453,1088,-1248,-570,-485,31,175,-141
33121,4015,0,2023-03-01T18:52:48.744437,1758270,825,1453,1088,-1248,-570,-485,31,175,-141
33122,4016,0,2023-03-01T18:52:48.749324,1758275,825,1453,1088,-1248,-570,-485,31,175,-141
33123,4017,0,2023-03-01T18:52:48.754049,1758280,825,1453,1088,-1248,-570,-485,31,175,-141
33124,4018,0,2023-03-01T18:52:48.758786,1758284,823,1456,1085,-1245,-578,-485,32,180,-132
33125,4019,0,2023-03-01T18:52:48.764192,1758290,823,1456,1085,-1245,-578,-485,32,180,-132
33126,4020,0,2023-03-01T18:52:48.769311,1758295,823,1456,1085,-1245,-578,-485,32,180,-132
33127,4021,0,2023-03-01T18:52:48.774209,1758300,823,1456,1085,-1245,-578,-485,32,180,-132
33128,4022,0,2023-03-01T18:52:48.778949,1758305,828,1455,1092,-1252,-578,-474,32,180,-132
33129,4023,0,2023-03-01T18:52:48.785175,1758311,828,1455,1092,-1252,-578,-474,32,180,-132
33130,4024,0,2023-03-01T18:52:48.790199,1758316,828,1455,1092,-1252,-578,-474,32,180,-132
33131,4025,0,2023-03-01T18:52:48.795186,1758321,828,1455,1092,-1252,-578,-474,32,180,-132
33132,4026,0,2023-03-01T18:52:48.800018,1758325,821,1448,1086,-1232,-568,-469,32,180,-132
33133,4027,0,2023-03-01T18:52:48.805551,1758331,821,1448,1086,-1232,-568,-469,32,180,-132
33134,4028,0,2023-03-01T18:52:48.810844,1758337,821,1448,1086,-1232,-568,-469,32,180,-132
33135,4029,0,2023-03-01T18:52:48.815540,1758342,821,1448,1086,-1232,-568,-469,32,180,-132
33136,4030,0,2023-03-01T18:52:48.820843,1758346,822,1455,1080,-1243,-570,-482,32,180,-132
33137,4031,0,2023-03-01T18:52:48.826481,1758352,822,1455,1080,-1243,-570,-482,32,180,-132
33138,4032,0,2023-03-01T18:52:48.831313,1758357,822,1455,1080,-1243,-570,-482,32,180,-132
33139,4033,0,2023-03-01T18:52:48.836039,1758362,822,1455,1080,-1243,-570,-482,32,180,-132
33140,4034,0,2023-03-01T18:52:48.841524,1758367,823,1452,1080,-1240,-571,-485,32,180,-132
33141,4035,0,2023-03-01T18:52:48.847821,1758373,823,1452,1080,-1240,-571,-485,32,180,-132
33142,4036,0,2023-03-01T18:52:48.853373,1758379,823,1452,1080,-1240,-571,-485,32,180,-132
33143,4037,0,2023-03-01T18:52:48.858222,1758384,821,1453,1085,-1233,-576,-492,32,180,-132
33144,4038,0,2023-03-01T18:52:48.862570,1758389,821,1453,1085,-1233,-576,-492,32,180,-132
33145,4039,0,2023-03-01T18:52:48.868240,1758394,821,1453,1085,-1233,-576,-492,32,180,-132
33146,4040,0,2023-03-01T18:52:48.873325,1758399,821,1453,1085,-1233,-576,-492,32,180,-132
33147,4041,0,2023-03-01T18:52:48.878144,1758404,823,1449,1088,-1234,-578,-479,26,174,-130
33148,4042,0,2023-03-01T18:52:48.883882,1758409,823,1449,1088,-1234,-578,-479,26,174,-130
33149,4043,0,2023-03-01T18:52:48.889305,1758415,823,1449,1088,-1234,-578,-479,26,174,-130
33150,4044,0,2023-03-01T18:52:48.894327,1758419,823,1449,1088,-1234,-578,-479,26,174,-130
33151,4045,0,2023-03-01T18:52:48.899176,1758425,820,1450,1096,-1234,-578,-482,26,174,-130
33152,4046,0,2023-03-01T18:52:48.905143,1758431,820,1450,1096,-1234,-578,-482,26,174,-130
33153,4047,0,2023-03-01T18:52:48.910456,1758436,820,1450,1096,-1234,-578,-482,26,174,-130
33154,4048,0,2023-03-01T18:52:48.915356,1758441,820,1450,1096,-1234,-578,-482,26,174,-130
33155,4049,0,2023-03-01T18:52:48.920082,1758446,821,1449,1090,-1244,-581,-483,26,174,-130
33156,4050,0,2023-03-01T18:52:48.926100,1758452,821,1449,1090,-1244,-581,-483,26,174,-130
33157,4051,0,2023-03-01T18:52:48.931593,1758457,821,1449,1090,-1244,-581,-483,26,174,-130
33158,4052,0,2023-03-01T18:52:48.936534,1758462,821,1449,1090,-1244,-581,-483,26,174,-130
33159,4053,0,2023-03-01T18:52:48.942319,1758468,817,1450,1091,-1239,-575,-475,26,174,-130
33160,4054,0,2023-03-01T18:52:48.948899,1758475,817,1450,1091,-1239,-575,-475,26,174,-130
33161,4055,0,2023-03-01T18:52:48.953870,1758480,817,1450,1091,-1239,-575,-475,26,174,-130
33162,4056,0,2023-03-01T18:52:48.958657,1758484,820,1447,1089,-1232,-577,-486,26,174,-130
33163,4057,0,2023-03-01T18:52:48.964929,1758490,820,1447,1089,-1232,-577,-486,26,174,-130
33164,4058,0,2023-03-01T18:52:48.970501,1758496,820,1447,1089,-1232,-577,-486,26,174,-130
33165,4059,0,2023-03-01T18:52:48.975695,1758501,820,1447,1089,-1232,-577,-486,26,174,-130
33166,4060,0,2023-03-01T18:52:48.980829,1758507,819,1449,1089,-1239,-584,-493,26,174,-130
33167,4061,0,2023-03-01T18:52:48.986845,1758513,819,1449,1089,-1239,-584,-493,26,174,-130
33168,4062,0,2023-03-01T18:52:48.992395,1758518,819,1449,1089,-1239,-584,-493,26,174,-130
33169,4063,0,2023-03-01T18:52:48.997449,1758523,819,1449,1089,-1239,-584,-493,26,174,-130
33170,4064,0,2023-03-01T18:52:49.003235,1758529,819,1450,1088,-1233,-581,-482,26,174,-130
33171,4065,0,2023-03-01T18:52:49.009020,1758535,819,1450,1088,-1233,-581,-482,26,174,-130
33172,4066,0,2023-03-01T18:52:49.014125,1758540,819,1450,1088,-1233,-581,-482,26,174,-130
33173,4067,0,2023-03-01T18:52:49.019211,1758545,821,1446,1094,-1237,-574,-482,35,171,-131
33174,4068,0,2023-03-01T18:52:49.025191,1758552,821,1446,1094,-1237,-574,-482,35,171,-131
33175,4069,0,2023-03-01T18:52:49.030952,1758557,821,1446,1094,-1237,-574,-482,35,171,-131
33176,4070,0,2023-03-01T18:52:49.035917,1758562,821,1446,1094,-1237,-574,-482,35,171,-131
33177,4071,0,2023-03-01T18:52:49.040852,1758567,819,1445,1094,-1245,-579,-486,35,171,-131
33178,4072,0,2023-03-01T18:52:49.046891,1758572,819,1445,1094,-1245,-579,-486,35,171,-131
33179,4073,0,2023-03-01T18:52:49.052541,1758578,819,1445,1094,-1245,-579,-486,35,171,-131
33180,4074,0,2023-03-01T18:52:49.057297,1758583,819,1445,1094,-1245,-579,-486,35,171,-131
33181,4075,0,2023-03-01T18:52:49.062845,1758588,817,1447,1093,-1236,-586,-489,35,171,-131
33182,4076,0,2023-03-01T18:52:49.069149,1758595,817,1447,1093,-1236,-586,-489,35,171,-131
33183,4077,0,2023-03-01T18:52:49.074870,1758600,817,1447,1093,-1236,-586,-489,35,171,-131
33184,4078,0,2023-03-01T18:52:49.079946,1758606,818,1447,1097,-1231,-586,-478,35,171,-131
33185,4079,0,2023-03-01T18:52:49.086749,1758613,818,1447,1097,-1231,-586,-478,35,171,-131
33186,4080,0,2023-03-01T18:52:49.092421,1758618,818,1447,1097,-1231,-586,-478,35,171,-131
33187,4081,0,2023-03-01T18:52:49.097753,1758623,818,1447,1097,-1231,-586,-478,35,171,-131
33188,4082,0,2023-03-01T18:52:49.103124,1758628,817,1445,1093,-1236,-590,-491,35,171,-131
33189,4083,0,2023-03-01T18:52:49.109425,1758635,817,1445,1093,-1236,-590,-491,35,171,-131
33190,4084,0,2023-03-01T18:52:49.114641,1758641,817,1445,1093,-1236,-590,-491,35,171,-131
33191,4085,0,2023-03-01T18:52:49.119465,1758646,818,1449,1095,-1239,-575,-491,35,171,-131
33192,4086,0,2023-03-01T18:52:49.125566,1758651,818,1449,1095,-1239,-575,-491,35,171,-131
33193,4087,0,2023-03-01T18:52:49.131323,1758657,818,1449,1095,-1239,-575,-491,35,171,-131
33194,4088,0,2023-03-01T18:52:49.136125,1758662,818,1449,1095,-1239,-575,-491,35,171,-131
33195,4089,0,2023-03-01T18:52:49.141350,1758667,815,1446,1103,-1226,-578,-494,26,180,-138
33196,4090,0,2023-03-01T18:52:49.147651,1758673,815,1446,1103,-1226,-578,-494,26,180,-138
33197,4091,0,2023-03-01T18:52:49.153021,1758679,815,1446,1103,-1226,-578,-494,26,180,-138
33198,4092,0,2023-03-01T18:52:49.161015,1758687,817,1443,1093,-1229,-584,-491,26,180,-138
33199,4093,0,2023-03-01T18:52:49.167495,1758693,817,1443,1093,-1229,-584,-491,26,180,-138
33200,4094,0,2023-03-01T18:52:49.173156,1758699,817,1443,1093,-1229,-584,-491,26,180,-138
33201,4095,0,2023-03-01T18:52:49.178419,1758704,812,1441,1099,-1233,-580,-488,26,180,-138
33202,4096,0,2023-03-01T18:52:49.184468,1758710,812,1441,1099,-1233,-580,-488,26,180,-138
33203,4097,0,2023-03-01T18:52:49.190962,1758716,812,1441,1099,-1233,-580,-488,26,180,-138
33204,4098,0,2023-03-01T18:52:49.196276,1758722,812,1441,1099,-1233,-580,-488,26,180,-138
33205,4099,0,2023-03-01T18:52:49.200970,1758727,813,1444,1097,-1234,-589,-495,26,180,-138
33206,4100,0,2023-03-01T18:52:49.206504,1758732,813,1444,1097,-1234,-589,-495,26,180,-138
33207,4101,0,2023-03-01T18:52:49.211974,1758738,813,1444,1097,-1234,-589,-495,26,180,-138
33208,4102,0,2023-03-01T18:52:49.217066,1758742,813,1444,1097,-1234,-589,-495,26,180,-138
33209,4103,0,2023-03-01T18:52:49.222546,1758748,815,1442,1097,-1236,-574,-487,26,180,-138
33210,4104,0,2023-03-01T18:52:49.229442,1758755,815,1442,1097,-1236,-574,-487,26,180,-138
33211,4105,0,2023-03-01T18:52:49.234142,1758759,815,1442,1097,-1236,-574,-487,26,180,-138
33212,4106,0,2023-03-01T18:52:49.238935,1758765,811,1441,1097,-1229,-586,-493,26,180,-138
33213,4107,0,2023-03-01T18:52:49.244302,1758770,811,1441,1097,-1229,-586,-493,26,180,-138
33214,4108,0,2023-03-01T18:52:49.250109,1758776,811,1441,1097,-1229,-586,-493,26,180,-138
33215,4109,0,2023-03-01T18:52:49.255129,1758781,811,1441,1097,-1229,-586,-493,26,180,-138
33216,4110,0,2023-03-01T18:52:49.259829,1758786,813,1444,1101,-1227,-591,-492,35,175,-139
33217,4111,0,2023-03-01T18:52:49.267143,1758793,813,1444,1101,-1227,-591,-492,35,175,-139
33218,4112,0,2023-03-01T18:52:49.272933,1758798,813,1444,1101,-1227,-591,-492,35,175,-139
33219,4113,0,2023-03-01T18:52:49.278134,1758803,812,1439,1100,-1228,-587,-489,35,175,-139
33220,4114,0,2023-03-01T18:52:49.283979,1758810,812,1439,1100,-1228,-587,-489,35,175,-139
33221,4115,0,2023-03-01T18:52:49.289265,1758815,812,1439,1100,-1228,-587,-489,35,175,-139
33222,4116,0,2023-03-01T18:52:49.294136,1758820,812,1439,1100,-1228,-587,-489,35,175,-139
33223,4117,0,2023-03-01T18:52:49.298812,1758825,814,1439,1100,-1242,-592,-500,35,175,-139
33224,4118,0,2023-03-01T18:52:49.304208,1758830,814,1439,1100,-1242,-592,-500,35,175,-139
33225,4119,0,2023-03-01T18:52:49.310050,1758835,814,1439,1100,-1242,-592,-500,35,175,-139
33226,4120,0,2023-03-01T18:52:49.315025,1758841,814,1439,1100,-1242,-592,-500,35,175,-139
33227,4121,0,2023-03-01T18:52:49.319813,1758845,814,1440,1103,-1236,-582,-490,35,175,-139
33228,4122,0,2023-03-01T18:52:49.325730,1758852,814,1440,1103,-1236,-582,-490,35,175,-139
33229,4123,0,2023-03-01T18:52:49.331287,1758857,814,1440,1103,-1236,-582,-490,35,175,-139
33230,4124,0,2023-03-01T18:52:49.336173,1758862,814,1440,1103,-1236,-582,-490,35,175,-139
33231,4125,0,2023-03-01T18:52:49.341258,1758867,815,1441,1099,-1229,-586,-488,35,175,-139
33232,4126,0,2023-03-01T18:52:49.347231,1758873,815,1441,1099,-1229,-586,-488,35,175,-139
33233,4127,0,2023-03-01T18:52:49.352074,1758878,815,1441,1099,-1229,-586,-488,35,175,-139
33234,4128,0,2023-03-01T18:52:49.357167,1758883,815,1441,1099,-1229,-586,-488,35,175,-139
33235,4129,0,2023-03-01T18:52:49.363124,1758888,809,1440,1102,-1231,-575,-485,35,175,-139
33236,4130,0,2023-03-01T18:52:49.369762,1758896,809,1440,1102,-1231,-575,-485,35,175,-139
33237,4131,0,2023-03-01T18:52:49.374775,1758901,809,1440,1102,-1231,-575,-485,35,175,-139
33238,4132,0,2023-03-01T18:52:49.379764,1758906,809,1436,1103,-1233,-582,-478,35,175,-139
33239,4133,0,2023-03-01T18:52:49.385537,1758912,809,1436,1103,-1233,-582,-478,35,175,-139
33240,4134,0,2023-03-01T18:52:49.390766,1758916,809,1436,1103,-1233,-582,-478,35,175,-139
33241,4135,0,2023-03-01T18:52:49.395521,1758921,809,1436,1103,-1233,-582,-478,35,175,-139
33242,4136,0,2023-03-01T18:52:49.400445,1758926,810,1440,1109,-1229,-573,-467,33,167,-139
33243,4137,0,2023-03-01T18:52:49.406403,1758932,810,1440,1109,-1229,-573,-467,33,167,-139
33244,4138,0,2023-03-01T18:52:49.412245,1758938,810,1440,1109,-1229,-573,-467,33,167,-139
33245,4139,0,2023-03-01T18:52:49.417009,1758943,810,1440,1109,-1229,-573,-467,33,167,-139
33246,4140,0,2023-03-01T18:52:49.421823,1758948,807,1438,1103,-1224,-577,-465,33,167,-139
33247,4141,0,2023-03-01T18:52:49.428074,1758954,807,1438,1103,-1224,-577,-465,33,167,-139
33248,4142,0,2023-03-01T18:52:49.433200,1758959,807,1438,1103,-1224,-577,-465,33,167,-139
33249,4143,0,2023-03-01T18:52:49.438773,1758964,811,1438,1105,-1229,-570,-476,33,167,-139
33250,4144,0,2023-03-01T18:52:49.444839,1758970,811,1438,1105,-1229,-570,-476,33,167,-139
33251,4145,0,2023-03-01T18:52:49.450197,1758976,811,1438,1105,-1229,-570,-476,33,167,-139
33252,4146,0,2023-03-01T18:52:49.455115,1758981,811,1438,1105,-1229,-570,-476,33,167,-139
33253,4147,0,2023-03-01T18:52:49.459762,1758986,805,1435,1104,-1232,-568,-478,33,167,-139
33254,4148,0,2023-03-01T18:52:49.465714,1758992,805,1435,1104,-1232,-568,-478,33,167,-139
33255,4149,0,2023-03-01T18:52:49.471068,1758997,805,1435,1104,-1232,-568,-478,33,167,-139
33256,4150,0,2023-03-01T18:52:49.476138,1759002,805,1435,1104,-1232,-568,-478,33,167,-139
33257,4151,0,2023-03-01T18:52:49.480837,1759006,808,1431,1105,-1235,-572,-483,33,167,-139
33258,4152,0,2023-03-01T18:52:49.487400,1759013,808,1431,1105,-1235,-572,-483,33,167,-139
33259,4153,0,2023-03-01T18:52:49.492796,1759019,808,1431,1105,-1235,-572,-483,33,167,-139
33260,4154,0,2023-03-01T18:52:49.497431,1759024,808,1431,1105,-1235,-572,-483,33,167,-139
33261,4155,0,2023-03-01T18:52:49.502096,1759028,805,1436,1105,-1232,-573,-477,33,167,-139
33262,4156,0,2023-03-01T18:52:49.508392,1759034,805,1436,1105,-1232,-573,-477,33,167,-139
33263,4157,0,2023-03-01T18:52:49.513312,1759039,805,1436,1105,-1232,-573,-477,33,167,-139
33264,4158,0,2023-03-01T18:52:49.518594,1759044,802,1434,1108,-1234,-567,-474,34,178,-136
33265,4159,0,2023-03-01T18:52:49.524561,1759050,802,1434,1108,-1234,-567,-474,34,178,-136
33266,4160,0,2023-03-01T18:52:49.530075,1759055,802,1434,1108,-1234,-567,-474,34,178,-136
33267,4161,0,2023-03-01T18:52:49.534900,1759060,802,1434,1108,-1234,-567,-474,34,178,-136
33268,4162,0,2023-03-01T18:52:49.539762,1759066,806,1434,1108,-1235,-568,-478,34,178,-136
33269,4163,0,2023-03-01T18:52:49.545854,1759072,806,1434,1108,-1235,-568,-478,34,178,-136
33270,4164,0,2023-03-01T18:52:49.551418,1759077,806,1434,1108,-1235,-568,-478,34,178,-136
33271,4165,0,2023-03-01T18:52:49.556391,1759082,806,1434,1108,-1235,-568,-478,34,178,-136
33272,4166,0,2023-03-01T18:52:49.561364,1759087,803,1433,1112,-1230,-586,-488,34,178,-136
33273,4167,0,2023-03-01T18:52:49.567200,1759093,803,1433,1112,-1230,-586,-488,34,178,-136
33274,4168,0,2023-03-01T18:52:49.572973,1759098,803,1433,1112,-1230,-586,-488,34,178,-136
33275,4169,0,2023-03-01T18:52:49.578501,1759104,803,1433,1112,-1230,-586,-488,34,178,-136
33276,4170,0,2023-03-01T18:52:49.583654,1759110,801,1435,1110,-1235,-559,-476,34,178,-136
33277,4171,0,2023-03-01T18:52:49.590134,1759116,801,1435,1110,-1235,-559,-476,34,178,-136
33278,4172,0,2023-03-01T18:52:49.595316,1759121,801,1435,1110,-1235,-559,-476,34,178,-136
33279,4173,0,2023-03-01T18:52:49.600386,1759126,803,1435,1095,-1222,-575,-470,34,178,-136
33280,4174,0,2023-03-01T18:52:49.605121,1759131,803,1435,1095,-1222,-575,-470,34,178,-136
33281,4175,0,2023-03-01T18:52:49.610622,1759136,803,1435,1095,-1222,-575,-470,34,178,-136
33282,4176,0,2023-03-01T18:52:49.615416,1759141,803,1435,1095,-1222,-575,-470,34,178,-136
33283,4177,0,2023-03-01T18:52:49.620260,1759147,796,1431,1129,-1226,-556,-479,34,178,-136
33284,4178,0,2023-03-01T18:52:49.626340,1759153,796,1431,1129,-1226,-556,-479,34,178,-136
33285,4179,0,2023-03-01T18:52:49.631798,1759158,796,1431,1129,-1226,-556,-479,34,178,-136
33286,4180,0,2023-03-01T18:52:49.636959,1759163,796,1431,1129,-1226,-556,-479,34,178,-136
33287,4181,0,2023-03-01T18:52:49.641994,1759168,804,1434,1104,-1232,-568,-476,34,178,-136
33288,4182,0,2023-03-01T18:52:49.649296,1759175,804,1434,1104,-1232,-568,-476,34,178,-136
33289,4183,0,2023-03-01T18:52:49.654165,1759180,804,1434,1104,-1232,-568,-476,34,178,-136
33290,4184,0,2023-03-01T18:52:49.659145,1759184,805,1431,1103,-1218,-579,-474,41,177,-125
33291,4185,0,2023-03-01T18:52:49.665572,1759192,805,1431,1103,-1218,-579,-474,41,177,-125
33292,4186,0,2023-03-01T18:52:49.671326,1759197,805,1431,1103,-1218,-579,-474,41,177,-125
33293,4187,0,2023-03-01T18:52:49.676379,1759202,805,1431,1103,-1218,-579,-474,41,177,-125
33294,4188,0,2023-03-01T18:52:49.681078,1759207,797,1426,1138,-1234,-545,-472,41,177,-125
33295,4189,0,2023-03-01T18:52:49.686894,1759213,797,1426,1138,-1234,-545,-472,41,177,-125
33296,4190,0,2023-03-01T18:52:49.693008,1759218,797,1426,1138,-1234,-545,-472,41,177,-125
33297,4191,0,2023-03-01T18:52:49.698194,1759223,797,1426,1138,-1234,-545,-472,41,177,-125
33298,4192,0,2023-03-01T18:52:49.702913,1759228,807,1436,1094,-1236,-580,-483,41,177,-125
33299,4193,0,2023-03-01T18:52:49.710006,1759236,807,1436,1094,-1236,-580,-483,41,177,-125
33300,4194,0,2023-03-01T18:52:49.714938,1759241,807,1436,1094,-1236,-580,-483,41,177,-125
33301,4195,0,2023-03-01T18:52:49.719899,1759246,796,1418,1119,-1238,-552,-467,41,177,-125
33302,4196,0,2023-03-01T18:52:49.726297,1759252,796,1418,1119,-1238,-552,-467,41,177,-125
33303,4197,0,2023-03-01T18:52:49.731979,1759258,796,1418,1119,-1238,-552,-467,41,177,-125
33304,4198,0,2023-03-01T18:52:49.737195,1759263,796,1418,1119,-1238,-552,-467,41,177,-125
33305,4199,0,2023-03-01T18:52:49.741961,1759267,803,1440,1122,-1260,-537,-491,41,177,-125
33306,4200,0,2023-03-01T18:52:49.748735,1759275,803,1440,1122,-1260,-537,-491,41,177,-125
33307,4201,0,2023-03-01T18:52:49.753504,1759280,803,1440,1122,-1260,-537,-491,41,177,-125
33308,4202,0,2023-03-01T18:52:49.758301,1759284,803,1440,1122,-1260,-537,-491,41,177,-125
33309,4203,0,2023-03-01T18:52:49.764025,1759290,801,1424,1095,-1226,-588,-468,41,177,-125
33310,4204,0,2023-03-01T18:52:49.770012,1759296,801,1424,1095,-1226,-588,-468,41,177,-125
33311,4205,0,2023-03-01T18:52:49.774828,1759300,801,1424,1095,-1226,-588,-468,41,177,-125
33312,4206,0,2023-03-01T18:52:49.779460,1759305,790,1423,1148,-1238,-525,-457,31,187,-131
33313,4207,0,2023-03-01T18:52:49.785934,1759311,790,1423,1148,-1238,-525,-457,31,187,-131
33314,4208,0,2023-03-01T18:52:49.791686,1759318,790,1423,1148,-1238,-525,-457,31,187,-131
33315,4209,0,2023-03-01T18:52:49.796091,1759322,790,1423,1148,-1238,-525,-457,31,187,-131
33316,4210,0,2023-03-01T18:52:49.800944,1759327,810,1437,1097,-1214,-594,-481,31,187,-131
33317,4211,0,2023-03-01T18:52:49.806520,1759333,810,1437,1097,-1214,-594,-481,31,187,-131
33318,4212,0,2023-03-01T18:52:49.812709,1759338,810,1437,1097,-1214,-594,-481,31,187,-131
33319,4213,0,2023-03-01T18:52:49.819193,1759345,786,1416,1134,-1244,-540,-468,31,187,-131
33320,4214,0,2023-03-01T18:52:49.826180,1759352,786,1416,1134,-1244,-540,-468,31,187,-131
33321,4215,0,2023-03-01T18:52:49.831589,1759357,786,1416,1134,-1244,-540,-468,31,187,-131
33322,4216,0,2023-03-01T18:52:49.836822,1759363,786,1416,1134,-1244,-540,-468,31,187,-131
33323,4217,0,2023-03-01T18:52:49.841718,1759368,804,1438,1114,-1228,-556,-470,31,187,-131
33324,4218,0,2023-03-01T18:52:49.848321,1759374,804,1438,1114,-1228,-556,-470,31,187,-131
33325,4219,0,2023-03-01T18:52:49.853178,1759379,804,1438,1114,-1228,-556,-470,31,187,-131
33326,4220,0,2023-03-01T18:52:49.857865,1759384,804,1438,1114,-1228,-556,-470,31,187,-131
33327,4221,0,2023-03-01T18:52:49.863272,1759389,792,1414,1114,-1226,-565,-462,31,187,-131
33328,4222,0,2023-03-01T18:52:49.868678,1759394,792,1414,1114,-1226,-565,-462,31,187,-131
33329,4223,0,2023-03-01T18:52:49.873608,1759399,792,1414,1114,-1226,-565,-462,31,187,-131
33330,4224,0,2023-03-01T18:52:49.878567,1759405,792,1414,1114,-1226,-565,-462,31,187,-131
33331,4225,0,2023-03-01T18:52:49.883420,1759410,795,1426,1135,-1248,-533,-465,31,187,-131
33332,4226,0,2023-03-01T18:52:49.889472,1759415,795,1426,1135,-1248,-533,-465,31,187,-131
33333,4227,0,2023-03-01T18:52:49.894466,1759420,795,1426,1135,-1248,-533,-465,31,187,-131
33334,4228,0,2023-03-01T18:52:49.899397,1759425,799,1426,1095,-1225,-580,-471,29,179,-135
33335,4229,0,2023-03-01T18:52:49.905449,1759431,799,1426,1095,-1225,-580,-471,29,179,-135
33336,4230,0,2023-03-01T18:52:49.910745,1759436,799,1426,1095,-1225,-580,-471,29,179,-135
33337,4231,0,2023-03-01T18:52:49.916228,1759441,799,1426,1095,-1225,-580,-471,29,179,-135
33338,4232,0,2023-03-01T18:52:49.921165,1759447,786,1418,1145,-1241,-535,-462,29,179,-135
33339,4233,0,2023-03-01T18:52:49.927321,1759453,786,1418,1145,-1241,-535,-462,29,179,-135
33340,4234,0,2023-03-01T18:52:49.932939,1759459,786,1418,1145,-1241,-535,-462,29,179,-135
33341,4235,0,2023-03-01T18:52:49.938041,1759464,786,1418,1145,-1241,-535,-462,29,179,-135
33342,4236,0,2023-03-01T18:52:49.942675,1759469,805,1435,1105,-1240,-566,-481,29,179,-135
33343,4237,0,2023-03-01T18:52:49.948646,1759474,805,1435,1105,-1240,-566,-481,29,179,-135
33344,4238,0,2023-03-01T18:52:49.953540,1759479,805,1435,1105,-1240,-566,-481,29,179,-135
33345,4239,0,2023-03-01T18:52:49.958460,1759484,805,1435,1105,-1240,-566,-481,29,179,-135
33346,4240,0,2023-03-01T18:52:49.964019,1759490,786,1415,1126,-1239,-545,-457,29,179,-135
33347,4241,0,2023-03-01T18:52:49.969605,1759496,786,1415,1126,-1239,-545,-457,29,179,-135
33348,4242,0,2023-03-01T18:52:49.974448,1759500,786,1415,1126,-1239,-545,-457,29,179,-135
33349,4243,0,2023-03-01T18:52:49.979364,1759505,795,1427,1141,-1254,-547,-479,29,179,-135
33350,4244,0,2023-03-01T18:52:49.985438,1759511,795,1427,1141,-1254,-547,-479,29,179,-135
33351,4245,0,2023-03-01T18:52:49.991627,1759517,795,1427,1141,-1254,-547,-479,29,179,-135
33352,4246,0,2023-03-01T18:52:49.996190,1759522,795,1427,1141,-1254,-547,-479,29,179,-135
33353,4247,0,2023-03-01T18:52:50.000900,1759526,797,1423,1096,-1232,-578,-477,29,179,-135
33354,4248,0,2023-03-01T18:52:50.006978,1759533,797,1423,1096,-1232,-578,-477,29,179,-135
33355,4249,0,2023-03-01T18:52:50.012510,1759539,797,1423,1096,-1232,-578,-477,29,179,-135
33356,4250,0,2023-03-01T18:52:50.017444,1759544,797,1423,1096,-1232,-578,-477,29,179,-135
33357,4251,0,2023-03-01T18:52:50.022191,1759548,787,1417,1141,-1239,-539,-461,29,179,-135
33358,4252,0,2023-03-01T18:52:50.028933,1759555,787,1417,1141,-1239,-539,-461,29,179,-135
33359,4253,0,2023-03-01T18:52:50.034655,1759560,787,1417,1141,-1239,-539,-461,29,179,-135
33360,4254,0,2023-03-01T18:52:50.040150,1759565,794,1428,1123,-1246,-566,-474,45,173,-137
33361,4255,0,2023-03-01T18:52:50.045978,1759571,794,1428,1123,-1246,-566,-474,45,173,-137
33362,4256,0,2023-03-01T18:52:50.051354,1759578,794,1428,1123,-1246,-566,-474,45,173,-137
33363,4257,0,2023-03-01T18:52:50.056448,1759583,794,1428,1123,-1246,-566,-474,45,173,-137
33364,4258,0,2023-03-01T18:52:50.061171,1759587,788,1414,1122,-1232,-549,-451,45,173,-137
33365,4259,0,2023-03-01T18:52:50.066909,1759593,788,1414,1122,-1232,-549,-451,45,173,-137
33366,4260,0,2023-03-01T18:52:50.072429,1759598,788,1414,1122,-1232,-549,-451,45,173,-137
33367,4261,0,2023-03-01T18:52:50.077671,1759603,788,1414,1122,-1232,-549,-451,45,173,-137
33368,4262,0,2023-03-01T18:52:50.082521,1759608,789,1422,1139,-1237,-541,-471,45,173,-137
33369,4263,0,2023-03-01T18:52:50.088917,1759614,789,1422,1139,-1237,-541,-471,45,173,-137
33370,4264,0,2023-03-01T18:52:50.093785,1759620,789,1422,1139,-1237,-541,-471,45,173,-137
33371,4265,0,2023-03-01T18:52:50.099089,1759625,792,1420,1120,-1235,-561,-463,45,173,-137
33372,4266,0,2023-03-01T18:52:50.104792,1759631,792,1420,1120,-1235,-561,-463,45,173,-137
33373,4267,0,2023-03-01T18:52:50.110863,1759636,792,1420,1120,-1235,-561,-463,45,173,-137
33374,4268,0,2023-03-01T18:52:50.116315,1759642,792,1420,1120,-1235,-561,-463,45,173,-137
33375,4269,0,2023-03-01T18:52:50.121447,1759647,787,1415,1129,-1236,-535,-456,45,173,-137
33376,4270,0,2023-03-01T18:52:50.127019,1759653,787,1415,1129,-1236,-535,-456,45,173,-137
33377,4271,0,2023-03-01T18:52:50.132482,1759659,787,1415,1129,-1236,-535,-456,45,173,-137
33378,4272,0,2023-03-01T18:52:50.137116,1759663,787,1415,1129,-1236,-535,-456,45,173,-137
33379,4273,0,2023-03-01T18:52:50.142001,1759668,787,1421,1131,-1241,-552,-465,45,173,-137
33380,4274,0,2023-03-01T18:52:50.150812,1759676,787,1421,1131,-1241,-552,-465,45,173,-137
33381,4275,0,2023-03-01T18:52:50.156243,1759682,787,1421,1131,-1241,-552,-465,45,173,-137
33382,4276,0,2023-03-01T18:52:50.161211,1759687,787,1416,1119,-1244,-553,-469,38,182,-134
33383,4277,0,2023-03-01T18:52:50.167516,1759693,787,1416,1119,-1244,-553,-469,38,182,-134
33384,4278,0,2023-03-01T18:52:50.172995,1759698,787,1416,1119,-1244,-553,-469,38,182,-134
33385,4279,0,2023-03-01T18:52:50.178107,1759704,787,1416,1119,-1244,-553,-469,38,182,-134
33386,4280,0,2023-03-01T18:52:50.183904,1759710,785,1414,1133,-1250,-541,-467,38,182,-134
33387,4281,0,2023-03-01T18:52:50.189965,1759716,785,1414,1133,-1250,-541,-467,38,182,-134
33388,4282,0,2023-03-01T18:52:50.195185,1759721,785,1414,1133,-1250,-541,-467,38,182,-134
33389,4283,0,2023-03-01T18:52:50.200376,1759726,792,1417,1127,-1244,-548,-472,38,182,-134
33390,4284,0,2023-03-01T18:52:50.206520,1759732,792,1417,1127,-1244,-548,-472,38,182,-134
33391,4285,0,2023-03-01T18:52:50.212165,1759738,792,1417,1127,-1244,-548,-472,38,182,-134
33392,4286,0,2023-03-01T18:52:50.217073,1759742,792,1417,1127,-1244,-548,-472,38,182,-134
33393,4287,0,2023-03-01T18:52:50.222020,1759748,783,1408,1136,-1245,-540,-456,38,182,-134
33394,4288,0,2023-03-01T18:52:50.227265,1759753,783,1408,1136,-1245,-540,-456,38,182,-134
33395,4289,0,2023-03-01T18:52:50.232397,1759758,783,1408,1136,-1245,-540,-456,38,182,-134
33396,4290,0,2023-03-01T18:52:50.237663,1759763,783,1408,1136,-1245,-540,-456,38,182,-134
33397,4291,0,2023-03-01T18:52:50.242446,1759768,787,1416,1134,-1250,-537,-471,38,182,-134
33398,4292,0,2023-03-01T18:52:50.249171,1759775,787,1416,1134,-1250,-537,-471,38,182,-134
33399,4293,0,2023-03-01T18:52:50.254838,1759780,787,1416,1134,-1250,-537,-471,38,182,-134
33400,4294,0,2023-03-01T18:52:50.260417,1759787,787,1411,1125,-1246,-553,-466,38,182,-134
33401,4295,0,2023-03-01T18:52:50.266477,1759793,787,1411,1125,-1246,-553,-466,38,182,-134
33402,4296,0,2023-03-01T18:52:50.272457,1759798,787,1411,1125,-1246,-553,-466,38,182,-134
33403,4297,0,2023-03-01T18:52:50.277477,1759803,787,1411,1125,-1246,-553,-466,38,182,-134
33404,4298,0,2023-03-01T18:52:50.282188,1759808,784,1415,1136,-1241,-536,-463,38,182,-134
33405,4299,0,2023-03-01T18:52:50.289438,1759815,784,1415,1136,-1241,-536,-463,38,182,-134
33406,4300,0,2023-03-01T18:52:50.294293,1759820,784,1415,1136,-1241,-536,-463,38,182,-134
33407,4301,0,2023-03-01T18:52:50.299405,1759825,782,1412,1133,-1238,-545,-475,30,176,-140
33408,4302,0,2023-03-01T18:52:50.305909,1759832,782,1412,1133,-1238,-545,-475,30,176,-140
33409,4303,0,2023-03-01T18:52:50.311621,1759838,782,1412,1133,-1238,-545,-475,30,176,-140
33410,4304,0,2023-03-01T18:52:50.316600,1759842,782,1412,1133,-1238,-545,-475,30,176,-140
33411,4305,0,2023-03-01T18:52:50.321489,1759847,787,1410,1134,-1247,-545,-473,30,176,-140
33412,4306,0,2023-03-01T18:52:50.328157,1759854,787,1410,1134,-1247,-545,-473,30,176,-140
33413,4307,0,2023-03-01T18:52:50.333379,1759859,787,1410,1134,-1247,-545,-473,30,176,-140
33414,4308,0,2023-03-01T18:52:50.337834,1759864,787,1410,1134,-1247,-545,-473,30,176,-140
33415,4309,0,2023-03-01T18:52:50.342776,1759868,784,1408,1143,-1246,-537,-471,30,176,-140
33416,4310,0,2023-03-01T18:52:50.348913,1759875,784,1408,1143,-1246,-537,-471,30,176,-140
33417,4311,0,2023-03-01T18:52:50.353597,1759880,784,1408,1143,-1246,-537,-471,30,176,-140
33418,4312,0,2023-03-01T18:52:50.358531,1759885,784,1408,1143,-1246,-537,-471,30,176,-140
33419,4313,0,2023-03-01T18:52:50.364639,1759890,786,1409,1134,-1246,-547,-474,30,176,-140
33420,4314,0,2023-03-01T18:52:50.371814,1759897,786,1409,1134,-1246,-547,-474,30,176,-140
33421,4315,0,2023-03-01T18:52:50.377036,1759903,786,1409,1134,-1246,-547,-474,30,176,-140
33422,4316,0,2023-03-01T18:52:50.382311,1759908,779,1407,1138,-1231,-543,-464,30,176,-140
33423,4317,0,2023-03-01T18:52:50.388787,1759915,779,1407,1138,-1231,-543,-464,30,176,-140
33424,4318,0,2023-03-01T18:52:50.393639,1759920,779,1407,1138,-1231,-543,-464,30,176,-140
33425,4319,0,2023-03-01T18:52:50.398554,1759925,779,1407,1138,-1231,-543,-464,30,176,-140
33426,4320,0,2023-03-01T18:52:50.404624,1759930,779,1407,1138,-1231,-543,-464,30,176,-140
33427,4321,0,2023-03-01T18:52:50.410318,1759936,779,1407,1138,-1231,-543,-464,30,176,-140
33428,4322,0,2023-03-01T18:52:50.415006,1759941,779,1407,1138,-1231,-543,-464,30,176,-140
33429,4323,0,2023-03-01T18:52:50.419817,1759945,780,1408,1139,-1251,-550,-465,28,184,-136
33430,4324,0,2023-03-01T18:52:50.425669,1759951,780,1408,1139,-1251,-550,-465,28,184,-136
33431,4325,0,2023-03-01T18:52:50.431202,1759958,780,1408,1139,-1251,-550,-465,28,184,-136
33432,4326,0,2023-03-01T18:52:50.436104,1759962,780,1408,1139,-1251,-550,-465,28,184,-136
33433,4327,0,2023-03-01T18:52:50.440985,1759967,780,1411,1142,-1244,-532,-460,28,184,-136
33434,4328,0,2023-03-01T18:52:50.446963,1759973,780,1411,1142,-1244,-532,-460,28,184,-136
33435,4329,0,2023-03-01T18:52:50.452346,1759978,780,1411,1142,-1244,-532,-460,28,184,-136
33436,4330,0,2023-03-01T18:52:50.457077,1759983,780,1411,1142,-1244,-532,-460,28,184,-136
33437,4331,0,2023-03-01T18:52:50.462466,1759988,779,1406,1140,-1240,-544,-465,28,184,-136
33438,4332,0,2023-03-01T18:52:50.469174,1759995,779,1406,1140,-1240,-544,-465,28,184,-136
33439,4333,0,2023-03-01T18:52:50.474144,1760000,779,1406,1140,-1240,-544,-465,28,184,-136
33440,4334,0,2023-03-01T18:52:50.478753,1760005,779,1406,1140,-1240,-544,-465,28,184,-136
33441,4335,0,2023-03-01T18:52:50.483863,1760010,783,1407,1140,-1238,-547,-464,28,184,-136
33442,4336,0,2023-03-01T18:52:50.489986,1760016,783,1407,1140,-1238,-547,-464,28,184,-136
33443,4337,0,2023-03-01T18:52:50.494980,1760021,783,1407,1140,-1238,-547,-464,28,184,-136
33444,4338,0,2023-03-01T18:52:50.500074,1760026,778,1404,1145,-1234,-545,-463,28,184,-136
33445,4339,0,2023-03-01T18:52:50.505359,1760031,778,1404,1145,-1234,-545,-463,28,184,-136
33446,4340,0,2023-03-01T18:52:50.510867,1760036,778,1404,1145,-1234,-545,-463,28,184,-136
33447,4341,0,2023-03-01T18:52:50.515658,1760041,778,1404,1145,-1234,-545,-463,28,184,-136
33448,4342,0,2023-03-01T18:52:50.520893,1760047,780,1403,1144,-1240,-553,-464,28,184,-136
33449,4343,0,2023-03-01T18:52:50.526826,1760053,780,1403,1144,-1240,-553,-464,28,184,-136
33450,4344,0,2023-03-01T18:52:50.532336,1760058,780,1403,1144,-1240,-553,-464,28,184,-136
33451,4345,0,2023-03-01T18:52:50.537564,1760063,780,1403,1144,-1240,-553,-464,28,184,-136
33452,4346,0,2023-03-01T18:52:50.542428,1760068,777,1405,1147,-1245,-540,-458,28,184,-136
33453,4347,0,2023-03-01T18:52:50.548867,1760074,777,1405,1147,-1245,-540,-458,28,184,-136
33454,4348,0,2023-03-01T18:52:50.554235,1760080,777,1405,1147,-1245,-540,-458,28,184,-136
33455,4349,0,2023-03-01T18:52:50.559202,1760086,777,1405,1147,-1245,-540,-458,28,184,-136
33456,4350,0,2023-03-01T18:52:50.564202,1760090,778,1406,1147,-1242,-539,-459,29,173,-133
33457,4351,0,2023-03-01T18:52:50.570174,1760096,778,1406,1147,-1242,-539,-459,29,173,-133
33458,4352,0,2023-03-01T18:52:50.575202,1760101,778,1406,1147,-1242,-539,-459,29,173,-133
33459,4353,0,2023-03-01T18:52:50.580211,1760106,775,1401,1145,-1236,-539,-463,29,173,-133
33460,4354,0,2023-03-01T18:52:50.585975,1760112,775,1401,1145,-1236,-539,-463,29,173,-133
33461,4355,0,2023-03-01T18:52:50.591752,1760117,775,1401,1145,-1236,-539,-463,29,173,-133
33462,4356,0,2023-03-01T18:52:50.597036,1760123,775,1401,1145,-1236,-539,-463,29,173,-133
33463,4357,0,2023-03-01T18:52:50.601917,1760128,775,1401,1148,-1244,-539,-461,29,173,-133
33464,4358,0,2023-03-01T18:52:50.608052,1760134,775,1401,1148,-1244,-539,-461,29,173,-133
33465,4359,0,2023-03-01T18:52:50.613565,1760140,775,1401,1148,-1244,-539,-461,29,173,-133
33466,4360,0,2023-03-01T18:52:50.618337,1760144,775,1401,1148,-1244,-539,-461,29,173,-133
33467,4361,0,2023-03-01T18:52:50.624055,1760150,775,1398,1152,-1243,-539,-457,29,173,-133
33468,4362,0,2023-03-01T18:52:50.630278,1760156,775,1398,1152,-1243,-539,-457,29,173,-133
33469,4363,0,2023-03-01T18:52:50.635320,1760161,775,1398,1152,-1243,-539,-457,29,173,-133
33470,4364,0,2023-03-01T18:52:50.640091,1760166,774,1400,1149,-1250,-528,-460,29,173,-133
33471,4365,0,2023-03-01T18:52:50.645876,1760172,774,1400,1149,-1250,-528,-460,29,173,-133
33472,4366,0,2023-03-01T18:52:50.651911,1760178,774,1400,1149,-1250,-528,-460,29,173,-133
33473,4367,0,2023-03-01T18:52:50.656968,1760183,774,1400,1149,-1250,-528,-460,29,173,-133
33474,4368,0,2023-03-01T18:52:50.662423,1760188,775,1400,1145,-1252,-542,-462,29,173,-133
33475,4369,0,2023-03-01T18:52:50.668752,1760195,775,1400,1145,-1252,-542,-462,29,173,-133
33476,4370,0,2023-03-01T18:52:50.673590,1760199,775,1400,1145,-1252,-542,-462,29,173,-133
33477,4371,0,2023-03-01T18:52:50.678668,1760204,775,1400,1145,-1252,-542,-462,29,173,-133
33478,4372,0,2023-03-01T18:52:50.684451,1760210,771,1403,1153,-1245,-541,-453,43,181,-131
33479,4373,0,2023-03-01T18:52:50.690015,1760216,771,1403,1153,-1245,-541,-453,43,181,-131
33480,4374,0,2023-03-01T18:52:50.695448,1760222,771,1403,1153,-1245,-541,-453,43,181,-131
33481,4375,0,2023-03-01T18:52:50.700250,1760226,772,1403,1154,-1240,-533,-463,43,181,-131
33482,4376,0,2023-03-01T18:52:50.706715,1760232,772,1403,1154,-1240,-533,-463,43,181,-131
33483,4377,0,2023-03-01T18:52:50.712525,1760238,772,1403,1154,-1240,-533,-463,43,181,-131
33484,4378,0,2023-03-01T18:52:50.717676,1760243,772,1403,1154,-1240,-533,-463,43,181,-131
33485,4379,0,2023-03-01T18:52:50.722602,1760248,772,1399,1147,-1248,-529,-464,43,181,-131
33486,4380,0,2023-03-01T18:52:50.730072,1760256,772,1399,1147,-1248,-529,-464,43,181,-131
33487,4381,0,2023-03-01T18:52:50.735151,1760261,772,1399,1147,-1248,-529,-464,43,181,-131
33488,4382,0,2023-03-01T18:52:50.740119,1760266,769,1398,1147,-1256,-524,-462,43,181,-131
33489,4383,0,2023-03-01T18:52:50.745962,1760272,769,1398,1147,-1256,-524,-462,43,181,-131
33490,4384,0,2023-03-01T18:52:50.751486,1760277,769,1398,1147,-1256,-524,-462,43,181,-131
33491,4385,0,2023-03-01T18:52:50.756312,1760282,769,1398,1147,-1256,-524,-462,43,181,-131
33492,4386,0,2023-03-01T18:52:50.761254,1760287,768,1390,1152,-1245,-529,-449,43,181,-131
33493,4387,0,2023-03-01T18:52:50.767458,1760293,768,1390,1152,-1245,-529,-449,43,181,-131
33494,4388,0,2023-03-01T18:52:50.773471,1760300,768,1390,1152,-1245,-529,-449,43,181,-131
33495,4389,0,2023-03-01T18:52:50.778220,1760305,768,1390,1152,-1245,-529,-449,43,181,-131
33496,4390,0,2023-03-01T18:52:50.782857,1760309,769,1398,1158,-1244,-525,-461,43,181,-131
33497,4391,0,2023-03-01T18:52:50.789111,1760315,769,1398,1158,-1244,-525,-461,43,181,-131
33498,4392,0,2023-03-01T18:52:50.794042,1760320,769,1398,1158,-1244,-525,-461,43,181,-131
33499,4393,0,2023-03-01T18:52:50.798703,1760325,769,1398,1158,-1244,-525,-461,43,181,-131
33500,4394,0,2023-03-01T18:52:50.804551,1760330,769,1394,1151,-1246,-525,-451,37,175,-135
33501,4395,0,2023-03-01T18:52:50.810506,1760336,769,1394,1151,-1246,-525,-451,37,175,-135
33502,4396,0,2023-03-01T18:52:50.815168,1760342,769,1394,1151,-1246,-525,-451,37,175,-135
33503,4397,0,2023-03-01T18:52:50.819741,1760346,771,1394,1156,-1247,-527,-459,37,175,-135
33504,4398,0,2023-03-01T18:52:50.826448,1760352,771,1394,1156,-1247,-527,-459,37,175,-135
33505,4399,0,2023-03-01T18:52:50.832168,1760358,771,1394,1156,-1247,-527,-459,37,175,-135
33506,4400,0,2023-03-01T18:52:50.836893,1760363,771,1394,1156,-1247,-527,-459,37,175,-135
33507,4401,0,2023-03-01T18:52:50.841663,1760367,774,1395,1159,-1247,-534,-461,37,175,-135
33508,4402,0,2023-03-01T18:52:50.847518,1760373,774,1395,1159,-1247,-534,-461,37,175,-135
33509,4403,0,2023-03-01T18:52:50.853063,1760379,774,1395,1159,-1247,-534,-461,37,175,-135
33510,4404,0,2023-03-01T18:52:50.857770,1760384,774,1395,1159,-1247,-534,-461,37,175,-135
33511,4405,0,2023-03-01T18:52:50.863048,1760389,768,1397,1157,-1253,-530,-460,37,175,-135
33512,4406,0,2023-03-01T18:52:50.868981,1760395,768,1397,1157,-1253,-530,-460,37,175,-135
33513,4407,0,2023-03-01T18:52:50.873919,1760400,768,1397,1157,-1253,-530,-460,37,175,-135
33514,4408,0,2023-03-01T18:52:50.879201,1760405,768,1397,1157,-1253,-530,-460,37,175,-135
33515,4409,0,2023-03-01T18:52:50.884071,1760410,769,1396,1156,-1247,-536,-459,37,175,-135
33516,4410,0,2023-03-01T18:52:50.889687,1760415,769,1396,1156,-1247,-536,-459,37,175,-135
33517,4411,0,2023-03-01T18:52:50.894769,1760420,769,1396,1156,-1247,-536,-459,37,175,-135
33518,4412,0,2023-03-01T18:52:50.899570,1760425,769,1396,1156,-1247,-536,-459,37,175,-135
33519,4413,0,2023-03-01T18:52:50.905224,1760431,766,1398,1150,-1253,-530,-463,37,175,-135
33520,4414,0,2023-03-01T18:52:50.910904,1760437,766,1398,1150,-1253,-530,-463,37,175,-135
33521,4415,0,2023-03-01T18:52:50.916524,1760442,766,1398,1150,-1253,-530,-463,37,175,-135
33522,4416,0,2023-03-01T18:52:50.921963,1760448,768,1394,1154,-1237,-521,-448,37,175,-135
33523,4417,0,2023-03-01T18:52:50.928045,1760454,768,1394,1154,-1237,-521,-448,37,175,-135
33524,4418,0,2023-03-01T18:52:50.933826,1760459,768,1394,1154,-1237,-521,-448,37,175,-135
33525,4419,0,2023-03-01T18:52:50.938700,1760464,768,1394,1154,-1237,-521,-448,37,175,-135
33526,4420,0,2023-03-01T18:52:50.943524,1760470,765,1397,1162,-1249,-529,-463,45,185,-129
33527,4421,0,2023-03-01T18:52:50.949190,1760475,765,1397,1162,-1249,-529,-463,45,185,-129
33528,4422,0,2023-03-01T18:52:50.954675,1760481,765,1397,1162,-1249,-529,-463,45,185,-129
33529,4423,0,2023-03-01T18:52:50.959418,1760485,765,1397,1162,-1249,-529,-463,45,185,-129
33530,4424,0,2023-03-01T18:52:50.965240,1760491,763,1394,1162,-1248,-529,-466,45,185,-129
33531,4425,0,2023-03-01T18:52:50.971436,1760497,763,1394,1162,-1248,-529,-466,45,185,-129
33532,4426,0,2023-03-01T18:52:50.976447,1760502,763,1394,1162,-1248,-529,-466,45,185,-129
33533,4427,0,2023-03-01T18:52:50.981460,1760507,765,1394,1164,-1250,-531,-464,45,185,-129
33534,4428,0,2023-03-01T18:52:50.987603,1760514,765,1394,1164,-1250,-531,-464,45,185,-129
33535,4429,0,2023-03-01T18:52:50.993193,1760519,765,1394,1164,-1250,-531,-464,45,185,-129
33536,4430,0,2023-03-01T18:52:50.998211,1760524,765,1394,1164,-1250,-531,-464,45,185,-129
33537,4431,0,2023-03-01T18:52:51.003118,1760529,763,1390,1165,-1252,-532,-473,45,185,-129
33538,4432,0,2023-03-01T18:52:51.010036,1760535,763,1390,1165,-1252,-532,-473,45,185,-129
33539,4433,0,2023-03-01T18:52:51.015212,1760541,763,1390,1165,-1252,-532,-473,45,185,-129
33540,4434,0,2023-03-01T18:52:51.020085,1760546,764,1388,1162,-1258,-530,-475,45,185,-129
33541,4435,0,2023-03-01T18:52:51.025800,1760551,764,1388,1162,-1258,-530,-475,45,185,-129
33542,4436,0,2023-03-01T18:52:51.032720,1760559,764,1388,1162,-1258,-530,-475,45,185,-129
33543,4437,0,2023-03-01T18:52:51.037837,1760564,764,1388,1162,-1258,-530,-475,45,185,-129
33544,4438,0,2023-03-01T18:52:51.043171,1760569,761,1388,1163,-1244,-532,-467,45,185,-129
33545,4439,0,2023-03-01T18:52:51.049900,1760576,761,1388,1163,-1244,-532,-467,45,185,-129
33546,4440,0,2023-03-01T18:52:51.054536,1760580,761,1388,1163,-1244,-532,-467,45,185,-129
33547,4441,0,2023-03-01T18:52:51.059305,1760585,761,1388,1163,-1244,-532,-467,45,185,-129
33548,4442,0,2023-03-01T18:52:51.065055,1760590,764,1388,1168,-1258,-529,-484,37,177,-135
33549,4443,0,2023-03-01T18:52:51.071172,1760596,764,1388,1168,-1258,-529,-484,37,177,-135
33550,4444,0,2023-03-01T18:52:51.076075,1760602,764,1388,1168,-1258,-529,-484,37,177,-135
33551,4445,0,2023-03-01T18:52:51.080788,1760607,761,1385,1169,-1255,-530,-468,37,177,-135
33552,4446,0,2023-03-01T18:52:51.087207,1760613,761,1385,1169,-1255,-530,-468,37,177,-135
33553,4447,0,2023-03-01T18:52:51.092894,1760619,761,1385,1169,-1255,-530,-468,37,177,-135
33554,4448,0,2023-03-01T18:52:51.098046,1760624,761,1385,1169,-1255,-530,-468,37,177,-135
33555,4449,0,2023-03-01T18:52:51.102864,1760628,763,1387,1166,-1253,-525,-469,37,177,-135
33556,4450,0,2023-03-01T18:52:51.109299,1760635,763,1387,1166,-1253,-525,-469,37,177,-135
33557,4451,0,2023-03-01T18:52:51.114220,1760641,763,1387,1166,-1253,-525,-469,37,177,-135
33558,4452,0,2023-03-01T18:52:51.119301,1760646,763,1387,1166,-1253,-525,-469,37,177,-135
33559,4453,0,2023-03-01T18:52:51.124414,1760650,756,1383,1167,-1248,-531,-474,37,177,-135
33560,4454,0,2023-03-01T18:52:51.130905,1760657,756,1383,1167,-1248,-531,-474,37,177,-135
33561,4455,0,2023-03-01T18:52:51.135820,1760662,756,1383,1167,-1248,-531,-474,37,177,-135
33562,4456,0,2023-03-01T18:52:51.140640,1760666,760,1384,1167,-1247,-534,-467,37,177,-135
33563,4457,0,2023-03-01T18:52:51.146535,1760672,760,1384,1167,-1247,-534,-467,37,177,-135
33564,4458,0,2023-03-01T18:52:51.152308,1760678,760,1384,1167,-1247,-534,-467,37,177,-135
33565,4459,0,2023-03-01T18:52:51.158057,1760684,760,1384,1167,-1247,-534,-467,37,177,-135
33566,4460,0,2023-03-01T18:52:51.163377,1760690,757,1381,1168,-1252,-531,-461,37,177,-135
33567,4461,0,2023-03-01T18:52:51.169646,1760696,757,1381,1168,-1252,-531,-461,37,177,-135
33568,4462,0,2023-03-01T18:52:51.174538,1760700,757,1381,1168,-1252,-531,-461,37,177,-135
33569,4463,0,2023-03-01T18:52:51.179431,1760705,757,1381,1168,-1252,-531,-461,37,177,-135
33570,4464,0,2023-03-01T18:52:51.185216,1760711,758,1383,1171,-1252,-531,-466,37,177,-135
33571,4465,0,2023-03-01T18:52:51.191203,1760717,758,1383,1171,-1252,-531,-466,37,177,-135
33572,4466,0,2023-03-01T18:52:51.196327,1760722,758,1383,1171,-1252,-531,-466,37,177,-135
33573,4467,0,2023-03-01T18:52:51.201877,1760728,756,1381,1173,-1264,-531,-472,34,174,-134
33574,4468,0,2023-03-01T18:52:51.208570,1760734,756,1381,1173,-1264,-531,-472,34,174,-134
33575,4469,0,2023-03-01T18:52:51.213990,1760740,756,1381,1173,-1264,-531,-472,34,174,-134
33576,4470,0,2023-03-01T18:52:51.218954,1760745,756,1381,1173,-1264,-531,-472,34,174,-134
33577,4471,0,2023-03-01T18:52:51.224669,1760750,757,1379,1178,-1254,-530,-463,34,174,-134
33578,4472,0,2023-03-01T18:52:51.231190,1760757,757,1379,1178,-1254,-530,-463,34,174,-134
33579,4473,0,2023-03-01T18:52:51.236183,1760762,757,1379,1178,-1254,-530,-463,34,174,-134
33580,4474,0,2023-03-01T18:52:51.241217,1760768,754,1382,1167,-1253,-536,-465,34,174,-134
33581,4475,0,2023-03-01T18:52:51.247033,1760773,754,1382,1167,-1253,-536,-465,34,174,-134
33582,4476,0,2023-03-01T18:52:51.254612,1760780,754,1382,1167,-1253,-536,-465,34,174,-134
33583,4477,0,2023-03-01T18:52:51.259894,1760786,754,1382,1167,-1253,-536,-465,34,174,-134
33584,4478,0,2023-03-01T18:52:51.265927,1760792,754,1379,1178,-1250,-532,-465,34,174,-134
33585,4479,0,2023-03-01T18:52:51.271915,1760798,754,1379,1178,-1250,-532,-465,34,174,-134
33586,4480,0,2023-03-01T18:52:51.277060,1760803,754,1379,1178,-1250,-532,-465,34,174,-134
33587,4481,0,2023-03-01T18:52:51.282018,1760807,751,1378,1178,-1252,-532,-481,34,174,-134
33588,4482,0,2023-03-01T18:52:51.288200,1760815,751,1378,1178,-1252,-532,-481,34,174,-134
33589,4483,0,2023-03-01T18:52:51.293549,1760820,751,1378,1178,-1252,-532,-481,34,174,-134
33590,4484,0,2023-03-01T18:52:51.298360,1760824,751,1378,1178,-1252,-532,-481,34,174,-134
33591,4485,0,2023-03-01T18:52:51.303492,1760829,756,1380,1170,-1255,-534,-481,34,174,-134
33592,4486,0,2023-03-01T18:52:51.309504,1760835,756,1380,1170,-1255,-534,-481,34,174,-134
33593,4487,0,2023-03-01T18:52:51.314362,1760840,756,1380,1170,-1255,-534,-481,34,174,-134
33594,4488,0,2023-03-01T18:52:51.319334,1760845,756,1380,1170,-1255,-534,-481,34,174,-134
33595,4489,0,2023-03-01T18:52:51.324721,1760850,749,1378,1174,-1244,-524,-476,36,176,-128
33596,4490,0,2023-03-01T18:52:51.330202,1760857,749,1378,1174,-1244,-524,-476,36,176,-128
33597,4491,0,2023-03-01T18:52:51.335532,1760861,749,1378,1174,-1244,-524,-476,36,176,-128
33598,4492,0,2023-03-01T18:52:51.340587,1760867,753,1376,1176,-1244,-536,-472,36,176,-128
33599,4493,0,2023-03-01T18:52:51.346542,1760873,753,1376,1176,-1244,-536,-472,36,176,-128
