,Unnamed: 0,imu,server_time,arduino_time,ax,ay,az,gx,gy,gz,mx,my,mz
33600,4494,0,2023-03-01T18:52:51.352106,1760878,753,1376,1176,-1244,-536,-472,36,176,-128
33601,4495,0,2023-03-01T18:52:51.357084,1760883,753,1376,1176,-1244,-536,-472,36,176,-128
33602,4496,0,2023-03-01T18:52:51.363518,1760889,754,1378,1175,-1248,-537,-477,36,176,-128
33603,4497,0,2023-03-01T18:52:51.370989,1760897,754,1378,1175,-1248,-537,-477,36,176,-128
33604,4498,0,2023-03-01T18:52:51.376410,1760903,754,1378,1175,-1248,-537,-477,36,176,-128
33605,4499,0,2023-03-01T18:52:51.381973,1760908,749,1378,1175,-1247,-527,-470,36,176,-128
33606,4500,0,2023-03-01T18:52:51.388510,1760914,749,1378,1175,-1247,-527,-470,36,176,-128
33607,4501,0,2023-03-01T18:52:51.393806,1760919,749,1378,1175,-1247,-527,-470,36,176,-128
33608,4502,0,2023-03-01T18:52:51.399287,1760925,749,1378,1175,-1247,-527,-470,36,176,-128
33609,4503,0,2023-03-01T18:52:51.404977,1760931,749,1378,1175,-1247,-527,-470,36,176,-128
33610,4504,0,2023-03-01T18:52:51.410248,1760936,749,1378,1175,-1247,-527,-470,36,176,-128
33611,4505,0,2023-03-01T18:52:51.414844,1760941,749,1378,1175,-1247,-527,-470,36,176,-128
33612,4506,0,2023-03-01T18:52:51.419619,1760946,749,1378,1175,-1247,-527,-470,36,176,-128
33613,4507,0,2023-03-01T18:52:51.424902,1760951,752,1375,1181,-1249,-529,-472,36,176,-128
33614,4508,0,2023-03-01T18:52:51.430933,1760957,752,1375,1181,-1249,-529,-472,36,176,-128
33615,4509,0,2023-03-01T18:52:51.435872,1760962,752,1375,1181,-1249,-529,-472,36,176,-128
33616,4510,0,2023-03-01T18:52:51.440854,1760967,751,1378,1179,-1255,-530,-480,36,176,-128
33617,4511,0,2023-03-01T18:52:51.445871,1760972,751,1378,1179,-1255,-530,-480,36,176,-128
33618,4512,0,2023-03-01T18:52:51.451261,1760977,751,1378,1179,-1255,-530,-480,36,176,-128
33619,4513,0,2023-03-01T18:52:51.456014,1760982,751,1378,1179,-1255,-530,-480,36,176,-128
33620,4514,0,2023-03-01T18:52:51.460969,1760987,751,1374,1175,-1259,-531,-473,41,179,-133
33621,4515,0,2023-03-01T18:52:51.467335,1760993,751,1374,1175,-1259,-531,-473,41,179,-133
33622,4516,0,2023-03-01T18:52:51.472979,1760999,751,1374,1175,-1259,-531,-473,41,179,-133
33623,4517,0,2023-03-01T18:52:51.478369,1761004,751,1374,1175,-1259,-531,-473,41,179,-133
33624,4518,0,2023-03-01T18:52:51.483309,1761009,750,1375,1183,-1252,-525,-472,41,179,-133
33625,4519,0,2023-03-01T18:52:51.490344,1761016,750,1375,1183,-1252,-525,-472,41,179,-133
33626,4520,0,2023-03-01T18:52:51.495123,1761021,750,1375,1183,-1252,-525,-472,41,179,-133
33627,4521,0,2023-03-01T18:52:51.500143,1761026,750,1375,1183,-1252,-525,-472,41,179,-133
33628,4522,0,2023-03-01T18:52:51.506776,1761033,749,1370,1185,-1257,-527,-469,41,179,-133
33629,4523,0,2023-03-01T18:52:51.513847,1761040,749,1370,1185,-1257,-527,-469,41,179,-133
33630,4524,0,2023-03-01T18:52:51.519035,1761045,749,1370,1185,-1257,-527,-469,41,179,-133
33631,4525,0,2023-03-01T18:52:51.524505,1761050,747,1373,1181,-1247,-529,-482,41,179,-133
33632,4526,0,2023-03-01T18:52:51.530783,1761056,747,1373,1181,-1247,-529,-482,41,179,-133
33633,4527,0,2023-03-01T18:52:51.535608,1761061,747,1373,1181,-1247,-529,-482,41,179,-133
33634,4528,0,2023-03-01T18:52:51.540558,1761067,747,1373,1181,-1247,-529,-482,41,179,-133
33635,4529,0,2023-03-01T18:52:51.546206,1761072,748,1372,1179,-1260,-533,-465,41,179,-133
33636,4530,0,2023-03-01T18:52:51.552237,1761078,748,1372,1179,-1260,-533,-465,41,179,-133
33637,4531,0,2023-03-01T18:52:51.557484,1761083,748,1372,1179,-1260,-533,-465,41,179,-133
33638,4532,0,2023-03-01T18:52:51.562216,1761088,748,1372,1178,-1257,-526,-462,41,179,-133
33639,4533,0,2023-03-01T18:52:51.568870,1761095,748,1372,1178,-1257,-526,-462,41,179,-133
33640,4534,0,2023-03-01T18:52:51.573749,1761099,748,1372,1178,-1257,-526,-462,41,179,-133
33641,4535,0,2023-03-01T18:52:51.578579,1761104,748,1372,1178,-1257,-526,-462,41,179,-133
33642,4536,0,2023-03-01T18:52:51.583520,1761110,743,1369,1188,-1256,-522,-464,36,176,-132
33643,4537,0,2023-03-01T18:52:51.590399,1761117,743,1369,1188,-1256,-522,-464,36,176,-132
33644,4538,0,2023-03-01T18:52:51.595999,1761122,743,1369,1188,-1256,-522,-464,36,176,-132
33645,4539,0,2023-03-01T18:52:51.600932,1761127,746,1369,1192,-1254,-527,-472,36,176,-132
33646,4540,0,2023-03-01T18:52:51.606824,1761133,746,1369,1192,-1254,-527,-472,36,176,-132
33647,4541,0,2023-03-01T18:52:51.612809,1761138,746,1369,1192,-1254,-527,-472,36,176,-132
33648,4542,0,2023-03-01T18:52:51.618311,1761144,746,1369,1192,-1254,-527,-472,36,176,-132
33649,4543,0,2023-03-01T18:52:51.623833,1761149,742,1368,1187,-1251,-529,-472,36,176,-132
33650,4544,0,2023-03-01T18:52:51.630678,1761157,742,1368,1187,-1251,-529,-472,36,176,-132
33651,4545,0,2023-03-01T18:52:51.635538,1761162,742,1368,1187,-1251,-529,-472,36,176,-132
33652,4546,0,2023-03-01T18:52:51.640257,1761166,742,1368,1187,-1251,-529,-472,36,176,-132
33653,4547,0,2023-03-01T18:52:51.645780,1761172,740,1366,1184,-1268,-523,-476,36,176,-132
33654,4548,0,2023-03-01T18:52:51.650729,1761176,740,1366,1184,-1268,-523,-476,36,176,-132
33655,4549,0,2023-03-01T18:52:51.655961,1761182,740,1366,1184,-1268,-523,-476,36,176,-132
33656,4550,0,2023-03-01T18:52:51.660584,1761186,740,1366,1184,-1268,-523,-476,36,176,-132
33657,4551,0,2023-03-01T18:52:51.665817,1761191,742,1370,1186,-1261,-530,-481,36,176,-132
33658,4552,0,2023-03-01T18:52:51.672042,1761198,742,1370,1186,-1261,-530,-481,36,176,-132
33659,4553,0,2023-03-01T18:52:51.677843,1761204,742,1370,1186,-1261,-530,-481,36,176,-132
33660,4554,0,2023-03-01T18:52:51.682842,1761209,741,1369,1184,-1260,-537,-471,36,176,-132
33661,4555,0,2023-03-01T18:52:51.689572,1761215,741,1369,1184,-1260,-537,-471,36,176,-132
33662,4556,0,2023-03-01T18:52:51.695019,1761221,741,1369,1184,-1260,-537,-471,36,176,-132
33663,4557,0,2023-03-01T18:52:51.700371,1761226,741,1369,1184,-1260,-537,-471,36,176,-132
33664,4558,0,2023-03-01T18:52:51.706435,1761232,740,1362,1190,-1258,-539,-469,33,185,-141
33665,4559,0,2023-03-01T18:52:51.712706,1761239,740,1362,1190,-1258,-539,-469,33,185,-141
33666,4560,0,2023-03-01T18:52:51.717517,1761244,740,1362,1190,-1258,-539,-469,33,185,-141
33667,4561,0,2023-03-01T18:52:51.722180,1761248,735,1366,1191,-1255,-531,-470,33,185,-141
33668,4562,0,2023-03-01T18:52:51.728539,1761254,735,1366,1191,-1255,-531,-470,33,185,-141
33669,4563,0,2023-03-01T18:52:51.735041,1761260,735,1366,1191,-1255,-531,-470,33,185,-141
33670,4564,0,2023-03-01T18:52:51.740532,1761266,735,1366,1191,-1255,-531,-470,33,185,-141
33671,4565,0,2023-03-01T18:52:51.746315,1761272,736,1362,1189,-1271,-525,-483,33,185,-141
33672,4566,0,2023-03-01T18:52:51.753100,1761278,736,1362,1189,-1271,-525,-483,33,185,-141
33673,4567,0,2023-03-01T18:52:51.758194,1761284,736,1362,1189,-1271,-525,-483,33,185,-141
33674,4568,0,2023-03-01T18:52:51.763195,1761289,737,1361,1187,-1255,-530,-480,33,185,-141
33675,4569,0,2023-03-01T18:52:51.769972,1761296,737,1361,1187,-1255,-530,-480,33,185,-141
33676,4570,0,2023-03-01T18:52:51.775348,1761301,737,1361,1187,-1255,-530,-480,33,185,-141
33677,4571,0,2023-03-01T18:52:51.780297,1761306,737,1361,1187,-1255,-530,-480,33,185,-141
33678,4572,0,2023-03-01T18:52:51.785728,1761311,736,1366,1195,-1268,-513,-478,33,185,-141
33679,4573,0,2023-03-01T18:52:51.792073,1761317,736,1366,1195,-1268,-513,-478,33,185,-141
33680,4574,0,2023-03-01T18:52:51.796790,1761323,736,1366,1195,-1268,-513,-478,33,185,-141
33681,4575,0,2023-03-01T18:52:51.802117,1761328,737,1362,1185,-1255,-535,-472,33,185,-141
33682,4576,0,2023-03-01T18:52:51.808951,1761335,737,1362,1185,-1255,-535,-472,33,185,-141
33683,4577,0,2023-03-01T18:52:51.814905,1761341,737,1362,1185,-1255,-535,-472,33,185,-141
33684,4578,0,2023-03-01T18:52:51.820132,1761346,737,1362,1185,-1255,-535,-472,33,185,-141
33685,4579,0,2023-03-01T18:52:51.825547,1761351,738,1363,1194,-1251,-522,-475,33,185,-141
33686,4580,0,2023-03-01T18:52:51.831636,1761357,738,1363,1194,-1251,-522,-475,33,185,-141
33687,4581,0,2023-03-01T18:52:51.836417,1761362,738,1363,1194,-1251,-522,-475,33,185,-141
33688,4582,0,2023-03-01T18:52:51.841554,1761368,736,1365,1198,-1256,-520,-480,39,175,-137
33689,4583,0,2023-03-01T18:52:51.848034,1761374,736,1365,1198,-1256,-520,-480,39,175,-137
33690,4584,0,2023-03-01T18:52:51.854197,1761380,736,1365,1198,-1256,-520,-480,39,175,-137
33691,4585,0,2023-03-01T18:52:51.859604,1761385,736,1365,1198,-1256,-520,-480,39,175,-137
33692,4586,0,2023-03-01T18:52:51.865780,1761392,736,1358,1188,-1251,-527,-471,39,175,-137
33693,4587,0,2023-03-01T18:52:51.873237,1761399,736,1358,1188,-1251,-527,-471,39,175,-137
33694,4588,0,2023-03-01T18:52:51.878446,1761404,736,1358,1188,-1251,-527,-471,39,175,-137
33695,4589,0,2023-03-01T18:52:51.883739,1761410,736,1359,1199,-1260,-532,-485,39,175,-137
33696,4590,0,2023-03-01T18:52:51.889691,1761416,736,1359,1199,-1260,-532,-485,39,175,-137
33697,4591,0,2023-03-01T18:52:51.894500,1761420,736,1359,1199,-1260,-532,-485,39,175,-137
33698,4592,0,2023-03-01T18:52:51.899584,1761425,736,1359,1199,-1260,-532,-485,39,175,-137
33699,4593,0,2023-03-01T18:52:51.904245,1761430,734,1365,1196,-1264,-527,-484,39,175,-137
33700,4594,0,2023-03-01T18:52:51.910054,1761436,734,1365,1196,-1264,-527,-484,39,175,-137
33701,4595,0,2023-03-01T18:52:51.915342,1761441,734,1365,1196,-1264,-527,-484,39,175,-137
33702,4596,0,2023-03-01T18:52:51.920378,1761446,734,1365,1196,-1264,-527,-484,39,175,-137
33703,4597,0,2023-03-01T18:52:51.925329,1761451,728,1358,1192,-1256,-518,-471,39,175,-137
33704,4598,0,2023-03-01T18:52:51.931470,1761458,728,1358,1192,-1256,-518,-471,39,175,-137
33705,4599,0,2023-03-01T18:52:51.936474,1761462,728,1358,1192,-1256,-518,-471,39,175,-137
33706,4600,0,2023-03-01T18:52:51.941294,1761467,734,1358,1193,-1268,-518,-476,39,175,-137
33707,4601,0,2023-03-01T18:52:51.947550,1761473,734,1358,1193,-1268,-518,-476,39,175,-137
33708,4602,0,2023-03-01T18:52:51.953382,1761479,734,1358,1193,-1268,-518,-476,39,175,-137
33709,4603,0,2023-03-01T18:52:51.959162,1761484,734,1358,1193,-1268,-518,-476,39,175,-137
33710,4604,0,2023-03-01T18:52:51.964152,1761490,734,1358,1197,-1274,-520,-479,38,188,-144
33711,4605,0,2023-03-01T18:52:51.971292,1761498,734,1358,1197,-1274,-520,-479,38,188,-144
33712,4606,0,2023-03-01T18:52:51.976136,1761502,734,1358,1197,-1274,-520,-479,38,188,-144
33713,4607,0,2023-03-01T18:52:51.981600,1761507,734,1358,1197,-1270,-517,-486,38,188,-144
33714,4608,0,2023-03-01T18:52:51.988126,1761514,734,1358,1197,-1270,-517,-486,38,188,-144
33715,4609,0,2023-03-01T18:52:51.994638,1761520,734,1358,1197,-1270,-517,-486,38,188,-144
33716,4610,0,2023-03-01T18:52:51.999267,1761525,734,1358,1197,-1270,-517,-486,38,188,-144
33717,4611,0,2023-03-01T18:52:52.004088,1761530,731,1354,1203,-1255,-524,-480,38,188,-144
33718,4612,0,2023-03-01T18:52:52.009218,1761536,731,1354,1203,-1255,-524,-480,38,188,-144
33719,4613,0,2023-03-01T18:52:52.015080,1761541,731,1354,1203,-1255,-524,-480,38,188,-144
33720,4614,0,2023-03-01T18:52:52.020100,1761546,731,1354,1203,-1255,-524,-480,38,188,-144
33721,4615,0,2023-03-01T18:52:52.027159,1761553,733,1357,1200,-1259,-520,-477,38,188,-144
33722,4616,0,2023-03-01T18:52:52.033195,1761559,733,1357,1200,-1259,-520,-477,38,188,-144
33723,4617,0,2023-03-01T18:52:52.038405,1761564,733,1357,1200,-1259,-520,-477,38,188,-144
33724,4618,0,2023-03-01T18:52:52.043515,1761569,730,1349,1201,-1259,-527,-468,38,188,-144
33725,4619,0,2023-03-01T18:52:52.050087,1761576,730,1349,1201,-1259,-527,-468,38,188,-144
33726,4620,0,2023-03-01T18:52:52.054943,1761581,730,1349,1201,-1259,-527,-468,38,188,-144
33727,4621,0,2023-03-01T18:52:52.060362,1761586,730,1349,1201,-1259,-527,-468,38,188,-144
33728,4622,0,2023-03-01T18:52:52.066041,1761592,730,1355,1201,-1262,-529,-483,38,188,-144
33729,4623,0,2023-03-01T18:52:52.072472,1761598,730,1355,1201,-1262,-529,-483,38,188,-144
33730,4624,0,2023-03-01T18:52:52.077581,1761603,730,1355,1201,-1262,-529,-483,38,188,-144
33731,4625,0,2023-03-01T18:52:52.082857,1761608,727,1354,1198,-1263,-527,-477,38,188,-144
33732,4626,0,2023-03-01T18:52:52.089705,1761615,727,1354,1198,-1263,-527,-477,38,188,-144
33733,4627,0,2023-03-01T18:52:52.094403,1761620,727,1354,1198,-1263,-527,-477,38,188,-144
33734,4628,0,2023-03-01T18:52:52.099575,1761626,727,1354,1198,-1263,-527,-477,38,188,-144
33735,4629,0,2023-03-01T18:52:52.104479,1761631,727,1352,1206,-1261,-523,-479,41,175,-139
33736,4630,0,2023-03-01T18:52:52.110759,1761636,727,1352,1206,-1261,-523,-479,41,175,-139
33737,4631,0,2023-03-01T18:52:52.115612,1761642,727,1352,1206,-1261,-523,-479,41,175,-139
33738,4632,0,2023-03-01T18:52:52.120431,1761646,727,1352,1206,-1261,-523,-479,41,175,-139
33739,4633,0,2023-03-01T18:52:52.126085,1761652,729,1349,1208,-1263,-520,-481,41,175,-139
33740,4634,0,2023-03-01T18:52:52.132034,1761658,729,1349,1208,-1263,-520,-481,41,175,-139
33741,4635,0,2023-03-01T18:52:52.138340,1761665,729,1349,1208,-1263,-520,-481,41,175,-139
33742,4636,0,2023-03-01T18:52:52.143002,1761669,725,1352,1210,-1260,-522,-472,41,175,-139
33743,4637,0,2023-03-01T18:52:52.149418,1761675,725,1352,1210,-1260,-522,-472,41,175,-139
33744,4638,0,2023-03-01T18:52:52.154735,1761680,725,1352,1210,-1260,-522,-472,41,175,-139
33745,4639,0,2023-03-01T18:52:52.159497,1761686,725,1352,1210,-1260,-522,-472,41,175,-139
33746,4640,0,2023-03-01T18:52:52.164756,1761690,725,1347,1209,-1258,-521,-474,41,175,-139
33747,4641,0,2023-03-01T18:52:52.170565,1761696,725,1347,1209,-1258,-521,-474,41,175,-139
33748,4642,0,2023-03-01T18:52:52.175531,1761701,725,1347,1209,-1258,-521,-474,41,175,-139
33749,4643,0,2023-03-01T18:52:52.180690,1761707,725,1347,1209,-1258,-521,-474,41,175,-139
33750,4644,0,2023-03-01T18:52:52.186350,1761713,725,1347,1209,-1258,-521,-474,41,175,-139
33751,4645,0,2023-03-01T18:52:52.192099,1761718,725,1347,1209,-1258,-521,-474,41,175,-139
33752,4646,0,2023-03-01T18:52:52.196971,1761723,725,1347,1209,-1258,-521,-474,41,175,-139
33753,4647,0,2023-03-01T18:52:52.202019,1761728,724,1347,1212,-1266,-513,-469,41,175,-139
33754,4648,0,2023-03-01T18:52:52.209024,1761735,724,1347,1212,-1266,-513,-469,41,175,-139
33755,4649,0,2023-03-01T18:52:52.214545,1761740,724,1347,1212,-1266,-513,-469,41,175,-139
33756,4650,0,2023-03-01T18:52:52.219215,1761745,724,1347,1212,-1266,-513,-469,41,175,-139
33757,4651,0,2023-03-01T18:52:52.224386,1761751,722,1345,1215,-1266,-521,-467,38,182,-130
33758,4652,0,2023-03-01T18:52:52.229203,1761755,722,1345,1215,-1266,-521,-467,38,182,-130
33759,4653,0,2023-03-01T18:52:52.234385,1761760,722,1345,1215,-1266,-521,-467,38,182,-130
33760,4654,0,2023-03-01T18:52:52.239400,1761765,722,1345,1215,-1266,-521,-467,38,182,-130
33761,4655,0,2023-03-01T18:52:52.244644,1761770,722,1347,1207,-1268,-524,-484,38,182,-130
33762,4656,0,2023-03-01T18:52:52.251065,1761777,722,1347,1207,-1268,-524,-484,38,182,-130
33763,4657,0,2023-03-01T18:52:52.256503,1761782,722,1347,1207,-1268,-524,-484,38,182,-130
33764,4658,0,2023-03-01T18:52:52.262753,1761787,717,1344,1212,-1255,-528,-476,38,182,-130
33765,4659,0,2023-03-01T18:52:52.268480,1761794,717,1344,1212,-1255,-528,-476,38,182,-130
33766,4660,0,2023-03-01T18:52:52.274629,1761801,717,1344,1212,-1255,-528,-476,38,182,-130
33767,4661,0,2023-03-01T18:52:52.279331,1761805,717,1344,1212,-1255,-528,-476,38,182,-130
33768,4662,0,2023-03-01T18:52:52.284575,1761811,725,1346,1216,-1251,-525,-467,38,182,-130
33769,4663,0,2023-03-01T18:52:52.291625,1761817,725,1346,1216,-1251,-525,-467,38,182,-130
33770,4664,0,2023-03-01T18:52:52.297011,1761823,725,1346,1216,-1251,-525,-467,38,182,-130
33771,4665,0,2023-03-01T18:52:52.301998,1761828,719,1343,1214,-1263,-529,-472,38,182,-130
33772,4666,0,2023-03-01T18:52:52.307657,1761833,719,1343,1214,-1263,-529,-472,38,182,-130
33773,4667,0,2023-03-01T18:52:52.313737,1761840,719,1343,1214,-1263,-529,-472,38,182,-130
33774,4668,0,2023-03-01T18:52:52.318637,1761845,719,1343,1214,-1263,-529,-472,38,182,-130
33775,4669,0,2023-03-01T18:52:52.323173,1761849,719,1350,1205,-1257,-522,-478,38,182,-130
33776,4670,0,2023-03-01T18:52:52.330311,1761855,719,1350,1205,-1257,-522,-478,38,182,-130
33777,4671,0,2023-03-01T18:52:52.334785,1761861,719,1350,1205,-1257,-522,-478,38,182,-130
33778,4672,0,2023-03-01T18:52:52.339602,1761865,719,1350,1205,-1257,-522,-478,38,182,-130
33779,4673,0,2023-03-01T18:52:52.344803,1761870,721,1338,1208,-1255,-529,-471,38,182,-130
33780,4674,0,2023-03-01T18:52:52.351769,1761878,721,1338,1208,-1255,-529,-471,38,182,-130
33781,4675,0,2023-03-01T18:52:52.356889,1761883,721,1338,1208,-1255,-529,-471,38,182,-130
33782,4676,0,2023-03-01T18:52:52.362190,1761888,719,1341,1219,-1265,-526,-481,36,180,-130
33783,4677,0,2023-03-01T18:52:52.368362,1761894,719,1341,1219,-1265,-526,-481,36,180,-134
33784,4678,0,2023-03-01T18:52:52.373973,1761900,719,1341,1219,-1265,-526,-481,36,180,-134
33785,4679,0,2023-03-01T18:52:52.378683,1761905,719,1341,1219,-1265,-526,-481,36,180,-134
33786,4680,0,2023-03-01T18:52:52.383589,1761909,716,1340,1215,-1256,-524,-472,36,180,-134
33787,4681,0,2023-03-01T18:52:52.389684,1761915,716,1340,1215,-1256,-524,-472,36,180,-134
33788,4682,0,2023-03-01T18:52:52.394659,1761921,716,1340,1215,-1256,-524,-472,36,180,-134
33789,4683,0,2023-03-01T18:52:52.399600,1761926,716,1340,1215,-1256,-524,-472,36,180,-134
33790,4684,0,2023-03-01T18:52:52.404864,1761931,719,1341,1215,-1256,-521,-471,36,180,-134
33791,4685,0,2023-03-01T18:52:52.411606,1761938,719,1341,1215,-1256,-521,-471,36,180,-134
33792,4686,0,2023-03-01T18:52:52.416718,1761942,719,1341,1215,-1256,-521,-471,36,180,-134
33793,4687,0,2023-03-01T18:52:52.421713,1761947,719,1341,1215,-1256,-521,-471,36,180,-134
33794,4688,0,2023-03-01T18:52:52.427212,1761953,717,1340,1210,-1263,-521,-471,36,180,-134
33795,4689,0,2023-03-01T18:52:52.433299,1761959,717,1340,1210,-1263,-521,-471,36,180,-134
33796,4690,0,2023-03-01T18:52:52.438135,1761965,717,1340,1210,-1263,-521,-471,36,180,-134
33797,4691,0,2023-03-01T18:52:52.443204,1761970,722,1341,1207,-1256,-524,-485,36,180,-134
33798,4692,0,2023-03-01T18:52:52.449511,1761976,722,1341,1207,-1256,-524,-485,36,180,-134
33799,4693,0,2023-03-01T18:52:52.454464,1761980,722,1341,1207,-1256,-524,-485,36,180,-134
33800,4694,0,2023-03-01T18:52:52.459035,1761985,722,1341,1207,-1256,-524,-485,36,180,-134
33801,4695,0,2023-03-01T18:52:52.464432,1761990,718,1337,1216,-1263,-527,-477,36,180,-134
33802,4696,0,2023-03-01T18:52:52.470787,1761996,718,1337,1216,-1263,-527,-477,36,180,-134
33803,4697,0,2023-03-01T18:52:52.475599,1762001,718,1337,1216,-1263,-527,-477,36,180,-134
33804,4698,0,2023-03-01T18:52:52.483902,1762007,718,1337,1216,-1263,-527,-477,36,180,-134
33805,4699,0,2023-03-01T18:52:52.491434,1762017,721,1339,1214,-1271,-527,-480,34,186,-136
33806,4700,0,2023-03-01T18:52:52.498208,1762024,721,1339,1214,-1271,-527,-480,34,186,-136
33807,4701,0,2023-03-01T18:52:52.502989,1762029,721,1339,1214,-1271,-527,-480,34,186,-136
33808,4702,0,2023-03-01T18:52:52.509662,1762035,721,1339,1214,-1271,-527,-480,34,186,-136
33809,4703,0,2023-03-01T18:52:52.514696,1762040,721,1339,1214,-1271,-527,-480,34,186,-136
33810,4704,0,2023-03-01T18:52:52.519819,1762045,721,1339,1214,-1271,-527,-480,34,186,-136
33811,4705,0,2023-03-01T18:52:52.524467,1762051,716,1336,1220,-1252,-527,-481,34,186,-136
33812,4706,0,2023-03-01T18:52:52.530329,1762057,716,1336,1220,-1252,-527,-481,34,186,-136
33813,4707,0,2023-03-01T18:52:52.535271,1762061,716,1336,1220,-1252,-527,-481,34,186,-136
33814,4708,0,2023-03-01T18:52:52.540050,1762066,716,1336,1220,-1252,-527,-481,34,186,-136
33815,4709,0,2023-03-01T18:52:52.545231,1762071,713,1340,1220,-1255,-539,-484,34,186,-136
33816,4710,0,2023-03-01T18:52:52.551069,1762077,713,1340,1220,-1255,-539,-484,34,186,-136
33817,4711,0,2023-03-01T18:52:52.556148,1762082,713,1340,1220,-1255,-539,-484,34,186,-136
33818,4712,0,2023-03-01T18:52:52.560747,1762086,713,1340,1220,-1255,-539,-484,34,186,-136
33819,4713,0,2023-03-01T18:52:52.565370,1762092,714,1339,1222,-1260,-526,-481,34,186,-136
33820,4714,0,2023-03-01T18:52:52.571224,1762098,714,1339,1222,-1260,-526,-481,34,186,-136
33821,4715,0,2023-03-01T18:52:52.576348,1762102,714,1339,1222,-1260,-526,-481,34,186,-136
33822,4716,0,2023-03-01T18:52:52.581516,1762108,714,1339,1222,-1260,-526,-481,34,186,-136
33823,4717,0,2023-03-01T18:52:52.586347,1762112,714,1336,1221,-1250,-529,-481,34,186,-136
33824,4718,0,2023-03-01T18:52:52.591886,1762118,714,1336,1221,-1250,-529,-481,34,186,-136
33825,4719,0,2023-03-01T18:52:52.596827,1762123,714,1336,1221,-1250,-529,-481,34,186,-136
33826,4720,0,2023-03-01T18:52:52.601465,1762127,714,1336,1221,-1250,-529,-481,34,186,-136
33827,4721,0,2023-03-01T18:52:52.606801,1762132,712,1334,1222,-1258,-531,-483,42,178,-128
33828,4722,0,2023-03-01T18:52:52.612507,1762139,712,1334,1222,-1258,-531,-483,42,178,-128
33829,4723,0,2023-03-01T18:52:52.617143,1762143,712,1334,1222,-1258,-531,-483,42,178,-128
33830,4724,0,2023-03-01T18:52:52.621899,1762148,712,1334,1222,-1258,-531,-483,42,178,-128
33831,4725,0,2023-03-01T18:52:52.627530,1762154,709,1334,1226,-1244,-533,-482,42,178,-128
33832,4726,0,2023-03-01T18:52:52.633440,1762159,709,1334,1226,-1244,-533,-482,42,178,-128
33833,4727,0,2023-03-01T18:52:52.638853,1762164,709,1334,1226,-1244,-533,-482,42,178,-128
33834,4728,0,2023-03-01T18:52:52.643865,1762169,711,1331,1223,-1254,-534,-489,42,178,-128
33835,4729,0,2023-03-01T18:52:52.650302,1762177,711,1331,1223,-1254,-534,-489,42,178,-128
33836,4730,0,2023-03-01T18:52:52.655444,1762182,711,1331,1223,-1254,-534,-489,42,178,-128
33837,4731,0,2023-03-01T18:52:52.660393,1762187,711,1331,1223,-1254,-534,-489,42,178,-128
33838,4732,0,2023-03-01T18:52:52.665194,1762191,711,1331,1225,-1266,-527,-494,42,178,-128
33839,4733,0,2023-03-01T18:52:52.669681,1762196,711,1331,1225,-1266,-527,-494,42,178,-128
33840,4734,0,2023-03-01T18:52:52.674586,1762200,711,1331,1225,-1266,-527,-494,42,178,-128
33841,4735,0,2023-03-01T18:52:52.679630,1762205,711,1331,1225,-1266,-527,-494,42,178,-128
33842,4736,0,2023-03-01T18:52:52.684654,1762210,709,1329,1231,-1262,-532,-477,42,178,-128
33843,4737,0,2023-03-01T18:52:52.691404,1762217,709,1329,1231,-1262,-532,-477,42,178,-128
33844,4738,0,2023-03-01T18:52:52.696888,1762223,709,1329,1231,-1262,-532,-477,42,178,-128
33845,4739,0,2023-03-01T18:52:52.703194,1762229,707,1328,1227,-1259,-526,-471,42,178,-128
33846,4740,0,2023-03-01T18:52:52.709508,1762235,707,1328,1227,-1259,-526,-471,42,178,-128
33847,4741,0,2023-03-01T18:52:52.714579,1762240,707,1328,1227,-1259,-526,-471,42,178,-128
33848,4742,0,2023-03-01T18:52:52.719352,1762245,707,1328,1227,-1259,-526,-471,42,178,-128
33849,4743,0,2023-03-01T18:52:52.724192,1762250,707,1328,1223,-1253,-528,-479,42,178,-128
33850,4744,0,2023-03-01T18:52:52.730735,1762256,707,1328,1223,-1253,-528,-479,42,178,-128
33851,4745,0,2023-03-01T18:52:52.736316,1762262,707,1328,1223,-1253,-528,-479,42,178,-128
33852,4746,0,2023-03-01T18:52:52.741676,1762268,707,1328,1223,-1253,-528,-479,42,178,-128
33853,4747,0,2023-03-01T18:52:52.746959,1762273,708,1326,1236,-1249,-529,-481,39,173,-131
33854,4748,0,2023-03-01T18:52:52.753010,1762279,708,1326,1236,-1249,-529,-481,39,173,-131
33855,4749,0,2023-03-01T18:52:52.758215,1762284,708,1326,1236,-1249,-529,-481,39,173,-131
33856,4750,0,2023-03-01T18:52:52.763270,1762289,708,1325,1234,-1248,-537,-474,39,173,-131
33857,4751,0,2023-03-01T18:52:52.771030,1762296,708,1325,1234,-1248,-537,-474,39,173,-131
33858,4752,0,2023-03-01T18:52:52.776245,1762302,708,1325,1234,-1248,-537,-474,39,173,-131
33859,4753,0,2023-03-01T18:52:52.781463,1762308,708,1325,1234,-1248,-537,-474,39,173,-131
33860,4754,0,2023-03-01T18:52:52.786124,1762312,703,1325,1234,-1256,-525,-480,39,173,-131
33861,4755,0,2023-03-01T18:52:52.792467,1762318,703,1325,1234,-1256,-525,-480,39,173,-131
33862,4756,0,2023-03-01T18:52:52.797478,1762323,703,1325,1234,-1256,-525,-480,39,173,-131
33863,4757,0,2023-03-01T18:52:52.802810,1762329,703,1325,1225,-1243,-535,-481,39,173,-131
33864,4758,0,2023-03-01T18:52:52.809819,1762335,703,1325,1225,-1243,-535,-481,39,173,-131
33865,4759,0,2023-03-01T18:52:52.815008,1762340,703,1325,1225,-1243,-535,-481,39,173,-131
33866,4760,0,2023-03-01T18:52:52.819816,1762345,703,1325,1225,-1243,-535,-481,39,173,-131
33867,4761,0,2023-03-01T18:52:52.824587,1762351,703,1326,1238,-1248,-527,-488,39,173,-131
33868,4762,0,2023-03-01T18:52:52.830990,1762357,703,1326,1238,-1248,-527,-488,39,173,-131
33869,4763,0,2023-03-01T18:52:52.835801,1762362,703,1326,1238,-1248,-527,-488,39,173,-131
33870,4764,0,2023-03-01T18:52:52.840475,1762367,703,1326,1238,-1248,-527,-488,39,173,-131
33871,4765,0,2023-03-01T18:52:52.846114,1762372,705,1325,1232,-1242,-540,-479,39,173,-131
33872,4766,0,2023-03-01T18:52:52.852190,1762378,705,1325,1232,-1242,-540,-479,39,173,-131
33873,4767,0,2023-03-01T18:52:52.857341,1762383,705,1325,1232,-1242,-540,-479,39,173,-131
33874,4768,0,2023-03-01T18:52:52.862153,1762388,705,1325,1232,-1242,-540,-479,39,173,-131
33875,4769,0,2023-03-01T18:52:52.867685,1762394,705,1326,1229,-1252,-532,-477,42,176,-132
33876,4770,0,2023-03-01T18:52:52.872510,1762398,705,1326,1229,-1252,-532,-477,42,176,-132
33877,4771,0,2023-03-01T18:52:52.877445,1762404,705,1326,1229,-1252,-532,-477,42,176,-132
33878,4772,0,2023-03-01T18:52:52.882233,1762408,705,1326,1229,-1252,-532,-477,42,176,-132
33879,4773,0,2023-03-01T18:52:52.886955,1762413,702,1323,1238,-1245,-528,-472,42,176,-132
33880,4774,0,2023-03-01T18:52:52.893171,1762419,702,1323,1238,-1245,-528,-472,42,176,-132
33881,4775,0,2023-03-01T18:52:52.897807,1762423,702,1323,1238,-1245,-528,-472,42,176,-132
33882,4776,0,2023-03-01T18:52:52.902563,1762428,703,1324,1228,-1254,-537,-479,42,176,-132
33883,4777,0,2023-03-01T18:52:52.909537,1762436,703,1324,1228,-1254,-537,-479,42,176,-132
33884,4778,0,2023-03-01T18:52:52.915164,1762441,703,1324,1228,-1254,-537,-479,42,176,-132
33885,4779,0,2023-03-01T18:52:52.920178,1762446,703,1324,1228,-1254,-537,-479,42,176,-132
33886,4780,0,2023-03-01T18:52:52.925568,1762451,698,1319,1232,-1245,-529,-470,42,176,-132
33887,4781,0,2023-03-01T18:52:52.929934,1762456,698,1319,1232,-1245,-529,-470,42,176,-132
33888,4782,0,2023-03-01T18:52:52.935306,1762461,698,1319,1232,-1245,-529,-470,42,176,-132
33889,4783,0,2023-03-01T18:52:52.940790,1762466,698,1319,1232,-1245,-529,-470,42,176,-132
33890,4784,0,2023-03-01T18:52:52.945699,1762471,699,1320,1237,-1248,-523,-482,42,176,-132
33891,4785,0,2023-03-01T18:52:52.951734,1762478,699,1320,1237,-1248,-523,-482,42,176,-132
33892,4786,0,2023-03-01T18:52:52.957338,1762483,699,1320,1237,-1248,-523,-482,42,176,-132
33893,4787,0,2023-03-01T18:52:52.962200,1762488,699,1320,1237,-1248,-523,-482,42,176,-132
33894,4788,0,2023-03-01T18:52:52.967334,1762493,700,1320,1230,-1248,-528,-477,42,176,-132
33895,4789,0,2023-03-01T18:52:52.973902,1762500,700,1320,1230,-1248,-528,-477,42,176,-132
33896,4790,0,2023-03-01T18:52:52.978892,1762504,700,1320,1230,-1248,-528,-477,42,176,-132
33897,4791,0,2023-03-01T18:52:52.983956,1762510,697,1321,1237,-1251,-523,-481,42,176,-132
33898,4792,0,2023-03-01T18:52:52.990565,1762516,697,1321,1237,-1251,-523,-481,42,176,-132
33899,4793,0,2023-03-01T18:52:52.995789,1762522,697,1321,1237,-1251,-523,-481,42,176,-132
33900,4794,0,2023-03-01T18:52:53.000779,1762527,697,1321,1237,-1251,-523,-481,42,176,-132
33901,4795,0,2023-03-01T18:52:53.006493,1762533,701,1322,1239,-1253,-530,-481,38,180,-128
33902,4796,0,2023-03-01T18:52:53.012661,1762538,701,1322,1239,-1253,-530,-481,38,180,-128
33903,4797,0,2023-03-01T18:52:53.017662,1762543,701,1322,1239,-1253,-530,-481,38,180,-128
33904,4798,0,2023-03-01T18:52:53.022895,1762549,701,1319,1239,-1249,-538,-488,38,180,-128
33905,4799,0,2023-03-01T18:52:53.029274,1762555,701,1319,1239,-1249,-538,-488,38,180,-128
33906,4800,0,2023-03-01T18:52:53.034355,1762561,701,1319,1239,-1249,-538,-488,38,180,-128
33907,4801,0,2023-03-01T18:52:53.039824,1762566,701,1319,1239,-1249,-538,-488,38,180,-128
33908,4802,0,2023-03-01T18:52:53.044603,1762571,698,1317,1236,-1246,-538,-478,38,180,-128
33909,4803,0,2023-03-01T18:52:53.049502,1762576,698,1317,1236,-1246,-538,-478,38,180,-128
33910,4804,0,2023-03-01T18:52:53.054454,1762580,698,1317,1236,-1246,-538,-478,38,180,-128
33911,4805,0,2023-03-01T18:52:53.059432,1762586,698,1317,1236,-1246,-538,-478,38,180,-128
33912,4806,0,2023-03-01T18:52:53.064510,1762590,696,1314,1240,-1245,-542,-477,38,180,-128
33913,4807,0,2023-03-01T18:52:53.072697,1762598,696,1314,1240,-1245,-542,-477,38,180,-128
33914,4808,0,2023-03-01T18:52:53.077444,1762604,696,1314,1240,-1245,-542,-477,38,180,-128
33915,4809,0,2023-03-01T18:52:53.082127,1762608,696,1314,1240,-1245,-542,-477,38,180,-128
33916,4810,0,2023-03-01T18:52:53.087885,1762614,697,1314,1241,-1238,-532,-477,38,180,-128
33917,4811,0,2023-03-01T18:52:53.094190,1762620,697,1314,1241,-1238,-532,-477,38,180,-128
33918,4812,0,2023-03-01T18:52:53.098875,1762625,697,1314,1241,-1238,-532,-477,38,180,-128
33919,4813,0,2023-03-01T18:52:53.103491,1762630,695,1315,1238,-1242,-530,-479,38,180,-128
33920,4814,0,2023-03-01T18:52:53.109846,1762635,695,1315,1238,-1242,-530,-479,38,180,-128
33921,4815,0,2023-03-01T18:52:53.115047,1762640,695,1315,1238,-1242,-530,-479,38,180,-128
33922,4816,0,2023-03-01T18:52:53.119819,1762646,695,1315,1238,-1242,-530,-479,38,180,-128
33923,4817,0,2023-03-01T18:52:53.124936,1762651,693,1312,1241,-1250,-538,-481,43,187,-139
33924,4818,0,2023-03-01T18:52:53.131597,1762658,693,1312,1241,-1250,-538,-481,43,187,-139
33925,4819,0,2023-03-01T18:52:53.137090,1762663,693,1312,1241,-1250,-538,-481,43,187,-139
33926,4820,0,2023-03-01T18:52:53.141648,1762668,693,1312,1241,-1250,-538,-481,43,187,-139
33927,4821,0,2023-03-01T18:52:53.147167,1762673,694,1313,1240,-1240,-543,-486,43,187,-139
33928,4822,0,2023-03-01T18:52:53.153640,1762679,694,1313,1240,-1240,-543,-486,43,187,-139
33929,4823,0,2023-03-01T18:52:53.158427,1762684,694,1313,1240,-1240,-543,-486,43,187,-139
33930,4824,0,2023-03-01T18:52:53.163305,1762690,696,1313,1247,-1239,-542,-479,43,187,-139
33931,4825,0,2023-03-01T18:52:53.169685,1762696,696,1313,1247,-1239,-542,-479,43,187,-139
33932,4826,0,2023-03-01T18:52:53.174960,1762701,696,1313,1247,-1239,-542,-479,43,187,-139
33933,4827,0,2023-03-01T18:52:53.179594,1762706,696,1313,1247,-1239,-542,-479,43,187,-139
33934,4828,0,2023-03-01T18:52:53.184318,1762710,696,1313,1247,-1239,-542,-479,43,187,-139
33935,4829,0,2023-03-01T18:52:53.190126,1762716,696,1313,1247,-1239,-542,-479,43,187,-139
33936,4830,0,2023-03-01T18:52:53.195054,1762721,696,1313,1247,-1239,-542,-479,43,187,-139
33937,4831,0,2023-03-01T18:52:53.200037,1762725,696,1313,1247,-1239,-542,-479,43,187,-139
33938,4832,0,2023-03-01T18:52:53.205165,1762731,694,1311,1248,-1242,-538,-481,43,187,-139
33939,4833,0,2023-03-01T18:52:53.211850,1762738,694,1311,1248,-1242,-538,-481,43,187,-139
33940,4834,0,2023-03-01T18:52:53.216868,1762743,694,1311,1248,-1242,-538,-481,43,187,-139
33941,4835,0,2023-03-01T18:52:53.222114,1762748,694,1311,1248,-1242,-538,-481,43,187,-139
33942,4836,0,2023-03-01T18:52:53.226976,1762753,692,1312,1241,-1238,-526,-483,43,187,-139
33943,4837,0,2023-03-01T18:52:53.232828,1762759,692,1312,1241,-1238,-526,-483,43,187,-139
33944,4838,0,2023-03-01T18:52:53.238371,1762764,692,1312,1241,-1238,-526,-483,43,187,-139
33945,4839,0,2023-03-01T18:52:53.243944,1762770,688,1308,1246,-1250,-539,-487,43,187,-139
33946,4840,0,2023-03-01T18:52:53.250641,1762777,688,1308,1246,-1250,-539,-487,43,187,-139
33947,4841,0,2023-03-01T18:52:53.255686,1762782,688,1308,1246,-1250,-539,-487,43,187,-139
33948,4842,0,2023-03-01T18:52:53.260201,1762786,688,1308,1246,-1250,-539,-487,43,187,-139
33949,4843,0,2023-03-01T18:52:53.265468,1762791,691,1308,1249,-1245,-533,-482,45,189,-127
33950,4844,0,2023-03-01T18:52:53.269885,1762796,691,1308,1249,-1245,-533,-482,45,189,-127
33951,4845,0,2023-03-01T18:52:53.274739,1762801,691,1308,1249,-1245,-533,-482,45,189,-127
33952,4846,0,2023-03-01T18:52:53.279685,1762805,691,1308,1249,-1245,-533,-482,45,189,-127
33953,4847,0,2023-03-01T18:52:53.284973,1762810,689,1305,1253,-1245,-535,-476,45,189,-127
33954,4848,0,2023-03-01T18:52:53.291196,1762818,689,1305,1253,-1245,-535,-476,45,189,-127
33955,4849,0,2023-03-01T18:52:53.296020,1762822,689,1305,1253,-1245,-535,-476,45,189,-127
33956,4850,0,2023-03-01T18:52:53.300834,1762827,689,1305,1253,-1245,-535,-476,45,189,-127
33957,4851,0,2023-03-01T18:52:53.305759,1762832,691,1308,1246,-1236,-541,-480,45,189,-127
33958,4852,0,2023-03-01T18:52:53.310684,1762836,691,1308,1246,-1236,-541,-480,45,189,-127
33959,4853,0,2023-03-01T18:52:53.315465,1762841,691,1308,1246,-1236,-541,-480,45,189,-127
33960,4854,0,2023-03-01T18:52:53.320520,1762846,691,1308,1246,-1236,-541,-480,45,189,-127
33961,4855,0,2023-03-01T18:52:53.325169,1762851,690,1304,1249,-1233,-534,-478,45,189,-127
33962,4856,0,2023-03-01T18:52:53.331567,1762857,690,1304,1249,-1233,-534,-478,45,189,-127
33963,4857,0,2023-03-01T18:52:53.336865,1762863,690,1304,1249,-1233,-534,-478,45,189,-127
33964,4858,0,2023-03-01T18:52:53.342780,1762868,690,1304,1249,-1233,-534,-478,45,189,-127
33965,4859,0,2023-03-01T18:52:53.348979,1762875,688,1311,1247,-1239,-531,-478,45,189,-127
33966,4860,0,2023-03-01T18:52:53.354672,1762881,688,1311,1247,-1239,-531,-478,45,189,-127
33967,4861,0,2023-03-01T18:52:53.359952,1762886,688,1311,1247,-1239,-531,-478,45,189,-127
33968,4862,0,2023-03-01T18:52:53.365002,1762891,688,1310,1249,-1251,-544,-487,45,189,-127
33969,4863,0,2023-03-01T18:52:53.371469,1762897,688,1310,1249,-1251,-544,-487,45,189,-127
33970,4864,0,2023-03-01T18:52:53.376405,1762903,688,1310,1249,-1251,-544,-487,45,189,-127
33971,4865,0,2023-03-01T18:52:53.381180,1762908,688,1310,1249,-1251,-544,-487,45,189,-127
33972,4866,0,2023-03-01T18:52:53.385902,1762912,685,1307,1253,-1255,-528,-484,44,186,-134
33973,4867,0,2023-03-01T18:52:53.392027,1762918,685,1307,1253,-1255,-528,-484,44,186,-134
33974,4868,0,2023-03-01T18:52:53.397089,1762923,685,1307,1253,-1255,-528,-484,44,186,-134
33975,4869,0,2023-03-01T18:52:53.402311,1762928,685,1307,1253,-1255,-528,-484,44,186,-134
33976,4870,0,2023-03-01T18:52:53.407237,1762933,684,1306,1251,-1248,-534,-490,44,186,-134
33977,4871,0,2023-03-01T18:52:53.414218,1762940,684,1306,1251,-1248,-534,-490,44,186,-134
33978,4872,0,2023-03-01T18:52:53.419364,1762946,684,1306,1251,-1248,-534,-490,44,186,-134
33979,4873,0,2023-03-01T18:52:53.424342,1762951,683,1304,1253,-1251,-532,-492,44,186,-134
33980,4874,0,2023-03-01T18:52:53.429358,1762955,683,1304,1253,-1251,-532,-492,44,186,-134
33981,4875,0,2023-03-01T18:52:53.435551,1762961,683,1304,1253,-1251,-532,-492,44,186,-134
33982,4876,0,2023-03-01T18:52:53.440175,1762966,683,1304,1253,-1251,-532,-492,44,186,-134
33983,4877,0,2023-03-01T18:52:53.444765,1762970,687,1302,1252,-1248,-536,-493,44,186,-134
33984,4878,0,2023-03-01T18:52:53.451572,1762976,687,1302,1252,-1248,-536,-493,44,186,-134
33985,4879,0,2023-03-01T18:52:53.457083,1762983,687,1302,1252,-1248,-536,-493,44,186,-134
33986,4880,0,2023-03-01T18:52:53.461903,1762988,687,1302,1252,-1248,-536,-493,44,186,-134
33987,4881,0,2023-03-01T18:52:53.466656,1762993,685,1302,1251,-1247,-532,-483,44,186,-134
33988,4882,0,2023-03-01T18:52:53.472765,1762999,685,1302,1251,-1247,-532,-483,44,186,-134
33989,4883,0,2023-03-01T18:52:53.477987,1763004,685,1302,1251,-1247,-532,-483,44,186,-134
33990,4884,0,2023-03-01T18:52:53.483181,1763009,685,1302,1251,-1247,-532,-483,44,186,-134
33991,4885,0,2023-03-01T18:52:53.489427,1763015,684,1303,1251,-1258,-530,-482,44,186,-134
33992,4886,0,2023-03-01T18:52:53.494866,1763020,684,1303,1251,-1258,-530,-482,44,186,-134
33993,4887,0,2023-03-01T18:52:53.499823,1763025,684,1303,1251,-1258,-530,-482,44,186,-134
33994,4888,0,2023-03-01T18:52:53.504521,1763031,690,1301,1254,-1256,-523,-479,42,182,-132
33995,4889,0,2023-03-01T18:52:53.510874,1763037,690,1301,1254,-1256,-523,-479,42,182,-132
33996,4890,0,2023-03-01T18:52:53.515987,1763042,690,1301,1254,-1256,-523,-479,42,182,-132
33997,4891,0,2023-03-01T18:52:53.521674,1763047,690,1301,1254,-1256,-523,-479,42,182,-132
33998,4892,0,2023-03-01T18:52:53.526445,1763052,683,1299,1258,-1254,-527,-480,42,182,-132
33999,4893,0,2023-03-01T18:52:53.532343,1763058,683,1299,1258,-1254,-527,-480,42,182,-132
34000,4894,0,2023-03-01T18:52:53.537137,1763063,683,1299,1258,-1254,-527,-480,42,182,-132
34001,4895,0,2023-03-01T18:52:53.541655,1763067,683,1299,1258,-1254,-527,-480,42,182,-132
34002,4896,0,2023-03-01T18:52:53.547031,1763074,686,1300,1254,-1245,-525,-483,42,182,-132
34003,4897,0,2023-03-01T18:52:53.553408,1763080,686,1300,1254,-1245,-525,-483,42,182,-132
34004,4898,0,2023-03-01T18:52:53.558297,1763084,686,1300,1254,-1245,-525,-483,42,182,-132
34005,4899,0,2023-03-01T18:52:53.563192,1763089,682,1299,1255,-1244,-525,-477,42,182,-132
34006,4900,0,2023-03-01T18:52:53.569611,1763095,682,1299,1255,-1244,-525,-477,42,182,-132
34007,4901,0,2023-03-01T18:52:53.574503,1763100,682,1299,1255,-1244,-525,-477,42,182,-132
34008,4902,0,2023-03-01T18:52:53.579373,1763105,682,1299,1255,-1244,-525,-477,42,182,-132
34009,4903,0,2023-03-01T18:52:53.584500,1763110,683,1294,1253,-1248,-531,-478,42,182,-132
34010,4904,0,2023-03-01T18:52:53.590844,1763117,683,1294,1253,-1248,-531,-478,42,182,-132
34011,4905,0,2023-03-01T18:52:53.596127,1763122,683,1294,1253,-1248,-531,-478,42,182,-132
34012,4906,0,2023-03-01T18:52:53.601076,1763127,683,1294,1253,-1248,-531,-478,42,182,-132
34013,4907,0,2023-03-01T18:52:53.606466,1763133,680,1298,1252,-1247,-533,-486,42,182,-132
34014,4908,0,2023-03-01T18:52:53.612426,1763138,680,1298,1252,-1247,-533,-486,42,182,-132
34015,4909,0,2023-03-01T18:52:53.617461,1763143,680,1298,1252,-1247,-533,-486,42,182,-132
34016,4910,0,2023-03-01T18:52:53.622371,1763148,680,1298,1252,-1247,-533,-486,42,182,-132
34017,4911,0,2023-03-01T18:52:53.628171,1763154,680,1296,1260,-1238,-526,-475,42,182,-132
34018,4912,0,2023-03-01T18:52:53.634171,1763161,680,1296,1260,-1238,-526,-475,42,182,-132
34019,4913,0,2023-03-01T18:52:53.638961,1763165,680,1296,1260,-1238,-526,-475,42,182,-132
34020,4914,0,2023-03-01T18:52:53.643589,1763170,678,1293,1261,-1253,-531,-479,42,176,-130
34021,4915,0,2023-03-01T18:52:53.649735,1763176,678,1293,1261,-1253,-531,-479,42,176,-130
34022,4916,0,2023-03-01T18:52:53.654189,1763180,678,1293,1261,-1253,-531,-479,42,176,-130
34023,4917,0,2023-03-01T18:52:53.659110,1763185,678,1293,1261,-1253,-531,-479,42,176,-130
34024,4918,0,2023-03-01T18:52:53.664288,1763190,681,1293,1262,-1257,-533,-480,42,176,-130
34025,4919,0,2023-03-01T18:52:53.670292,1763196,681,1293,1262,-1257,-533,-480,42,176,-130
34026,4920,0,2023-03-01T18:52:53.675732,1763202,681,1293,1262,-1257,-533,-480,42,176,-130
34027,4921,0,2023-03-01T18:52:53.680850,1763207,681,1293,1262,-1257,-533,-480,42,176,-130
34028,4922,0,2023-03-01T18:52:53.685712,1763212,682,1296,1259,-1248,-522,-475,42,176,-130
34029,4923,0,2023-03-01T18:52:53.691791,1763218,682,1296,1259,-1248,-522,-475,42,176,-130
34030,4924,0,2023-03-01T18:52:53.696922,1763223,682,1296,1259,-1248,-522,-475,42,176,-130
34031,4925,0,2023-03-01T18:52:53.701923,1763228,682,1296,1259,-1248,-522,-475,42,176,-130
34032,4926,0,2023-03-01T18:52:53.706949,1763233,680,1291,1263,-1246,-517,-473,42,176,-130
34033,4927,0,2023-03-01T18:52:53.712867,1763239,680,1291,1263,-1246,-517,-473,42,176,-130
34034,4928,0,2023-03-01T18:52:53.717844,1763244,680,1291,1263,-1246,-517,-473,42,176,-130
34035,4929,0,2023-03-01T18:52:53.723001,1763249,680,1291,1263,-1246,-517,-473,42,176,-130
34036,4930,0,2023-03-01T18:52:53.727894,1763254,674,1291,1264,-1248,-527,-474,42,176,-130
34037,4931,0,2023-03-01T18:52:53.734419,1763260,674,1291,1264,-1248,-527,-474,42,176,-130
34038,4932,0,2023-03-01T18:52:53.739293,1763265,674,1291,1264,-1248,-527,-474,42,176,-130
34039,4933,0,2023-03-01T18:52:53.744142,1763270,675,1293,1265,-1267,-523,-479,42,176,-130
34040,4934,0,2023-03-01T18:52:53.750698,1763277,675,1293,1265,-1267,-523,-479,42,176,-130
34041,4935,0,2023-03-01T18:52:53.756160,1763281,675,1293,1265,-1267,-523,-479,42,176,-130
34042,4936,0,2023-03-01T18:52:53.760970,1763287,675,1293,1265,-1267,-523,-479,42,176,-130
34043,4937,0,2023-03-01T18:52:53.765781,1763292,674,1290,1266,-1253,-529,-481,41,183,-129
34044,4938,0,2023-03-01T18:52:53.771988,1763298,674,1290,1266,-1253,-529,-481,41,183,-129
34045,4939,0,2023-03-01T18:52:53.776874,1763303,674,1290,1266,-1253,-529,-481,41,183,-129
34046,4940,0,2023-03-01T18:52:53.781543,1763308,674,1290,1266,-1253,-529,-481,41,183,-129
34047,4941,0,2023-03-01T18:52:53.787898,1763314,674,1288,1273,-1251,-516,-470,41,183,-129
34048,4942,0,2023-03-01T18:52:53.793929,1763320,674,1288,1273,-1251,-516,-470,41,183,-129
34049,4943,0,2023-03-01T18:52:53.799591,1763325,674,1288,1273,-1251,-516,-470,41,183,-129
34050,4944,0,2023-03-01T18:52:53.804733,1763331,675,1290,1263,-1247,-523,-465,41,183,-129
34051,4945,0,2023-03-01T18:52:53.812250,1763338,675,1290,1263,-1247,-523,-465,41,183,-129
34052,4946,0,2023-03-01T18:52:53.818594,1763345,675,1290,1263,-1247,-523,-465,41,183,-129
34053,4947,0,2023-03-01T18:52:53.823384,1763350,670,1280,1274,-1247,-512,-462,41,183,-129
34054,4948,0,2023-03-01T18:52:53.828283,1763354,670,1280,1274,-1247,-512,-462,41,183,-129
34055,4949,0,2023-03-01T18:52:53.833179,1763359,670,1280,1274,-1247,-512,-462,41,183,-129
34056,4950,0,2023-03-01T18:52:53.837895,1763364,670,1280,1274,-1247,-512,-462,41,183,-129
34057,4951,0,2023-03-01T18:52:53.842895,1763368,670,1280,1274,-1247,-512,-462,41,183,-129
34058,4952,0,2023-03-01T18:52:53.847706,1763374,673,1290,1264,-1239,-515,-473,41,183,-129
34059,4953,0,2023-03-01T18:52:53.853662,1763380,673,1290,1264,-1239,-515,-473,41,183,-129
34060,4954,0,2023-03-01T18:52:53.858718,1763385,673,1290,1264,-1239,-515,-473,41,183,-129
34061,4955,0,2023-03-01T18:52:53.863942,1763390,671,1291,1267,-1236,-516,-464,41,183,-129
34062,4956,0,2023-03-01T18:52:53.868720,1763395,671,1291,1267,-1236,-516,-464,41,183,-129
34063,4957,0,2023-03-01T18:52:53.873497,1763399,671,1291,1267,-1236,-516,-464,41,183,-129
34064,4958,0,2023-03-01T18:52:53.877915,1763404,671,1291,1267,-1236,-516,-464,41,183,-129
34065,4959,0,2023-03-01T18:52:53.882947,1763409,671,1291,1267,-1236,-516,-464,41,183,-129
34066,4960,0,2023-03-01T18:52:53.888232,1763415,669,1287,1270,-1245,-507,-465,41,183,-129
34067,4961,0,2023-03-01T18:52:53.893609,1763420,669,1287,1270,-1245,-507,-465,41,183,-129
34068,4962,0,2023-03-01T18:52:53.898662,1763425,669,1287,1270,-1245,-507,-465,41,183,-129
34069,4963,0,2023-03-01T18:52:53.903405,1763430,672,1289,1272,-1243,-521,-462,41,183,-129
34070,4964,0,2023-03-01T18:52:53.909377,1763435,672,1289,1272,-1243,-521,-462,41,185,-125
34071,4965,0,2023-03-01T18:52:53.914413,1763440,672,1289,1272,-1243,-521,-462,41,185,-125
34072,4966,0,2023-03-01T18:52:53.919346,1763445,672,1289,1272,-1243,-521,-462,41,185,-125
34073,4967,0,2023-03-01T18:52:53.924333,1763450,670,1284,1273,-1256,-510,-465,41,185,-125
34074,4968,0,2023-03-01T18:52:53.929340,1763456,670,1284,1273,-1256,-510,-465,41,185,-125
34075,4969,0,2023-03-01T18:52:53.934198,1763461,670,1284,1273,-1256,-510,-465,41,185,-125
34076,4970,0,2023-03-01T18:52:53.939225,1763466,670,1284,1273,-1256,-510,-465,41,185,-125
34077,4971,0,2023-03-01T18:52:53.943879,1763470,669,1286,1266,-1247,-515,-463,41,185,-125
34078,4972,0,2023-03-01T18:52:53.950365,1763476,669,1286,1266,-1247,-515,-463,41,185,-125
34079,4973,0,2023-03-01T18:52:53.955129,1763481,669,1286,1266,-1247,-515,-463,41,185,-125
34080,4974,0,2023-03-01T18:52:53.959968,1763486,669,1286,1266,-1247,-515,-463,41,185,-125
34081,4975,0,2023-03-01T18:52:53.965023,1763491,671,1287,1265,-1238,-519,-473,41,185,-125
34082,4976,0,2023-03-01T18:52:53.971468,1763497,671,1287,1265,-1238,-519,-473,41,185,-125
34083,4977,0,2023-03-01T18:52:53.976925,1763503,671,1287,1265,-1238,-519,-473,41,185,-125
34084,4978,0,2023-03-01T18:52:53.982242,1763508,671,1287,1265,-1238,-519,-473,41,185,-125
34085,4979,0,2023-03-01T18:52:53.987201,1763513,669,1282,1276,-1242,-521,-466,41,185,-125
34086,4980,0,2023-03-01T18:52:53.993261,1763519,669,1282,1276,-1242,-521,-466,41,185,-125
34087,4981,0,2023-03-01T18:52:53.997972,1763524,669,1282,1276,-1242,-521,-466,41,185,-125
34088,4982,0,2023-03-01T18:52:54.003624,1763529,669,1282,1276,-1242,-521,-466,41,185,-125
34089,4983,0,2023-03-01T18:52:54.009760,1763535,668,1282,1271,-1238,-531,-470,41,185,-125
34090,4984,0,2023-03-01T18:52:54.015795,1763542,668,1282,1271,-1238,-531,-470,41,185,-125
34091,4985,0,2023-03-01T18:52:54.020455,1763547,668,1282,1271,-1238,-531,-470,41,185,-125
34092,4986,0,2023-03-01T18:52:54.025333,1763552,666,1283,1272,-1233,-526,-467,40,184,-126
34093,4987,0,2023-03-01T18:52:54.032276,1763558,666,1283,1272,-1233,-526,-467,40,184,-126
34094,4988,0,2023-03-01T18:52:54.036884,1763563,666,1283,1272,-1233,-526,-467,40,184,-126
34095,4989,0,2023-03-01T18:52:54.042115,1763568,666,1283,1272,-1233,-526,-467,40,184,-126
34096,4990,0,2023-03-01T18:52:54.047229,1763573,669,1283,1273,-1243,-531,-469,40,184,-126
34097,4991,0,2023-03-01T18:52:54.051897,1763578,669,1283,1273,-1243,-531,-469,40,184,-126
34098,4992,0,2023-03-01T18:52:54.056944,1763582,669,1283,1273,-1243,-531,-469,40,184,-126
34099,4993,0,2023-03-01T18:52:54.061970,1763588,669,1283,1273,-1243,-531,-469,40,184,-126
34100,4994,0,2023-03-01T18:52:54.068176,1763594,668,1284,1277,-1237,-533,-481,40,184,-126
34101,4995,0,2023-03-01T18:52:54.074682,1763601,668,1284,1277,-1237,-533,-481,40,184,-126
34102,4996,0,2023-03-01T18:52:54.079436,1763605,668,1284,1277,-1237,-533,-481,40,184,-126
34103,4997,0,2023-03-01T18:52:54.084499,1763610,664,1280,1277,-1234,-527,-472,40,184,-126
34104,4998,0,2023-03-01T18:52:54.091409,1763617,664,1280,1277,-1234,-527,-472,40,184,-126
34105,4999,0,2023-03-01T18:52:54.096171,1763622,664,1280,1277,-1234,-527,-472,40,184,-126
34106,5000,0,2023-03-01T18:52:54.100875,1763627,664,1280,1277,-1234,-527,-472,40,184,-126
34107,5001,0,2023-03-01T18:52:54.105850,1763632,663,1280,1278,-1239,-521,-477,40,184,-126
34108,5002,0,2023-03-01T18:52:54.111957,1763638,663,1280,1278,-1239,-521,-477,40,184,-126
34109,5003,0,2023-03-01T18:52:54.116760,1763643,663,1280,1278,-1239,-521,-477,40,184,-126
34110,5004,0,2023-03-01T18:52:54.122239,1763648,663,1280,1278,-1239,-521,-477,40,184,-126
34111,5005,0,2023-03-01T18:52:54.127228,1763653,663,1277,1281,-1244,-522,-475,40,184,-126
34112,5006,0,2023-03-01T18:52:54.132832,1763659,663,1277,1281,-1244,-522,-475,40,184,-126
34113,5007,0,2023-03-01T18:52:54.137512,1763663,663,1277,1281,-1244,-522,-475,40,184,-126
34114,5008,0,2023-03-01T18:52:54.142958,1763668,663,1277,1281,-1244,-522,-475,40,184,-126
34115,5009,0,2023-03-01T18:52:54.147943,1763674,663,1281,1276,-1245,-523,-478,49,183,-133
34116,5010,0,2023-03-01T18:52:54.153986,1763680,663,1281,1276,-1245,-523,-478,49,183,-133
34117,5011,0,2023-03-01T18:52:54.158859,1763685,663,1281,1276,-1245,-523,-478,49,183,-133
34118,5012,0,2023-03-01T18:52:54.163466,1763690,663,1281,1276,-1245,-523,-478,49,183,-133
34119,5013,0,2023-03-01T18:52:54.168183,1763694,661,1275,1284,-1247,-532,-480,49,183,-133
34120,5014,0,2023-03-01T18:52:54.173844,1763699,661,1275,1284,-1247,-532,-480,49,183,-133
34121,5015,0,2023-03-01T18:52:54.179022,1763705,661,1275,1284,-1247,-532,-480,49,183,-133
34122,5016,0,2023-03-01T18:52:54.183772,1763709,661,1275,1284,-1247,-532,-480,49,183,-133
34123,5017,0,2023-03-01T18:52:54.188297,1763715,662,1278,1278,-1235,-531,-478,49,183,-133
34124,5018,0,2023-03-01T18:52:54.193633,1763720,662,1278,1278,-1235,-531,-478,49,183,-133
34125,5019,0,2023-03-01T18:52:54.198500,1763725,662,1278,1278,-1235,-531,-478,49,183,-133
34126,5020,0,2023-03-01T18:52:54.203477,1763730,662,1278,1278,-1235,-531,-478,49,183,-133
34127,5021,0,2023-03-01T18:52:54.208148,1763734,659,1276,1278,-1230,-533,-472,49,183,-133
34128,5022,0,2023-03-01T18:52:54.213860,1763740,659,1276,1278,-1230,-533,-472,49,183,-133
34129,5023,0,2023-03-01T18:52:54.218727,1763745,659,1276,1278,-1230,-533,-472,49,183,-133
34130,5024,0,2023-03-01T18:52:54.223673,1763749,659,1276,1278,-1230,-533,-472,49,183,-133
34131,5025,0,2023-03-01T18:52:54.229988,1763756,658,1273,1280,-1240,-530,-465,49,183,-133
34132,5026,0,2023-03-01T18:52:54.235948,1763762,658,1273,1280,-1240,-530,-465,49,183,-133
34133,5027,0,2023-03-01T18:52:54.240446,1763767,658,1273,1280,-1240,-530,-465,49,183,-133
34134,5028,0,2023-03-01T18:52:54.245174,1763771,661,1273,1280,-1228,-536,-471,49,183,-133
34135,5029,0,2023-03-01T18:52:54.249943,1763776,661,1273,1280,-1228,-536,-471,49,183,-133
34136,5030,0,2023-03-01T18:52:54.254519,1763781,661,1273,1280,-1228,-536,-471,49,183,-133
34137,5031,0,2023-03-01T18:52:54.259232,1763785,661,1273,1280,-1228,-536,-471,49,183,-133
34138,5032,0,2023-03-01T18:52:54.264264,1763790,663,1274,1282,-1231,-533,-474,49,183,-133
34139,5033,0,2023-03-01T18:52:54.270727,1763796,663,1274,1282,-1231,-533,-474,49,183,-133
34140,5034,0,2023-03-01T18:52:54.275283,1763802,663,1274,1282,-1231,-533,-474,49,183,-133
34141,5035,0,2023-03-01T18:52:54.280146,1763807,663,1274,1282,-1231,-533,-474,49,183,-133
34142,5036,0,2023-03-01T18:52:54.285377,1763811,657,1269,1287,-1249,-523,-473,42,186,-122
34143,5037,0,2023-03-01T18:52:54.290760,1763817,657,1269,1287,-1249,-523,-473,42,186,-122
34144,5038,0,2023-03-01T18:52:54.295450,1763822,657,1269,1287,-1249,-523,-473,42,186,-122
34145,5039,0,2023-03-01T18:52:54.300212,1763826,657,1269,1287,-1249,-523,-473,42,186,-122
34146,5040,0,2023-03-01T18:52:54.305089,1763831,659,1273,1285,-1248,-523,-480,42,186,-122
34147,5041,0,2023-03-01T18:52:54.312138,1763837,659,1273,1285,-1248,-523,-480,42,186,-122
34148,5042,0,2023-03-01T18:52:54.316793,1763843,659,1273,1285,-1248,-523,-480,42,186,-122
34149,5043,0,2023-03-01T18:52:54.321597,1763848,659,1273,1285,-1248,-523,-480,42,186,-122
34150,5044,0,2023-03-01T18:52:54.326321,1763853,656,1266,1288,-1245,-523,-471,42,186,-122
34151,5045,0,2023-03-01T18:52:54.332519,1763858,656,1266,1288,-1245,-523,-471,42,186,-122
34152,5046,0,2023-03-01T18:52:54.337698,1763863,656,1266,1288,-1245,-523,-471,42,186,-122
34153,5047,0,2023-03-01T18:52:54.342433,1763868,656,1266,1288,-1245,-523,-471,42,186,-122
34154,5048,0,2023-03-01T18:52:54.347248,1763873,657,1270,1283,-1246,-529,-479,42,186,-122
34155,5049,0,2023-03-01T18:52:54.353303,1763879,657,1270,1283,-1246,-529,-479,42,186,-122
34156,5050,0,2023-03-01T18:52:54.357972,1763885,657,1270,1283,-1246,-529,-479,42,186,-122
34157,5051,0,2023-03-01T18:52:54.362689,1763889,657,1270,1283,-1246,-529,-479,42,186,-122
34158,5052,0,2023-03-01T18:52:54.367772,1763894,654,1269,1286,-1239,-534,-484,42,186,-122
34159,5053,0,2023-03-01T18:52:54.374121,1763900,654,1269,1286,-1239,-534,-484,42,186,-122
34160,5054,0,2023-03-01T18:52:54.379043,1763905,654,1269,1286,-1239,-534,-484,42,186,-122
34161,5055,0,2023-03-01T18:52:54.383840,1763910,654,1269,1286,-1239,-534,-484,42,186,-122
34162,5056,0,2023-03-01T18:52:54.389272,1763915,659,1270,1286,-1230,-527,-468,42,186,-122
34163,5057,0,2023-03-01T18:52:54.394153,1763920,659,1270,1286,-1230,-527,-468,42,186,-122
34164,5058,0,2023-03-01T18:52:54.398797,1763924,659,1270,1286,-1230,-527,-468,42,186,-122
34165,5059,0,2023-03-01T18:52:54.403788,1763930,659,1270,1286,-1230,-527,-468,42,186,-122
34166,5060,0,2023-03-01T18:52:54.410087,1763936,652,1270,1281,-1231,-524,-471,51,191,-129
34167,5061,0,2023-03-01T18:52:54.415491,1763942,652,1270,1281,-1231,-524,-471,51,191,-129
34168,5062,0,2023-03-01T18:52:54.420040,1763946,652,1270,1281,-1231,-524,-471,51,191,-129
34169,5063,0,2023-03-01T18:52:54.424838,1763951,652,1272,1284,-1239,-528,-468,51,191,-129
34170,5064,0,2023-03-01T18:52:54.431587,1763957,652,1272,1284,-1239,-528,-468,51,191,-129
34171,5065,0,2023-03-01T18:52:54.436474,1763962,652,1272,1284,-1239,-528,-468,51,191,-129
34172,5066,0,2023-03-01T18:52:54.441292,1763968,652,1272,1284,-1239,-528,-468,51,191,-129
34173,5067,0,2023-03-01T18:52:54.445870,1763972,651,1268,1291,-1236,-522,-471,51,191,-129
34174,5068,0,2023-03-01T18:52:54.452387,1763979,651,1268,1291,-1236,-522,-471,51,191,-129
34175,5069,0,2023-03-01T18:52:54.457397,1763984,651,1268,1291,-1236,-522,-471,51,191,-129
34176,5070,0,2023-03-01T18:52:54.462864,1763989,651,1268,1291,-1236,-522,-471,51,191,-129
34177,5071,0,2023-03-01T18:52:54.467936,1763994,652,1265,1285,-1243,-528,-478,51,191,-129
34178,5072,0,2023-03-01T18:52:54.473035,1763999,652,1265,1285,-1243,-528,-478,51,191,-129
34179,5073,0,2023-03-01T18:52:54.477933,1764003,652,1265,1285,-1243,-528,-478,51,191,-129
34180,5074,0,2023-03-01T18:52:54.482986,1764008,652,1265,1285,-1243,-528,-478,51,191,-129
34181,5075,0,2023-03-01T18:52:54.488046,1764014,650,1266,1284,-1239,-525,-474,51,191,-129
34182,5076,0,2023-03-01T18:52:54.494334,1764021,650,1266,1284,-1239,-525,-474,51,191,-129
34183,5077,0,2023-03-01T18:52:54.499671,1764026,650,1266,1284,-1239,-525,-474,51,191,-129
34184,5078,0,2023-03-01T18:52:54.504439,1764030,651,1268,1285,-1242,-522,-473,51,191,-129
34185,5079,0,2023-03-01T18:52:54.509904,1764036,651,1268,1285,-1242,-522,-473,51,191,-129
34186,5080,0,2023-03-01T18:52:54.514930,1764041,651,1268,1285,-1242,-522,-473,51,191,-129
34187,5081,0,2023-03-01T18:52:54.519862,1764045,651,1268,1285,-1242,-522,-473,51,191,-129
34188,5082,0,2023-03-01T18:52:54.524657,1764050,652,1265,1291,-1230,-528,-472,51,191,-129
34189,5083,0,2023-03-01T18:52:54.531144,1764057,652,1265,1291,-1230,-528,-472,51,191,-129
34190,5084,0,2023-03-01T18:52:54.536110,1764062,652,1265,1291,-1230,-528,-472,51,191,-129
34191,5085,0,2023-03-01T18:52:54.541159,1764067,652,1265,1291,-1230,-528,-472,51,191,-129
34192,5086,0,2023-03-01T18:52:54.546472,1764072,656,1266,1294,-1237,-528,-480,48,188,-136
34193,5087,0,2023-03-01T18:52:54.552689,1764078,656,1266,1294,-1237,-528,-480,48,188,-136
34194,5088,0,2023-03-01T18:52:54.557978,1764084,656,1266,1294,-1237,-528,-480,48,188,-136
34195,5089,0,2023-03-01T18:52:54.563103,1764089,656,1266,1294,-1237,-528,-480,48,188,-136
34196,5090,0,2023-03-01T18:52:54.568925,1764094,653,1263,1294,-1231,-520,-474,48,188,-136
34197,5091,0,2023-03-01T18:52:54.574929,1764101,653,1263,1294,-1231,-520,-474,48,188,-136
34198,5092,0,2023-03-01T18:52:54.579878,1764106,653,1263,1294,-1231,-520,-474,48,188,-136
34199,5093,0,2023-03-01T18:52:54.584685,1764111,651,1262,1293,-1240,-532,-468,48,188,-136
34200,5094,0,2023-03-01T18:52:54.590681,1764117,651,1262,1293,-1240,-532,-468,48,188,-136
34201,5095,0,2023-03-01T18:52:54.595598,1764122,651,1262,1293,-1240,-532,-468,48,188,-136
34202,5096,0,2023-03-01T18:52:54.600553,1764127,651,1262,1293,-1240,-532,-468,48,188,-136
34203,5097,0,2023-03-01T18:52:54.605223,1764131,651,1267,1290,-1240,-538,-478,48,188,-136
34204,5098,0,2023-03-01T18:52:54.612113,1764137,651,1267,1290,-1240,-538,-478,48,188,-136
34205,5099,0,2023-03-01T18:52:54.617365,1764143,651,1267,1290,-1240,-538,-478,48,188,-136
34206,5100,0,2023-03-01T18:52:54.622463,1764149,651,1267,1290,-1240,-538,-478,48,188,-136
34207,5101,0,2023-03-01T18:52:54.628122,1764154,646,1257,1289,-1226,-522,-468,48,188,-136
34208,5102,0,2023-03-01T18:52:54.634176,1764160,646,1257,1289,-1226,-522,-468,48,188,-136
34209,5103,0,2023-03-01T18:52:54.639029,1764165,646,1257,1289,-1226,-522,-468,48,188,-136
34210,5104,0,2023-03-01T18:52:54.644252,1764170,646,1257,1289,-1226,-522,-468,48,188,-136
34211,5105,0,2023-03-01T18:52:54.650734,1764176,647,1261,1294,-1231,-527,-468,48,188,-136
34212,5106,0,2023-03-01T18:52:54.656155,1764183,647,1261,1294,-1231,-527,-468,48,188,-136
34213,5107,0,2023-03-01T18:52:54.661070,1764187,647,1261,1294,-1231,-527,-468,48,188,-136
34214,5108,0,2023-03-01T18:52:54.665954,1764192,647,1257,1295,-1240,-523,-472,51,179,-131
34215,5109,0,2023-03-01T18:52:54.673125,1764199,647,1257,1295,-1240,-523,-472,51,179,-131
34216,5110,0,2023-03-01T18:52:54.678018,1764204,647,1257,1295,-1240,-523,-472,51,179,-131
34217,5111,0,2023-03-01T18:52:54.683200,1764209,647,1257,1295,-1240,-523,-472,51,179,-131
34218,5112,0,2023-03-01T18:52:54.687809,1764214,644,1258,1301,-1235,-521,-470,51,179,-131
34219,5113,0,2023-03-01T18:52:54.693314,1764219,644,1258,1301,-1235,-521,-470,51,179,-131
34220,5114,0,2023-03-01T18:52:54.697933,1764225,644,1258,1301,-1235,-521,-470,51,179,-131
34221,5115,0,2023-03-01T18:52:54.702894,1764229,644,1258,1301,-1235,-521,-470,51,179,-131
34222,5116,0,2023-03-01T18:52:54.707409,1764234,646,1255,1296,-1239,-528,-467,51,179,-131
34223,5117,0,2023-03-01T18:52:54.713288,1764239,646,1255,1296,-1239,-528,-467,51,179,-131
34224,5118,0,2023-03-01T18:52:54.718578,1764245,646,1255,1296,-1239,-528,-467,51,179,-131
34225,5119,0,2023-03-01T18:52:54.723484,1764250,646,1255,1296,-1239,-528,-467,51,179,-131
34226,5120,0,2023-03-01T18:52:54.729869,1764256,644,1254,1296,-1238,-528,-473,51,179,-131
34227,5121,0,2023-03-01T18:52:54.735372,1764261,644,1254,1296,-1238,-528,-473,51,179,-131
34228,5122,0,2023-03-01T18:52:54.740218,1764267,644,1254,1296,-1238,-528,-473,51,179,-131
34229,5123,0,2023-03-01T18:52:54.744982,1764271,645,1258,1285,-1224,-527,-481,51,179,-131
34230,5124,0,2023-03-01T18:52:54.751774,1764278,645,1258,1285,-1224,-527,-481,51,179,-131
34231,5125,0,2023-03-01T18:52:54.756648,1764283,645,1258,1285,-1224,-527,-481,51,179,-131
34232,5126,0,2023-03-01T18:52:54.761318,1764287,645,1258,1285,-1224,-527,-481,51,179,-131
34233,5127,0,2023-03-01T18:52:54.766037,1764292,644,1251,1296,-1233,-534,-477,51,179,-131
34234,5128,0,2023-03-01T18:52:54.770556,1764296,644,1251,1296,-1233,-534,-477,51,179,-131
34235,5129,0,2023-03-01T18:52:54.775991,1764301,644,1251,1296,-1233,-534,-477,51,179,-131
34236,5130,0,2023-03-01T18:52:54.781234,1764307,644,1251,1296,-1233,-534,-477,51,179,-131
34237,5131,0,2023-03-01T18:52:54.785983,1764313,644,1253,1299,-1233,-525,-482,51,179,-131
34238,5132,0,2023-03-01T18:52:54.792559,1764319,644,1253,1299,-1233,-525,-482,51,179,-131
34239,5133,0,2023-03-01T18:52:54.797558,1764324,644,1253,1299,-1233,-525,-482,51,179,-131
34240,5134,0,2023-03-01T18:52:54.802558,1764329,644,1253,1299,-1233,-525,-482,51,179,-131
34241,5135,0,2023-03-01T18:52:54.807589,1764333,648,1256,1296,-1225,-542,-484,44,178,-132
34242,5136,0,2023-03-01T18:52:54.813709,1764340,648,1256,1296,-1225,-542,-484,44,178,-132
34243,5137,0,2023-03-01T18:52:54.818708,1764344,648,1256,1296,-1225,-542,-484,44,178,-132
34244,5138,0,2023-03-01T18:52:54.823448,1764349,648,1256,1296,-1225,-542,-484,44,178,-132
34245,5139,0,2023-03-01T18:52:54.828226,1764354,638,1246,1299,-1230,-528,-474,44,178,-132
34246,5140,0,2023-03-01T18:52:54.833657,1764360,638,1246,1299,-1230,-528,-474,44,178,-132
34247,5141,0,2023-03-01T18:52:54.838442,1764365,638,1246,1299,-1230,-528,-474,44,178,-132
34248,5142,0,2023-03-01T18:52:54.843632,1764370,638,1246,1299,-1230,-528,-474,44,178,-132
34249,5143,0,2023-03-01T18:52:54.848463,1764375,645,1253,1298,-1230,-533,-483,44,178,-132
34250,5144,0,2023-03-01T18:52:54.853691,1764380,645,1253,1298,-1230,-533,-483,44,178,-132
34251,5145,0,2023-03-01T18:52:54.858705,1764384,645,1253,1298,-1230,-533,-483,44,178,-132
34252,5146,0,2023-03-01T18:52:54.864345,1764389,645,1253,1298,-1230,-533,-483,44,178,-132
34253,5147,0,2023-03-01T18:52:54.870327,1764397,639,1249,1295,-1226,-531,-470,44,178,-132
34254,5148,0,2023-03-01T18:52:54.874961,1764402,639,1249,1295,-1226,-531,-470,44,178,-132
34255,5149,0,2023-03-01T18:52:54.879789,1764406,639,1249,1295,-1226,-531,-470,44,178,-132
34256,5150,0,2023-03-01T18:52:54.885010,1764411,639,1249,1295,-1226,-531,-470,44,178,-132
34257,5151,0,2023-03-01T18:52:54.891398,1764417,639,1253,1300,-1233,-528,-471,44,178,-132
34258,5152,0,2023-03-01T18:52:54.897188,1764423,639,1253,1300,-1233,-528,-471,44,178,-132
34259,5153,0,2023-03-01T18:52:54.901970,1764428,639,1253,1300,-1233,-528,-471,44,178,-132
34260,5154,0,2023-03-01T18:52:54.906895,1764433,638,1253,1296,-1234,-530,-479,44,178,-132
34261,5155,0,2023-03-01T18:52:54.912574,1764439,638,1253,1296,-1234,-530,-479,44,178,-132
34262,5156,0,2023-03-01T18:52:54.917203,1764444,638,1253,1296,-1234,-530,-479,44,178,-132
34263,5157,0,2023-03-01T18:52:54.922322,1764448,638,1253,1296,-1234,-530,-479,44,178,-132
34264,5158,0,2023-03-01T18:52:54.927143,1764453,639,1248,1303,-1239,-528,-472,44,180,-132
34265,5159,0,2023-03-01T18:52:54.933316,1764459,639,1248,1303,-1239,-528,-472,44,180,-132
34266,5160,0,2023-03-01T18:52:54.937932,1764464,639,1248,1303,-1239,-528,-472,44,180,-132
34267,5161,0,2023-03-01T18:52:54.943264,1764469,639,1248,1303,-1239,-528,-472,44,180,-132
34268,5162,0,2023-03-01T18:52:54.948535,1764474,638,1253,1302,-1233,-534,-481,44,180,-132
34269,5163,0,2023-03-01T18:52:54.954499,1764481,638,1253,1302,-1233,-534,-481,44,180,-132
34270,5164,0,2023-03-01T18:52:54.959278,1764486,638,1253,1302,-1233,-534,-481,44,180,-132
34271,5165,0,2023-03-01T18:52:54.964189,1764491,638,1253,1302,-1233,-534,-481,44,180,-132
34272,5166,0,2023-03-01T18:52:54.969844,1764496,637,1248,1299,-1225,-530,-470,44,180,-132
34273,5167,0,2023-03-01T18:52:54.975247,1764501,637,1248,1299,-1225,-530,-470,44,180,-132
34274,5168,0,2023-03-01T18:52:54.980135,1764506,637,1248,1299,-1225,-530,-470,44,180,-132
34275,5169,0,2023-03-01T18:52:54.985365,1764511,636,1249,1298,-1231,-531,-470,44,180,-132
34276,5170,0,2023-03-01T18:52:54.990890,1764517,636,1249,1298,-1231,-531,-470,44,180,-132
34277,5171,0,2023-03-01T18:52:54.995979,1764523,636,1249,1298,-1231,-531,-470,44,180,-132
34278,5172,0,2023-03-01T18:52:55.000690,1764527,636,1249,1298,-1231,-531,-470,44,180,-132
34279,5173,0,2023-03-01T18:52:55.005716,1764532,637,1247,1301,-1221,-532,-471,44,180,-132
34280,5174,0,2023-03-01T18:52:55.012773,1764539,637,1247,1301,-1221,-532,-471,44,180,-132
34281,5175,0,2023-03-01T18:52:55.017146,1764543,637,1247,1301,-1221,-532,-471,44,180,-132
34282,5176,0,2023-03-01T18:52:55.021789,1764548,637,1247,1301,-1221,-532,-471,44,180,-132
34283,5177,0,2023-03-01T18:52:55.026303,1764552,636,1246,1305,-1233,-536,-475,44,180,-132
34284,5178,0,2023-03-01T18:52:55.032865,1764559,636,1246,1305,-1233,-536,-475,44,180,-132
34285,5179,0,2023-03-01T18:52:55.037919,1764563,636,1246,1305,-1233,-536,-475,44,180,-132
34286,5180,0,2023-03-01T18:52:55.043454,1764569,636,1246,1305,-1233,-536,-475,44,180,-132
34287,5181,0,2023-03-01T18:52:55.047951,1764574,637,1247,1304,-1224,-534,-479,46,180,-128
34288,5182,0,2023-03-01T18:52:55.054093,1764580,637,1247,1304,-1224,-534,-479,46,180,-128
34289,5183,0,2023-03-01T18:52:55.059037,1764585,637,1247,1304,-1224,-534,-479,46,180,-128
34290,5184,0,2023-03-01T18:52:55.063937,1764590,637,1247,1304,-1224,-534,-479,46,180,-128
34291,5185,0,2023-03-01T18:52:55.069882,1764596,635,1242,1309,-1227,-533,-486,46,180,-128
34292,5186,0,2023-03-01T18:52:55.075649,1764601,635,1242,1309,-1227,-533,-486,46,180,-128
34293,5187,0,2023-03-01T18:52:55.080085,1764606,635,1242,1309,-1227,-533,-486,46,180,-128
34294,5188,0,2023-03-01T18:52:55.084813,1764611,635,1242,1309,-1227,-533,-486,46,180,-128
34295,5189,0,2023-03-01T18:52:55.089784,1764616,632,1244,1307,-1235,-531,-484,46,180,-128
34296,5190,0,2023-03-01T18:52:55.094360,1764621,632,1244,1307,-1235,-531,-484,46,180,-128
34297,5191,0,2023-03-01T18:52:55.099516,1764626,632,1244,1307,-1235,-531,-484,46,180,-128
34298,5192,0,2023-03-01T18:52:55.104483,1764630,632,1244,1307,-1235,-531,-484,46,180,-128
34299,5193,0,2023-03-01T18:52:55.110558,1764636,635,1245,1302,-1230,-536,-474,46,180,-128
