,Unnamed: 0,imu,server_time,arduino_time,ax,ay,az,gx,gy,gz,mx,my,mz
34300,5194,0,2023-03-01T18:52:55.115293,1764641,635,1245,1302,-1230,-536,-474,46,180,-128
34301,5195,0,2023-03-01T18:52:55.120473,1764646,635,1245,1302,-1230,-536,-474,46,180,-128
34302,5196,0,2023-03-01T18:52:55.125472,1764652,632,1241,1311,-1230,-542,-473,46,180,-128
34303,5197,0,2023-03-01T18:52:55.132671,1764659,632,1241,1311,-1230,-542,-473,46,180,-128
34304,5198,0,2023-03-01T18:52:55.137758,1764664,632,1241,1311,-1230,-542,-473,46,180,-128
34305,5199,0,2023-03-01T18:52:55.142592,1764669,632,1241,1311,-1230,-542,-473,46,180,-128
34306,5200,0,2023-03-01T18:52:55.147429,1764673,635,1243,1310,-1230,-536,-477,46,180,-128
34307,5201,0,2023-03-01T18:52:55.153407,1764679,635,1243,1310,-1230,-536,-477,46,180,-128
34308,5202,0,2023-03-01T18:52:55.158515,1764684,635,1243,1310,-1230,-536,-477,46,180,-128
34309,5203,0,2023-03-01T18:52:55.164188,1764689,635,1243,1310,-1230,-536,-477,46,180,-128
34310,5204,0,2023-03-01T18:52:55.170031,1764696,635,1241,1308,-1227,-520,-464,46,180,-128
34311,5205,0,2023-03-01T18:52:55.175724,1764702,635,1241,1308,-1227,-520,-464,46,180,-128
34312,5206,0,2023-03-01T18:52:55.180585,1764707,635,1241,1308,-1227,-520,-464,46,180,-128
34313,5207,0,2023-03-01T18:52:55.185925,1764712,635,1242,1317,-1232,-532,-480,49,179,-123
34314,5208,0,2023-03-01T18:52:55.192493,1764719,635,1242,1317,-1232,-532,-480,49,179,-123
34315,5209,0,2023-03-01T18:52:55.197192,1764723,635,1242,1317,-1232,-532,-480,49,179,-123
34316,5210,0,2023-03-01T18:52:55.202285,1764728,635,1242,1317,-1232,-532,-480,49,179,-123
34317,5211,0,2023-03-01T18:52:55.207321,1764733,632,1242,1314,-1214,-527,-469,49,179,-123
34318,5212,0,2023-03-01T18:52:55.213635,1764740,632,1242,1314,-1214,-527,-469,49,179,-123
34319,5213,0,2023-03-01T18:52:55.220557,1764747,632,1242,1314,-1214,-527,-469,49,179,-123
34320,5214,0,2023-03-01T18:52:55.225280,1764752,631,1240,1309,-1219,-516,-470,49,179,-123
34321,5215,0,2023-03-01T18:52:55.231261,1764757,631,1240,1309,-1219,-516,-470,49,179,-123
34322,5216,0,2023-03-01T18:52:55.236409,1764762,631,1240,1309,-1219,-516,-470,49,179,-123
34323,5217,0,2023-03-01T18:52:55.241596,1764768,631,1240,1309,-1219,-516,-470,49,179,-123
34324,5218,0,2023-03-01T18:52:55.246196,1764772,629,1236,1311,-1234,-522,-473,49,179,-123
34325,5219,0,2023-03-01T18:52:55.252602,1764779,629,1236,1311,-1234,-522,-473,49,179,-123
34326,5220,0,2023-03-01T18:52:55.257575,1764784,629,1236,1311,-1234,-522,-473,49,179,-123
34327,5221,0,2023-03-01T18:52:55.262582,1764789,629,1236,1311,-1234,-522,-473,49,179,-123
34328,5222,0,2023-03-01T18:52:55.267569,1764794,632,1236,1315,-1232,-519,-474,49,179,-123
34329,5223,0,2023-03-01T18:52:55.273423,1764800,632,1236,1315,-1232,-519,-474,49,179,-123
34330,5224,0,2023-03-01T18:52:55.278635,1764805,632,1236,1315,-1232,-519,-474,49,179,-123
34331,5225,0,2023-03-01T18:52:55.283692,1764809,632,1236,1315,-1232,-519,-474,49,179,-123
34332,5226,0,2023-03-01T18:52:55.289106,1764815,629,1234,1315,-1223,-525,-467,49,179,-123
34333,5227,0,2023-03-01T18:52:55.294988,1764820,629,1234,1315,-1223,-525,-467,49,179,-123
34334,5228,0,2023-03-01T18:52:55.300080,1764827,629,1234,1315,-1223,-525,-467,49,179,-123
34335,5229,0,2023-03-01T18:52:55.304863,1764831,629,1234,1315,-1223,-525,-467,49,179,-123
34336,5230,0,2023-03-01T18:52:55.310967,1764837,630,1235,1311,-1231,-537,-472,49,189,-127
34337,5231,0,2023-03-01T18:52:55.316651,1764843,630,1235,1311,-1231,-537,-472,49,189,-127
34338,5232,0,2023-03-01T18:52:55.321937,1764848,630,1235,1311,-1231,-537,-472,49,189,-127
34339,5233,0,2023-03-01T18:52:55.327687,1764853,628,1233,1314,-1222,-535,-472,49,189,-127
34340,5234,0,2023-03-01T18:52:55.334097,1764860,628,1233,1314,-1222,-535,-472,49,189,-127
34341,5235,0,2023-03-01T18:52:55.339150,1764866,628,1233,1314,-1222,-535,-472,49,189,-127
34342,5236,0,2023-03-01T18:52:55.343828,1764870,628,1233,1314,-1222,-535,-472,49,189,-127
34343,5237,0,2023-03-01T18:52:55.348587,1764875,626,1234,1320,-1222,-530,-470,49,189,-127
34344,5238,0,2023-03-01T18:52:55.354120,1764880,626,1234,1320,-1222,-530,-470,49,189,-127
34345,5239,0,2023-03-01T18:52:55.359036,1764885,626,1234,1320,-1222,-530,-470,49,189,-127
34346,5240,0,2023-03-01T18:52:55.364010,1764890,626,1234,1320,-1222,-530,-470,49,189,-127
34347,5241,0,2023-03-01T18:52:55.370000,1764896,627,1233,1314,-1228,-536,-471,49,189,-127
34348,5242,0,2023-03-01T18:52:55.375608,1764901,627,1233,1314,-1228,-536,-471,49,189,-127
34349,5243,0,2023-03-01T18:52:55.380642,1764907,627,1233,1314,-1228,-536,-471,49,189,-127
34350,5244,0,2023-03-01T18:52:55.385886,1764912,624,1233,1320,-1236,-525,-463,49,189,-127
34351,5245,0,2023-03-01T18:52:55.392467,1764919,624,1233,1320,-1236,-525,-463,49,189,-127
34352,5246,0,2023-03-01T18:52:55.397807,1764924,624,1233,1320,-1236,-525,-463,49,189,-127
34353,5247,0,2023-03-01T18:52:55.402998,1764929,624,1233,1320,-1236,-525,-463,49,189,-127
34354,5248,0,2023-03-01T18:52:55.408496,1764934,622,1232,1315,-1227,-520,-464,49,189,-127
34355,5249,0,2023-03-01T18:52:55.413192,1764939,622,1232,1315,-1227,-520,-464,49,189,-127
34356,5250,0,2023-03-01T18:52:55.417942,1764944,622,1232,1315,-1227,-520,-464,49,189,-127
34357,5251,0,2023-03-01T18:52:55.422550,1764948,622,1232,1315,-1227,-520,-464,49,189,-127
34358,5252,0,2023-03-01T18:52:55.427726,1764954,622,1232,1317,-1227,-529,-465,49,189,-127
34359,5253,0,2023-03-01T18:52:55.433926,1764960,622,1232,1317,-1227,-529,-465,49,189,-127
34360,5254,0,2023-03-01T18:52:55.439521,1764966,622,1232,1317,-1227,-529,-465,49,189,-127
34361,5255,0,2023-03-01T18:52:55.444261,1764970,622,1232,1317,-1227,-529,-465,49,189,-127
34362,5256,0,2023-03-01T18:52:55.450112,1764976,623,1231,1326,-1228,-519,-466,53,185,-121
34363,5257,0,2023-03-01T18:52:55.455515,1764981,623,1231,1326,-1228,-519,-466,53,185,-121
34364,5258,0,2023-03-01T18:52:55.459954,1764986,623,1231,1326,-1228,-519,-466,53,185,-121
34365,5259,0,2023-03-01T18:52:55.465303,1764992,623,1231,1326,-1228,-519,-466,53,185,-121
34366,5260,0,2023-03-01T18:52:55.469963,1764996,620,1231,1317,-1226,-519,-461,53,185,-121
34367,5261,0,2023-03-01T18:52:55.475882,1765002,620,1231,1317,-1226,-519,-461,53,185,-121
34368,5262,0,2023-03-01T18:52:55.480602,1765007,620,1231,1317,-1226,-519,-461,53,185,-121
34369,5263,0,2023-03-01T18:52:55.485315,1765011,620,1231,1317,-1226,-519,-461,53,185,-121
34370,5264,0,2023-03-01T18:52:55.491377,1765017,623,1228,1320,-1226,-520,-468,53,185,-121
34371,5265,0,2023-03-01T18:52:55.497307,1765023,623,1228,1320,-1226,-520,-468,53,185,-121
34372,5266,0,2023-03-01T18:52:55.502038,1765028,623,1228,1320,-1226,-520,-468,53,185,-121
34373,5267,0,2023-03-01T18:52:55.506962,1765033,621,1230,1323,-1224,-516,-466,53,185,-121
34374,5268,0,2023-03-01T18:52:55.511582,1765038,621,1230,1323,-1224,-516,-466,53,185,-121
34375,5269,0,2023-03-01T18:52:55.516427,1765043,621,1230,1323,-1224,-516,-466,53,185,-121
34376,5270,0,2023-03-01T18:52:55.521686,1765048,621,1230,1323,-1224,-516,-466,53,185,-121
34377,5271,0,2023-03-01T18:52:55.526464,1765053,617,1225,1321,-1223,-527,-463,53,185,-121
34378,5272,0,2023-03-01T18:52:55.532779,1765059,617,1225,1321,-1223,-527,-463,53,185,-121
34379,5273,0,2023-03-01T18:52:55.537642,1765064,617,1225,1321,-1223,-527,-463,53,185,-121
34380,5274,0,2023-03-01T18:52:55.541983,1765068,617,1225,1321,-1223,-527,-463,53,185,-121
34381,5275,0,2023-03-01T18:52:55.546915,1765072,620,1226,1324,-1230,-528,-474,53,185,-121
34382,5276,0,2023-03-01T18:52:55.552728,1765079,620,1226,1324,-1230,-528,-474,53,185,-121
34383,5277,0,2023-03-01T18:52:55.557383,1765084,620,1226,1324,-1230,-528,-474,53,185,-121
34384,5278,0,2023-03-01T18:52:55.561953,1765088,620,1226,1324,-1230,-528,-474,53,185,-121
34385,5279,0,2023-03-01T18:52:55.567065,1765093,622,1227,1323,-1232,-521,-468,44,190,-128
34386,5280,0,2023-03-01T18:52:55.573940,1765100,622,1227,1323,-1232,-521,-468,44,190,-128
34387,5281,0,2023-03-01T18:52:55.578966,1765105,622,1227,1323,-1232,-521,-468,44,190,-128
34388,5282,0,2023-03-01T18:52:55.583740,1765110,622,1227,1323,-1232,-521,-468,44,190,-128
34389,5283,0,2023-03-01T18:52:55.589513,1765115,618,1225,1320,-1233,-517,-462,44,190,-128
34390,5284,0,2023-03-01T18:52:55.595114,1765122,618,1225,1320,-1233,-517,-462,44,190,-128
34391,5285,0,2023-03-01T18:52:55.599992,1765126,618,1225,1320,-1233,-517,-462,44,190,-128
34392,5286,0,2023-03-01T18:52:55.605206,1765131,618,1225,1320,-1233,-517,-462,44,190,-128
34393,5287,0,2023-03-01T18:52:55.611229,1765137,617,1224,1318,-1237,-518,-474,44,190,-128
34394,5288,0,2023-03-01T18:52:55.616924,1765143,617,1224,1318,-1237,-518,-474,44,190,-128
34395,5289,0,2023-03-01T18:52:55.621845,1765148,617,1224,1318,-1237,-518,-474,44,190,-128
34396,5290,0,2023-03-01T18:52:55.626839,1765152,617,1223,1321,-1227,-511,-475,44,190,-128
34397,5291,0,2023-03-01T18:52:55.633613,1765159,617,1223,1321,-1227,-511,-475,44,190,-128
34398,5292,0,2023-03-01T18:52:55.638545,1765165,617,1223,1321,-1227,-511,-475,44,190,-128
34399,5293,0,2023-03-01T18:52:55.643571,1765170,617,1223,1321,-1227,-511,-475,44,190,-128
34400,5294,0,2023-03-01T18:52:55.648804,1765175,620,1224,1326,-1241,-519,-477,44,190,-128
34401,5295,0,2023-03-01T18:52:55.654385,1765180,620,1224,1326,-1241,-519,-477,44,190,-128
34402,5296,0,2023-03-01T18:52:55.661660,1765187,620,1224,1326,-1241,-519,-477,44,190,-128
34403,5297,0,2023-03-01T18:52:55.667040,1765193,617,1223,1319,-1243,-520,-474,44,190,-128
34404,5298,0,2023-03-01T18:52:55.673888,1765200,617,1223,1319,-1243,-520,-474,44,190,-128
34405,5299,0,2023-03-01T18:52:55.678445,1765204,617,1223,1319,-1243,-520,-474,44,190,-128
34406,5300,0,2023-03-01T18:52:55.683303,1765210,617,1223,1319,-1243,-520,-474,44,190,-128
34407,5301,0,2023-03-01T18:52:55.688444,1765214,617,1224,1323,-1234,-515,-464,44,190,-128
34408,5302,0,2023-03-01T18:52:55.693530,1765220,617,1224,1323,-1234,-515,-464,44,190,-128
34409,5303,0,2023-03-01T18:52:55.698395,1765224,617,1224,1323,-1234,-515,-464,44,190,-128
34410,5304,0,2023-03-01T18:52:55.703425,1765229,617,1224,1323,-1234,-515,-464,44,190,-128
34411,5305,0,2023-03-01T18:52:55.708495,1765234,615,1221,1324,-1235,-514,-463,52,188,-124
34412,5306,0,2023-03-01T18:52:55.715284,1765241,615,1221,1324,-1235,-514,-463,52,188,-124
34413,5307,0,2023-03-01T18:52:55.720455,1765246,615,1221,1324,-1235,-514,-463,52,188,-124
34414,5308,0,2023-03-01T18:52:55.725782,1765252,615,1221,1324,-1235,-514,-463,52,188,-124
34415,5309,0,2023-03-01T18:52:55.731850,1765258,617,1222,1326,-1247,-520,-475,52,188,-124
34416,5310,0,2023-03-01T18:52:55.737458,1765264,617,1222,1326,-1247,-520,-475,52,188,-124
34417,5311,0,2023-03-01T18:52:55.743071,1765269,617,1222,1326,-1247,-520,-475,52,188,-124
34418,5312,0,2023-03-01T18:52:55.748328,1765274,615,1220,1327,-1233,-520,-479,52,188,-124
34419,5313,0,2023-03-01T18:52:55.754803,1765281,615,1220,1327,-1233,-520,-479,52,188,-124
34420,5314,0,2023-03-01T18:52:55.759735,1765286,615,1220,1327,-1233,-520,-479,52,188,-124
34421,5315,0,2023-03-01T18:52:55.764452,1765291,615,1220,1327,-1233,-520,-479,52,188,-124
34422,5316,0,2023-03-01T18:52:55.769697,1765296,617,1221,1327,-1237,-517,-473,52,188,-124
34423,5317,0,2023-03-01T18:52:55.775801,1765302,617,1221,1327,-1237,-517,-473,52,188,-124
34424,5318,0,2023-03-01T18:52:55.780646,1765307,617,1221,1327,-1237,-517,-473,52,188,-124
34425,5319,0,2023-03-01T18:52:55.785545,1765312,617,1221,1327,-1237,-517,-473,52,188,-124
34426,5320,0,2023-03-01T18:52:55.790184,1765316,612,1217,1333,-1246,-522,-466,52,188,-124
34427,5321,0,2023-03-01T18:52:55.795506,1765321,612,1217,1333,-1246,-522,-466,52,188,-124
34428,5322,0,2023-03-01T18:52:55.800626,1765326,612,1217,1333,-1246,-522,-466,52,188,-124
34429,5323,0,2023-03-01T18:52:55.805962,1765331,612,1217,1333,-1246,-522,-466,52,188,-124
34430,5324,0,2023-03-01T18:52:55.812635,1765339,614,1222,1324,-1232,-526,-473,52,188,-124
34431,5325,0,2023-03-01T18:52:55.817830,1765344,614,1222,1324,-1232,-526,-473,52,188,-124
34432,5326,0,2023-03-01T18:52:55.822483,1765349,614,1222,1324,-1232,-526,-473,52,188,-124
34433,5327,0,2023-03-01T18:52:55.826782,1765353,613,1215,1334,-1233,-521,-472,45,181,-125
34434,5328,0,2023-03-01T18:52:55.832410,1765358,613,1215,1334,-1233,-521,-472,45,181,-125
34435,5329,0,2023-03-01T18:52:55.837505,1765363,613,1215,1334,-1233,-521,-472,45,181,-125
34436,5330,0,2023-03-01T18:52:55.842366,1765368,613,1215,1334,-1233,-521,-472,45,181,-125
34437,5331,0,2023-03-01T18:52:55.847206,1765373,609,1218,1336,-1243,-511,-473,45,181,-125
34438,5332,0,2023-03-01T18:52:55.853723,1765380,609,1218,1336,-1243,-511,-473,45,181,-125
34439,5333,0,2023-03-01T18:52:55.859225,1765385,609,1218,1336,-1243,-511,-473,45,181,-125
34440,5334,0,2023-03-01T18:52:55.864138,1765390,609,1218,1336,-1243,-511,-473,45,181,-125
34441,5335,0,2023-03-01T18:52:55.870172,1765396,612,1220,1327,-1241,-519,-471,45,181,-125
34442,5336,0,2023-03-01T18:52:55.875411,1765402,612,1220,1327,-1241,-519,-471,45,181,-125
34443,5337,0,2023-03-01T18:52:55.880596,1765406,612,1220,1327,-1241,-519,-471,45,181,-125
34444,5338,0,2023-03-01T18:52:55.885231,1765411,612,1220,1327,-1241,-519,-471,45,181,-125
34445,5339,0,2023-03-01T18:52:55.891175,1765417,609,1218,1325,-1239,-517,-469,45,181,-125
34446,5340,0,2023-03-01T18:52:55.897189,1765423,609,1218,1325,-1239,-517,-469,45,181,-125
34447,5341,0,2023-03-01T18:52:55.902082,1765429,609,1218,1325,-1239,-517,-469,45,181,-125
34448,5342,0,2023-03-01T18:52:55.906682,1765433,610,1219,1331,-1245,-522,-481,45,181,-125
34449,5343,0,2023-03-01T18:52:55.911682,1765438,610,1219,1331,-1245,-522,-481,45,181,-125
34450,5344,0,2023-03-01T18:52:55.916779,1765443,610,1219,1331,-1245,-522,-481,45,181,-125
34451,5345,0,2023-03-01T18:52:55.921634,1765448,610,1219,1331,-1245,-522,-481,45,181,-125
34452,5346,0,2023-03-01T18:52:55.926313,1765452,609,1215,1333,-1243,-511,-468,45,181,-125
34453,5347,0,2023-03-01T18:52:55.932038,1765458,609,1215,1333,-1243,-511,-468,45,181,-125
34454,5348,0,2023-03-01T18:52:55.936877,1765464,609,1215,1333,-1243,-511,-468,45,181,-125
34455,5349,0,2023-03-01T18:52:55.942072,1765468,609,1215,1333,-1243,-511,-468,45,181,-125
34456,5350,0,2023-03-01T18:52:55.947106,1765473,605,1214,1324,-1241,-515,-475,47,185,-123
34457,5351,0,2023-03-01T18:52:55.953235,1765479,605,1214,1324,-1241,-515,-475,47,185,-123
34458,5352,0,2023-03-01T18:52:55.957841,1765484,605,1214,1324,-1241,-515,-475,47,185,-123
34459,5353,0,2023-03-01T18:52:55.962858,1765489,605,1214,1324,-1241,-515,-475,47,185,-123
34460,5354,0,2023-03-01T18:52:55.967999,1765494,609,1214,1332,-1246,-512,-477,47,185,-123
34461,5355,0,2023-03-01T18:52:55.973318,1765499,609,1214,1332,-1246,-512,-477,47,185,-123
34462,5356,0,2023-03-01T18:52:55.978798,1765505,609,1214,1332,-1246,-512,-477,47,185,-123
34463,5357,0,2023-03-01T18:52:55.983608,1765510,609,1214,1332,-1246,-512,-477,47,185,-123
34464,5358,0,2023-03-01T18:52:55.989630,1765516,609,1212,1336,-1253,-519,-475,47,185,-123
34465,5359,0,2023-03-01T18:52:55.995336,1765521,609,1212,1336,-1253,-519,-475,47,185,-123
34466,5360,0,2023-03-01T18:52:56.000076,1765526,609,1212,1336,-1253,-519,-475,47,185,-123
34467,5361,0,2023-03-01T18:52:56.004449,1765531,609,1212,1336,-1253,-519,-475,47,185,-123
34468,5362,0,2023-03-01T18:52:56.010976,1765537,608,1209,1335,-1249,-509,-470,47,185,-123
34469,5363,0,2023-03-01T18:52:56.016507,1765542,608,1209,1335,-1249,-509,-470,47,185,-123
34470,5364,0,2023-03-01T18:52:56.021643,1765548,608,1209,1335,-1249,-509,-470,47,185,-123
34471,5365,0,2023-03-01T18:52:56.026313,1765553,607,1207,1332,-1248,-512,-474,47,185,-123
34472,5366,0,2023-03-01T18:52:56.032643,1765559,607,1207,1332,-1248,-512,-474,47,185,-123
34473,5367,0,2023-03-01T18:52:56.037634,1765564,607,1207,1332,-1248,-512,-474,47,185,-123
34474,5368,0,2023-03-01T18:52:56.042646,1765569,607,1207,1332,-1248,-512,-474,47,185,-123
34475,5369,0,2023-03-01T18:52:56.047835,1765574,607,1212,1332,-1252,-511,-479,47,185,-123
34476,5370,0,2023-03-01T18:52:56.053685,1765580,607,1212,1332,-1252,-511,-479,47,185,-123
34477,5371,0,2023-03-01T18:52:56.058568,1765584,607,1212,1332,-1252,-511,-479,47,185,-123
34478,5372,0,2023-03-01T18:52:56.062986,1765590,607,1212,1332,-1252,-511,-479,47,185,-123
34479,5373,0,2023-03-01T18:52:56.067349,1765594,607,1212,1332,-1252,-511,-479,47,185,-123
34480,5374,0,2023-03-01T18:52:56.072462,1765599,607,1212,1332,-1252,-511,-479,47,185,-123
34481,5375,0,2023-03-01T18:52:56.077265,1765604,607,1212,1332,-1252,-511,-479,47,185,-123
34482,5376,0,2023-03-01T18:52:56.082436,1765608,607,1212,1332,-1252,-511,-479,47,185,-123
34483,5377,0,2023-03-01T18:52:56.087346,1765613,603,1210,1345,-1245,-506,-469,51,187,-127
34484,5378,0,2023-03-01T18:52:56.093477,1765619,603,1210,1345,-1245,-506,-469,51,187,-127
34485,5379,0,2023-03-01T18:52:56.099233,1765625,603,1210,1345,-1245,-506,-469,51,187,-127
34486,5380,0,2023-03-01T18:52:56.104114,1765630,603,1210,1345,-1245,-506,-469,51,187,-127
34487,5381,0,2023-03-01T18:52:56.109906,1765636,601,1209,1341,-1242,-513,-473,51,187,-127
34488,5382,0,2023-03-01T18:52:56.115802,1765642,601,1209,1341,-1242,-513,-473,51,187,-127
34489,5383,0,2023-03-01T18:52:56.120852,1765647,601,1209,1341,-1242,-513,-473,51,187,-127
34490,5384,0,2023-03-01T18:52:56.125663,1765652,601,1209,1341,-1242,-513,-473,51,187,-127
34491,5385,0,2023-03-01T18:52:56.131370,1765657,601,1211,1338,-1237,-521,-473,51,187,-127
34492,5386,0,2023-03-01T18:52:56.137290,1765663,601,1211,1338,-1237,-521,-473,51,187,-127
34493,5387,0,2023-03-01T18:52:56.142542,1765668,601,1211,1338,-1237,-521,-473,51,187,-127
34494,5388,0,2023-03-01T18:52:56.147605,1765673,600,1207,1338,-1241,-519,-468,51,187,-127
34495,5389,0,2023-03-01T18:52:56.154832,1765681,600,1207,1338,-1241,-519,-468,51,187,-127
34496,5390,0,2023-03-01T18:52:56.159857,1765686,600,1207,1338,-1241,-519,-468,51,187,-127
34497,5391,0,2023-03-01T18:52:56.165098,1765691,600,1207,1338,-1241,-519,-468,51,187,-127
34498,5392,0,2023-03-01T18:52:56.171419,1765697,601,1207,1337,-1231,-507,-471,51,187,-127
34499,5393,0,2023-03-01T18:52:56.177417,1765703,601,1207,1337,-1231,-507,-471,51,187,-127
34500,5394,0,2023-03-01T18:52:56.182459,1765708,601,1207,1337,-1231,-507,-471,51,187,-127
34501,5395,0,2023-03-01T18:52:56.187188,1765713,602,1205,1336,-1233,-513,-478,51,187,-127
34502,5396,0,2023-03-01T18:52:56.192858,1765719,602,1205,1336,-1233,-513,-478,51,187,-127
34503,5397,0,2023-03-01T18:52:56.197748,1765724,602,1205,1336,-1233,-513,-478,51,187,-127
34504,5398,0,2023-03-01T18:52:56.202157,1765729,602,1205,1336,-1233,-513,-478,51,187,-127
34505,5399,0,2023-03-01T18:52:56.207699,1765733,596,1198,1339,-1255,-514,-476,39,189,-127
34506,5400,0,2023-03-01T18:52:56.214183,1765740,596,1198,1339,-1255,-514,-476,39,189,-127
34507,5401,0,2023-03-01T18:52:56.219295,1765745,596,1198,1339,-1255,-514,-476,39,189,-127
34508,5402,0,2023-03-01T18:52:56.224246,1765750,596,1198,1339,-1255,-514,-476,39,189,-127
34509,5403,0,2023-03-01T18:52:56.229173,1765755,598,1209,1338,-1244,-517,-477,39,189,-127
34510,5404,0,2023-03-01T18:52:56.234746,1765761,598,1209,1338,-1244,-517,-477,39,189,-127
34511,5405,0,2023-03-01T18:52:56.239832,1765766,598,1209,1338,-1244,-517,-477,39,189,-127
34512,5406,0,2023-03-01T18:52:56.244611,1765771,598,1209,1338,-1244,-517,-477,39,189,-127
34513,5407,0,2023-03-01T18:52:56.250662,1765777,596,1202,1342,-1236,-512,-467,39,189,-127
34514,5408,0,2023-03-01T18:52:56.256030,1765782,596,1202,1342,-1236,-512,-467,39,189,-127
34515,5409,0,2023-03-01T18:52:56.260761,1765787,596,1202,1342,-1236,-512,-467,39,189,-127
34516,5410,0,2023-03-01T18:52:56.265528,1765791,596,1202,1342,-1236,-512,-467,39,189,-127
34517,5411,0,2023-03-01T18:52:56.271807,1765797,595,1201,1342,-1248,-512,-471,39,189,-127
34518,5412,0,2023-03-01T18:52:56.277647,1765804,595,1201,1342,-1248,-512,-471,39,189,-127
34519,5413,0,2023-03-01T18:52:56.282420,1765809,595,1201,1342,-1248,-512,-471,39,189,-127
34520,5414,0,2023-03-01T18:52:56.286909,1765813,599,1207,1339,-1243,-525,-481,39,189,-127
34521,5415,0,2023-03-01T18:52:56.293228,1765819,599,1207,1339,-1243,-525,-481,39,189,-127
34522,5416,0,2023-03-01T18:52:56.299306,1765825,599,1207,1339,-1243,-525,-481,39,189,-127
34523,5417,0,2023-03-01T18:52:56.304068,1765830,599,1207,1339,-1243,-525,-481,39,189,-127
34524,5418,0,2023-03-01T18:52:56.309789,1765836,593,1197,1344,-1233,-516,-478,39,189,-127
34525,5419,0,2023-03-01T18:52:56.314930,1765841,593,1197,1344,-1233,-516,-478,39,189,-127
34526,5420,0,2023-03-01T18:52:56.319935,1765846,593,1197,1344,-1233,-516,-478,39,189,-127
34527,5421,0,2023-03-01T18:52:56.325084,1765852,593,1197,1344,-1233,-516,-478,39,189,-127
34528,5422,0,2023-03-01T18:52:56.331017,1765857,596,1202,1343,-1234,-516,-479,39,189,-127
34529,5423,0,2023-03-01T18:52:56.336729,1765863,596,1202,1343,-1234,-516,-479,39,189,-127
34530,5424,0,2023-03-01T18:52:56.341208,1765867,596,1202,1343,-1234,-516,-479,39,189,-127
34531,5425,0,2023-03-01T18:52:56.345933,1765872,596,1202,1343,-1234,-516,-479,39,189,-127
34532,5426,0,2023-03-01T18:52:56.350569,1765876,596,1199,1344,-1231,-520,-464,49,191,-119
34533,5427,0,2023-03-01T18:52:56.356191,1765882,596,1199,1344,-1231,-520,-464,49,191,-119
34534,5428,0,2023-03-01T18:52:56.360986,1765888,596,1199,1344,-1231,-520,-464,49,191,-119
34535,5429,0,2023-03-01T18:52:56.365754,1765892,596,1199,1344,-1231,-520,-464,49,191,-119
34536,5430,0,2023-03-01T18:52:56.372144,1765898,593,1196,1348,-1241,-510,-470,49,191,-119
34537,5431,0,2023-03-01T18:52:56.377653,1765904,593,1196,1348,-1241,-510,-470,49,191,-119
34538,5432,0,2023-03-01T18:52:56.382918,1765909,593,1196,1348,-1241,-510,-470,49,191,-119
34539,5433,0,2023-03-01T18:52:56.387610,1765914,594,1199,1342,-1234,-517,-479,49,191,-119
34540,5434,0,2023-03-01T18:52:56.392390,1765918,594,1199,1342,-1234,-517,-479,49,191,-119
34541,5435,0,2023-03-01T18:52:56.397137,1765923,594,1199,1342,-1234,-517,-479,49,191,-119
34542,5436,0,2023-03-01T18:52:56.401868,1765928,594,1199,1342,-1234,-517,-479,49,191,-119
34543,5437,0,2023-03-01T18:52:56.406478,1765933,594,1199,1342,-1234,-517,-479,49,191,-119
34544,5438,0,2023-03-01T18:52:56.412793,1765939,593,1196,1348,-1238,-518,-476,49,191,-119
34545,5439,0,2023-03-01T18:52:56.418312,1765945,593,1196,1348,-1238,-518,-476,49,191,-119
34546,5440,0,2023-03-01T18:52:56.423178,1765949,593,1196,1348,-1238,-518,-476,49,191,-119
34547,5441,0,2023-03-01T18:52:56.428075,1765954,593,1194,1349,-1236,-512,-477,49,191,-119
34548,5442,0,2023-03-01T18:52:56.435092,1765961,593,1194,1349,-1236,-512,-477,49,191,-119
34549,5443,0,2023-03-01T18:52:56.439849,1765966,593,1194,1349,-1236,-512,-477,49,191,-119
34550,5444,0,2023-03-01T18:52:56.444568,1765970,593,1194,1349,-1236,-512,-477,49,191,-119
34551,5445,0,2023-03-01T18:52:56.450568,1765977,592,1196,1344,-1240,-508,-482,49,191,-119
34552,5446,0,2023-03-01T18:52:56.455711,1765982,592,1196,1344,-1240,-508,-482,49,191,-119
34553,5447,0,2023-03-01T18:52:56.460397,1765987,592,1196,1344,-1240,-508,-482,49,191,-119
34554,5448,0,2023-03-01T18:52:56.465697,1765992,592,1196,1344,-1240,-508,-482,49,191,-119
34555,5449,0,2023-03-01T18:52:56.470785,1765997,590,1191,1349,-1248,-511,-472,41,185,-127
34556,5450,0,2023-03-01T18:52:56.476394,1766003,590,1191,1349,-1248,-511,-472,41,185,-127
34557,5451,0,2023-03-01T18:52:56.481354,1766007,590,1191,1349,-1248,-511,-472,41,185,-127
34558,5452,0,2023-03-01T18:52:56.486286,1766012,590,1191,1349,-1248,-511,-472,41,185,-127
34559,5453,0,2023-03-01T18:52:56.492529,1766019,592,1194,1351,-1250,-512,-483,41,185,-127
34560,5454,0,2023-03-01T18:52:56.497998,1766024,592,1194,1351,-1250,-512,-483,41,185,-127
34561,5455,0,2023-03-01T18:52:56.502735,1766029,592,1194,1351,-1250,-512,-483,41,185,-127
34562,5456,0,2023-03-01T18:52:56.508126,1766034,589,1191,1346,-1250,-517,-492,41,185,-127
34563,5457,0,2023-03-01T18:52:56.514297,1766041,589,1191,1346,-1250,-517,-492,41,185,-127
34564,5458,0,2023-03-01T18:52:56.519444,1766045,589,1191,1346,-1250,-517,-492,41,185,-127
34565,5459,0,2023-03-01T18:52:56.524226,1766050,589,1191,1346,-1250,-517,-492,41,185,-127
34566,5460,0,2023-03-01T18:52:56.529873,1766056,589,1191,1346,-1250,-517,-492,41,185,-127
34567,5461,0,2023-03-01T18:52:56.535171,1766062,589,1191,1346,-1250,-517,-492,41,185,-127
34568,5462,0,2023-03-01T18:52:56.540193,1766067,589,1191,1346,-1250,-517,-492,41,185,-127
34569,5463,0,2023-03-01T18:52:56.545414,1766072,589,1191,1346,-1250,-517,-492,41,185,-127
34570,5464,0,2023-03-01T18:52:56.551267,1766078,592,1190,1355,-1243,-515,-485,41,185,-127
34571,5465,0,2023-03-01T18:52:56.556838,1766083,592,1190,1355,-1243,-515,-485,41,185,-127
34572,5466,0,2023-03-01T18:52:56.561618,1766088,592,1190,1355,-1243,-515,-485,41,185,-127
34573,5467,0,2023-03-01T18:52:56.566376,1766092,592,1190,1355,-1243,-515,-485,41,185,-127
34574,5468,0,2023-03-01T18:52:56.571906,1766098,587,1187,1350,-1249,-514,-483,41,185,-127
34575,5469,0,2023-03-01T18:52:56.577767,1766104,587,1187,1350,-1249,-514,-483,41,185,-127
34576,5470,0,2023-03-01T18:52:56.582701,1766109,587,1187,1350,-1249,-514,-483,41,185,-127
34577,5471,0,2023-03-01T18:52:56.587166,1766114,585,1189,1350,-1246,-524,-479,41,185,-127
34578,5472,0,2023-03-01T18:52:56.593513,1766119,585,1189,1350,-1246,-524,-479,41,185,-127
34579,5473,0,2023-03-01T18:52:56.598196,1766124,585,1189,1350,-1246,-524,-479,41,185,-127
34580,5474,0,2023-03-01T18:52:56.603125,1766129,585,1189,1350,-1246,-524,-479,41,185,-127
34581,5475,0,2023-03-01T18:52:56.608193,1766134,585,1190,1357,-1240,-512,-477,47,187,-129
34582,5476,0,2023-03-01T18:52:56.614785,1766141,585,1190,1357,-1240,-512,-477,47,187,-129
34583,5477,0,2023-03-01T18:52:56.619405,1766146,585,1190,1357,-1240,-512,-477,47,187,-129
34584,5478,0,2023-03-01T18:52:56.624647,1766151,585,1190,1357,-1240,-512,-477,47,187,-129
34585,5479,0,2023-03-01T18:52:56.630673,1766157,584,1186,1355,-1242,-519,-487,47,187,-129
34586,5480,0,2023-03-01T18:52:56.636073,1766162,584,1186,1355,-1242,-519,-487,47,187,-129
34587,5481,0,2023-03-01T18:52:56.641874,1766168,584,1186,1355,-1242,-519,-487,47,187,-129
34588,5482,0,2023-03-01T18:52:56.647204,1766172,584,1186,1355,-1242,-519,-487,47,187,-129
34589,5483,0,2023-03-01T18:52:56.654531,1766180,587,1188,1347,-1248,-512,-491,47,187,-129
34590,5484,0,2023-03-01T18:52:56.659767,1766185,587,1188,1347,-1248,-512,-491,47,187,-129
34591,5485,0,2023-03-01T18:52:56.665020,1766191,587,1188,1347,-1248,-512,-491,47,187,-129
34592,5486,0,2023-03-01T18:52:56.669825,1766196,580,1186,1358,-1254,-508,-482,47,187,-129
34593,5487,0,2023-03-01T18:52:56.675468,1766202,580,1186,1358,-1254,-508,-482,47,187,-129
34594,5488,0,2023-03-01T18:52:56.680337,1766207,580,1186,1358,-1254,-508,-482,47,187,-129
34595,5489,0,2023-03-01T18:52:56.685296,1766211,580,1186,1358,-1254,-508,-482,47,187,-129
34596,5490,0,2023-03-01T18:52:56.692009,1766218,584,1184,1357,-1241,-516,-484,47,187,-129
34597,5491,0,2023-03-01T18:52:56.697655,1766223,584,1184,1357,-1241,-516,-484,47,187,-129
34598,5492,0,2023-03-01T18:52:56.702690,1766228,584,1184,1357,-1241,-516,-484,47,187,-129
34599,5493,0,2023-03-01T18:52:56.707520,1766234,580,1185,1359,-1251,-509,-487,47,187,-129
34600,5494,0,2023-03-01T18:52:56.713895,1766240,580,1185,1359,-1251,-509,-487,47,187,-129
34601,5495,0,2023-03-01T18:52:56.718554,1766245,580,1185,1359,-1251,-509,-487,47,187,-129
34602,5496,0,2023-03-01T18:52:56.723417,1766249,580,1185,1359,-1251,-509,-487,47,187,-129
34603,5497,0,2023-03-01T18:52:56.727970,1766254,585,1189,1351,-1252,-516,-496,52,186,-120
34604,5498,0,2023-03-01T18:52:56.734441,1766260,585,1189,1351,-1252,-516,-496,52,186,-120
34605,5499,0,2023-03-01T18:52:56.739141,1766265,585,1189,1351,-1252,-516,-496,52,186,-120
34606,5500,0,2023-03-01T18:52:56.743857,1766270,585,1189,1351,-1252,-516,-496,52,186,-120
34607,5501,0,2023-03-01T18:52:56.748870,1766275,578,1177,1365,-1257,-505,-485,52,186,-120
34608,5502,0,2023-03-01T18:52:56.754433,1766281,578,1177,1365,-1257,-505,-485,52,186,-120
34609,5503,0,2023-03-01T18:52:56.760988,1766287,578,1177,1365,-1257,-505,-485,52,186,-120
34610,5504,0,2023-03-01T18:52:56.765850,1766292,578,1177,1365,-1257,-505,-485,52,186,-120
34611,5505,0,2023-03-01T18:52:56.772565,1766298,580,1183,1351,-1245,-512,-482,52,186,-120
34612,5506,0,2023-03-01T18:52:56.778148,1766304,580,1183,1351,-1245,-512,-482,52,186,-120
34613,5507,0,2023-03-01T18:52:56.782913,1766309,580,1183,1351,-1245,-512,-482,52,186,-120
34614,5508,0,2023-03-01T18:52:56.787870,1766315,579,1183,1359,-1247,-514,-479,52,186,-120
34615,5509,0,2023-03-01T18:52:56.794731,1766321,579,1183,1359,-1247,-514,-479,52,186,-120
34616,5510,0,2023-03-01T18:52:56.800325,1766326,579,1183,1359,-1247,-514,-479,52,186,-120
34617,5511,0,2023-03-01T18:52:56.805566,1766332,579,1183,1359,-1247,-514,-479,52,186,-120
34618,5512,0,2023-03-01T18:52:56.812011,1766338,575,1183,1360,-1255,-503,-481,52,186,-120
34619,5513,0,2023-03-01T18:52:56.817659,1766344,575,1183,1360,-1255,-503,-481,52,186,-120
34620,5514,0,2023-03-01T18:52:56.822337,1766348,575,1183,1360,-1255,-503,-481,52,186,-120
34621,5515,0,2023-03-01T18:52:56.827226,1766353,575,1183,1360,-1255,-503,-481,52,186,-120
34622,5516,0,2023-03-01T18:52:56.832522,1766359,582,1181,1356,-1252,-515,-486,52,186,-120
34623,5517,0,2023-03-01T18:52:56.838328,1766364,582,1181,1356,-1252,-515,-486,52,186,-120
34624,5518,0,2023-03-01T18:52:56.843561,1766370,582,1181,1356,-1252,-515,-486,52,186,-120
34625,5519,0,2023-03-01T18:52:56.848889,1766375,575,1172,1362,-1250,-511,-474,58,196,-122
34626,5520,0,2023-03-01T18:52:56.855776,1766381,575,1172,1362,-1250,-511,-474,58,196,-122
34627,5521,0,2023-03-01T18:52:56.861157,1766387,575,1172,1362,-1250,-511,-474,58,196,-122
34628,5522,0,2023-03-01T18:52:56.867976,1766392,575,1172,1362,-1250,-511,-474,58,196,-122
34629,5523,0,2023-03-01T18:52:56.874177,1766400,577,1179,1364,-1247,-514,-487,58,196,-122
34630,5524,0,2023-03-01T18:52:56.881087,1766407,577,1179,1364,-1247,-514,-487,58,196,-122
34631,5525,0,2023-03-01T18:52:56.887000,1766413,577,1179,1364,-1247,-514,-487,58,196,-122
34632,5526,0,2023-03-01T18:52:56.893360,1766419,576,1175,1356,-1243,-513,-486,58,196,-122
34633,5527,0,2023-03-01T18:52:56.899060,1766425,576,1175,1356,-1243,-513,-486,58,196,-122
34634,5528,0,2023-03-01T18:52:56.904319,1766430,576,1175,1356,-1243,-513,-486,58,196,-122
34635,5529,0,2023-03-01T18:52:56.910787,1766436,576,1176,1369,-1241,-498,-480,58,196,-122
34636,5530,0,2023-03-01T18:52:56.916968,1766443,576,1176,1369,-1241,-498,-480,58,196,-122
34637,5531,0,2023-03-01T18:52:56.922290,1766449,576,1176,1369,-1241,-498,-480,58,196,-122
34638,5532,0,2023-03-01T18:52:56.926953,1766454,576,1176,1369,-1241,-498,-480,58,196,-122
34639,5533,0,2023-03-01T18:52:56.932715,1766459,574,1176,1366,-1239,-501,-473,58,196,-122
34640,5534,0,2023-03-01T18:52:56.938591,1766465,574,1176,1366,-1239,-501,-473,58,196,-122
34641,5535,0,2023-03-01T18:52:56.943438,1766469,574,1176,1366,-1239,-501,-473,58,196,-122
34642,5536,0,2023-03-01T18:52:56.948538,1766474,572,1177,1365,-1252,-496,-481,58,196,-122
34643,5537,0,2023-03-01T18:52:56.954868,1766481,572,1177,1365,-1252,-496,-481,58,196,-122
34644,5538,0,2023-03-01T18:52:56.959627,1766486,572,1177,1365,-1252,-496,-481,58,196,-122
34645,5539,0,2023-03-01T18:52:56.965064,1766491,572,1177,1365,-1252,-496,-481,58,196,-122
34646,5540,0,2023-03-01T18:52:56.970649,1766497,573,1174,1371,-1254,-498,-477,58,196,-122
34647,5541,0,2023-03-01T18:52:56.976400,1766502,573,1174,1371,-1254,-498,-477,58,196,-122
34648,5542,0,2023-03-01T18:52:56.981661,1766508,573,1174,1371,-1254,-498,-477,58,196,-122
34649,5543,0,2023-03-01T18:52:56.986624,1766513,573,1174,1371,-1254,-498,-477,58,196,-122
34650,5544,0,2023-03-01T18:52:56.991833,1766517,574,1173,1369,-1261,-502,-481,52,186,-128
34651,5545,0,2023-03-01T18:52:56.997829,1766524,574,1173,1369,-1261,-502,-481,52,186,-128
34652,5546,0,2023-03-01T18:52:57.002841,1766529,574,1173,1369,-1261,-502,-481,52,186,-128
34653,5547,0,2023-03-01T18:52:57.007918,1766534,571,1173,1371,-1263,-503,-480,52,186,-128
34654,5548,0,2023-03-01T18:52:57.014946,1766541,571,1173,1371,-1263,-503,-480,52,186,-128
34655,5549,0,2023-03-01T18:52:57.020264,1766546,571,1173,1371,-1263,-503,-480,52,186,-128
34656,5550,0,2023-03-01T18:52:57.024657,1766551,571,1173,1371,-1263,-503,-480,52,186,-128
34657,5551,0,2023-03-01T18:52:57.031201,1766557,571,1173,1371,-1263,-503,-480,52,186,-128
34658,5552,0,2023-03-01T18:52:57.036162,1766562,571,1173,1371,-1263,-503,-480,52,186,-128
34659,5553,0,2023-03-01T18:52:57.041522,1766567,571,1173,1371,-1263,-503,-480,52,186,-128
34660,5554,0,2023-03-01T18:52:57.046566,1766573,571,1173,1371,-1263,-503,-480,52,186,-128
34661,5555,0,2023-03-01T18:52:57.052358,1766579,567,1168,1370,-1255,-505,-479,52,186,-128
34662,5556,0,2023-03-01T18:52:57.058338,1766585,567,1168,1370,-1255,-505,-479,52,186,-128
34663,5557,0,2023-03-01T18:52:57.064014,1766590,567,1168,1370,-1255,-505,-479,52,186,-128
34664,5558,0,2023-03-01T18:52:57.070163,1766596,570,1169,1363,-1253,-505,-483,52,186,-128
34665,5559,0,2023-03-01T18:52:57.075849,1766602,570,1169,1363,-1253,-505,-483,52,186,-128
34666,5560,0,2023-03-01T18:52:57.081110,1766607,570,1169,1363,-1253,-505,-483,52,186,-128
34667,5561,0,2023-03-01T18:52:57.086005,1766612,570,1169,1363,-1253,-505,-483,52,186,-128
34668,5562,0,2023-03-01T18:52:57.092103,1766619,568,1165,1364,-1258,-499,-475,52,186,-128
34669,5563,0,2023-03-01T18:52:57.097575,1766624,568,1165,1364,-1258,-499,-475,52,186,-128
34670,5564,0,2023-03-01T18:52:57.102656,1766629,568,1165,1364,-1258,-499,-475,52,186,-128
34671,5565,0,2023-03-01T18:52:57.108048,1766634,568,1167,1370,-1261,-494,-486,51,179,-131
34672,5566,0,2023-03-01T18:52:57.114419,1766640,568,1167,1370,-1261,-494,-486,51,179,-131
34673,5567,0,2023-03-01T18:52:57.119392,1766645,568,1167,1370,-1261,-494,-486,51,179,-131
34674,5568,0,2023-03-01T18:52:57.124363,1766650,568,1167,1370,-1261,-494,-486,51,179,-131
34675,5569,0,2023-03-01T18:52:57.129653,1766656,568,1167,1371,-1252,-507,-479,51,179,-131
34676,5570,0,2023-03-01T18:52:57.134974,1766661,568,1167,1371,-1252,-507,-479,51,179,-131
34677,5571,0,2023-03-01T18:52:57.139666,1766666,568,1167,1371,-1252,-507,-479,51,179,-131
34678,5572,0,2023-03-01T18:52:57.144489,1766671,568,1167,1371,-1252,-507,-479,51,179,-131
34679,5573,0,2023-03-01T18:52:57.149155,1766675,567,1164,1371,-1254,-495,-474,51,179,-131
34680,5574,0,2023-03-01T18:52:57.154622,1766681,567,1164,1371,-1254,-495,-474,51,179,-131
34681,5575,0,2023-03-01T18:52:57.159523,1766685,567,1164,1371,-1254,-495,-474,51,179,-131
34682,5576,0,2023-03-01T18:52:57.164425,1766690,567,1164,1371,-1254,-495,-474,51,179,-131
34683,5577,0,2023-03-01T18:52:57.169427,1766695,567,1164,1366,-1253,-505,-477,51,179,-131
34684,5578,0,2023-03-01T18:52:57.175293,1766702,567,1164,1366,-1253,-505,-477,51,179,-131
34685,5579,0,2023-03-01T18:52:57.180184,1766707,567,1164,1366,-1253,-505,-477,51,179,-131
34686,5580,0,2023-03-01T18:52:57.184890,1766711,567,1164,1366,-1253,-505,-477,51,179,-131
34687,5581,0,2023-03-01T18:52:57.190493,1766717,564,1166,1369,-1245,-502,-470,51,179,-131
34688,5582,0,2023-03-01T18:52:57.194952,1766721,564,1166,1369,-1245,-502,-470,51,179,-131
34689,5583,0,2023-03-01T18:52:57.199833,1766726,564,1166,1369,-1245,-502,-470,51,179,-131
34690,5584,0,2023-03-01T18:52:57.204637,1766731,564,1166,1369,-1245,-502,-470,51,179,-131
34691,5585,0,2023-03-01T18:52:57.209393,1766735,564,1158,1377,-1244,-503,-473,51,179,-131
34692,5586,0,2023-03-01T18:52:57.214702,1766742,564,1158,1377,-1244,-503,-473,51,179,-131
34693,5587,0,2023-03-01T18:52:57.220932,1766747,564,1158,1377,-1244,-503,-473,51,179,-131
34694,5588,0,2023-03-01T18:52:57.226166,1766753,564,1158,1377,-1244,-503,-473,51,179,-131
34695,5589,0,2023-03-01T18:52:57.232193,1766759,568,1165,1372,-1244,-513,-474,51,179,-131
34696,5590,0,2023-03-01T18:52:57.237650,1766764,568,1165,1372,-1244,-513,-474,51,179,-131
34697,5591,0,2023-03-01T18:52:57.242623,1766769,568,1165,1372,-1244,-513,-474,51,179,-131
34698,5592,0,2023-03-01T18:52:57.247189,1766773,568,1165,1372,-1244,-513,-474,51,179,-131
34699,5593,0,2023-03-01T18:52:57.252693,1766778,559,1157,1376,-1245,-506,-462,56,186,-128
34700,5594,0,2023-03-01T18:52:57.257893,1766785,559,1157,1376,-1245,-506,-462,56,186,-128
34701,5595,0,2023-03-01T18:52:57.262750,1766789,559,1157,1376,-1245,-506,-462,56,186,-128
34702,5596,0,2023-03-01T18:52:57.267602,1766794,555,1155,1381,-1251,-498,-478,56,186,-128
34703,5597,0,2023-03-01T18:52:57.273342,1766800,555,1155,1381,-1251,-498,-478,56,186,-128
34704,5598,0,2023-03-01T18:52:57.278296,1766805,555,1155,1381,-1251,-498,-478,56,186,-128
34705,5599,0,2023-03-01T18:52:57.283363,1766809,555,1155,1381,-1251,-498,-478,56,186,-128
34706,5600,0,2023-03-01T18:52:57.288197,1766814,568,1166,1363,-1238,-517,-490,56,186,-128
34707,5601,0,2023-03-01T18:52:57.293553,1766819,568,1166,1363,-1238,-517,-490,56,186,-128
34708,5602,0,2023-03-01T18:52:57.298358,1766824,568,1166,1363,-1238,-517,-490,56,186,-128
34709,5603,0,2023-03-01T18:52:57.303429,1766830,568,1166,1363,-1238,-517,-490,56,186,-128
34710,5604,0,2023-03-01T18:52:57.308482,1766835,557,1149,1379,-1242,-502,-465,56,186,-128
34711,5605,0,2023-03-01T18:52:57.314882,1766841,557,1149,1379,-1242,-502,-465,56,186,-128
34712,5606,0,2023-03-01T18:52:57.319874,1766846,557,1149,1379,-1242,-502,-465,56,186,-128
34713,5607,0,2023-03-01T18:52:57.324690,1766851,557,1149,1379,-1242,-502,-465,56,186,-128
34714,5608,0,2023-03-01T18:52:57.331075,1766857,561,1161,1380,-1240,-504,-481,56,186,-128
34715,5609,0,2023-03-01T18:52:57.336867,1766863,561,1161,1380,-1240,-504,-481,56,186,-128
34716,5610,0,2023-03-01T18:52:57.341695,1766868,561,1161,1380,-1240,-504,-481,56,186,-128
34717,5611,0,2023-03-01T18:52:57.346433,1766873,561,1161,1380,-1240,-504,-481,56,186,-128
34718,5612,0,2023-03-01T18:52:57.351192,1766878,562,1157,1363,-1236,-515,-465,56,186,-128
34719,5613,0,2023-03-01T18:52:57.357192,1766883,562,1157,1363,-1236,-515,-465,56,186,-128
34720,5614,0,2023-03-01T18:52:57.362244,1766889,562,1157,1363,-1236,-515,-465,56,186,-128
34721,5615,0,2023-03-01T18:52:57.367314,1766893,562,1157,1363,-1236,-515,-465,56,186,-128
34722,5616,0,2023-03-01T18:52:57.373426,1766899,560,1155,1381,-1240,-500,-468,48,184,-126
34723,5617,0,2023-03-01T18:52:57.379100,1766905,560,1155,1381,-1240,-500,-468,48,184,-126
34724,5618,0,2023-03-01T18:52:57.383819,1766910,560,1155,1381,-1240,-500,-468,48,184,-126
34725,5619,0,2023-03-01T18:52:57.388871,1766915,561,1160,1381,-1236,-514,-471,48,184,-126
34726,5620,0,2023-03-01T18:52:57.394214,1766921,561,1160,1381,-1236,-514,-471,48,184,-126
34727,5621,0,2023-03-01T18:52:57.400162,1766926,561,1160,1381,-1236,-514,-471,48,184,-126
34728,5622,0,2023-03-01T18:52:57.404949,1766931,561,1160,1381,-1236,-514,-471,48,184,-126
34729,5623,0,2023-03-01T18:52:57.409416,1766936,552,1153,1382,-1253,-508,-482,48,184,-126
34730,5624,0,2023-03-01T18:52:57.415111,1766941,552,1153,1382,-1253,-508,-482,48,184,-126
34731,5625,0,2023-03-01T18:52:57.420552,1766946,552,1153,1382,-1253,-508,-482,48,184,-126
34732,5626,0,2023-03-01T18:52:57.425508,1766951,552,1153,1382,-1253,-508,-482,48,184,-126
34733,5627,0,2023-03-01T18:52:57.430964,1766958,560,1156,1382,-1239,-499,-469,48,184,-126
34734,5628,0,2023-03-01T18:52:57.436234,1766963,560,1156,1382,-1239,-499,-469,48,184,-126
34735,5629,0,2023-03-01T18:52:57.441718,1766968,560,1156,1382,-1239,-499,-469,48,184,-126
34736,5630,0,2023-03-01T18:52:57.446742,1766973,560,1156,1382,-1239,-499,-469,48,184,-126
34737,5631,0,2023-03-01T18:52:57.453215,1766979,562,1155,1380,-1238,-508,-470,48,184,-126
34738,5632,0,2023-03-01T18:52:57.458750,1766985,562,1155,1380,-1238,-508,-470,48,184,-126
34739,5633,0,2023-03-01T18:52:57.463673,1766989,562,1155,1380,-1238,-508,-470,48,184,-126
34740,5634,0,2023-03-01T18:52:57.469416,1766995,556,1149,1377,-1245,-508,-482,48,184,-126
34741,5635,0,2023-03-01T18:52:57.476623,1767003,556,1149,1377,-1245,-508,-482,48,184,-126
34742,5636,0,2023-03-01T18:52:57.481310,1767008,556,1149,1377,-1245,-508,-482,48,184,-126
34743,5637,0,2023-03-01T18:52:57.486101,1767013,556,1149,1377,-1245,-508,-482,48,184,-126
34744,5638,0,2023-03-01T18:52:57.491252,1767018,558,1156,1383,-1243,-500,-474,48,184,-126
34745,5639,0,2023-03-01T18:52:57.496350,1767023,558,1156,1383,-1243,-500,-474,48,184,-126
34746,5640,0,2023-03-01T18:52:57.501361,1767027,558,1156,1383,-1243,-500,-474,48,184,-126
34747,5641,0,2023-03-01T18:52:57.506423,1767032,558,1156,1383,-1243,-500,-474,48,184,-126
34748,5642,0,2023-03-01T18:52:57.512181,1767038,558,1156,1383,-1243,-500,-474,48,184,-126
34749,5643,0,2023-03-01T18:52:57.517466,1767044,558,1156,1383,-1243,-500,-474,48,184,-126
34750,5644,0,2023-03-01T18:52:57.554105,1767073,552,1149,1388,-1235,-500,-462,48,184,-126
34751,5645,0,2023-03-01T18:52:57.596923,1767093,555,1154,1382,-1242,-502,-478,48,184,-126
34752,5646,0,2023-03-01T18:52:57.604135,1767130,554,1147,1380,-1244,-504,-477,48,184,-126
34753,5647,0,2023-03-01T18:52:57.610693,1767136,555,1146,1384,-1244,-506,-471,48,184,-126
34754,5648,0,2023-03-01T18:52:57.618742,1767143,555,1146,1384,-1244,-506,-471,48,184,-126
34755,5649,0,2023-03-01T18:52:57.625167,1767150,555,1146,1384,-1244,-506,-471,48,184,-126
34756,5650,0,2023-03-01T18:52:57.632684,1767156,552,1145,1380,-1244,-499,-472,57,191,-121
34757,5651,0,2023-03-01T18:52:57.640441,1767165,552,1145,1380,-1244,-499,-472,57,191,-121
34758,5652,0,2023-03-01T18:52:57.647665,1767172,552,1145,1380,-1244,-499,-472,57,191,-121
34759,5653,0,2023-03-01T18:52:57.655774,1767179,551,1144,1388,-1244,-501,-486,57,191,-121
34760,5654,0,2023-03-01T18:52:57.666240,1767191,551,1144,1388,-1244,-501,-486,57,191,-121
34761,5655,0,2023-03-01T18:52:57.672332,1767197,549,1144,1389,-1239,-508,-484,57,191,-121
34762,5656,0,2023-03-01T18:52:57.679175,1767204,549,1144,1389,-1239,-508,-484,57,191,-121
34763,5657,0,2023-03-01T18:52:57.685896,1767211,549,1144,1389,-1239,-508,-484,57,191,-121
34764,5658,0,2023-03-01T18:52:57.692782,1767219,547,1141,1389,-1232,-511,-475,57,191,-121
34765,5659,0,2023-03-01T18:52:57.700728,1767226,547,1141,1389,-1232,-511,-475,57,191,-121
34766,5660,0,2023-03-01T18:52:57.707476,1767232,547,1141,1389,-1232,-511,-475,57,191,-121
34767,5661,0,2023-03-01T18:52:57.713926,1767240,548,1146,1389,-1245,-509,-486,57,191,-121
34768,5662,0,2023-03-01T18:52:57.719375,1767245,548,1146,1389,-1245,-509,-486,57,191,-121
34769,5663,0,2023-03-01T18:52:57.724868,1767250,548,1146,1389,-1245,-509,-486,57,191,-121
34770,5664,0,2023-03-01T18:52:57.730821,1767257,549,1140,1381,-1234,-507,-465,57,191,-121
34771,5665,0,2023-03-01T18:52:57.736659,1767263,549,1140,1381,-1234,-507,-465,57,191,-121
34772,5666,0,2023-03-01T18:52:57.743355,1767269,549,1140,1381,-1234,-507,-465,57,191,-121
34773,5667,0,2023-03-01T18:52:57.748930,1767275,545,1140,1382,-1234,-514,-469,47,191,-121
34774,5668,0,2023-03-01T18:52:57.757058,1767282,545,1140,1382,-1234,-514,-469,47,187,-127
34775,5669,0,2023-03-01T18:52:57.763631,1767288,545,1140,1382,-1234,-514,-469,47,187,-127
34776,5670,0,2023-03-01T18:52:57.769804,1767296,547,1136,1391,-1227,-512,-472,47,187,-127
34777,5671,0,2023-03-01T18:52:57.776445,1767302,547,1136,1391,-1227,-512,-472,47,187,-127
34778,5672,0,2023-03-01T18:52:57.782064,1767308,547,1136,1391,-1227,-512,-472,47,187,-127
34779,5673,0,2023-03-01T18:52:57.787542,1767313,547,1136,1391,-1227,-512,-472,47,187,-127
34780,5674,0,2023-03-01T18:52:57.793327,1767319,547,1139,1391,-1233,-510,-475,47,187,-127
34781,5675,0,2023-03-01T18:52:57.799334,1767325,547,1139,1391,-1233,-510,-475,47,187,-127
34782,5676,0,2023-03-01T18:52:57.804868,1767330,547,1139,1391,-1233,-510,-475,47,187,-127
34783,5677,0,2023-03-01T18:52:57.810576,1767336,548,1137,1384,-1227,-515,-462,47,187,-127
34784,5678,0,2023-03-01T18:52:57.816154,1767342,548,1137,1384,-1227,-515,-462,47,187,-127
34785,5679,0,2023-03-01T18:52:57.821170,1767348,548,1137,1384,-1227,-515,-462,47,187,-127
34786,5680,0,2023-03-01T18:52:57.826731,1767353,548,1137,1384,-1227,-515,-462,47,187,-127
34787,5681,0,2023-03-01T18:52:57.831910,1767358,542,1134,1390,-1229,-510,-471,47,187,-127
34788,5682,0,2023-03-01T18:52:57.837398,1767363,542,1134,1390,-1229,-510,-471,47,187,-127
34789,5683,0,2023-03-01T18:52:57.842571,1767369,542,1134,1390,-1229,-510,-471,47,187,-127
34790,5684,0,2023-03-01T18:52:57.847566,1767373,542,1134,1390,-1229,-510,-471,47,187,-127
34791,5685,0,2023-03-01T18:52:57.852536,1767378,543,1136,1391,-1229,-509,-481,47,187,-127
34792,5686,0,2023-03-01T18:52:57.857247,1767384,543,1136,1391,-1229,-509,-481,47,187,-127
34793,5687,0,2023-03-01T18:52:57.862538,1767389,543,1136,1391,-1229,-509,-481,47,187,-127
34794,5688,0,2023-03-01T18:52:57.867439,1767394,543,1136,1391,-1229,-509,-481,47,187,-127
34795,5689,0,2023-03-01T18:52:57.872754,1767399,541,1134,1386,-1233,-524,-483,47,187,-127
34796,5690,0,2023-03-01T18:52:57.878612,1767404,541,1134,1386,-1233,-524,-483,47,187,-127
34797,5691,0,2023-03-01T18:52:57.884558,1767410,541,1134,1386,-1233,-524,-483,47,187,-127
34798,5692,0,2023-03-01T18:52:57.889221,1767415,540,1129,1397,-1229,-514,-475,58,188,-120
34799,5693,0,2023-03-01T18:52:57.894522,1767420,540,1129,1397,-1229,-514,-475,58,188,-120
34800,5694,0,2023-03-01T18:52:57.899506,1767426,540,1129,1397,-1229,-514,-475,58,188,-120
34801,5695,0,2023-03-01T18:52:57.904908,1767431,540,1129,1397,-1229,-514,-475,58,188,-120
34802,5696,0,2023-03-01T18:52:57.911365,1767437,544,1136,1400,-1240,-507,-476,58,188,-120
34803,5697,0,2023-03-01T18:52:57.916487,1767442,544,1136,1400,-1240,-507,-476,58,188,-120
34804,5698,0,2023-03-01T18:52:57.921667,1767448,544,1136,1400,-1240,-507,-476,58,188,-120
34805,5699,0,2023-03-01T18:52:57.927527,1767453,544,1136,1400,-1240,-507,-476,58,188,-120
34806,5700,0,2023-03-01T18:52:57.932576,1767458,540,1128,1396,-1233,-514,-474,58,188,-120
34807,5701,0,2023-03-01T18:52:57.937403,1767463,540,1128,1396,-1233,-514,-474,58,188,-120
34808,5702,0,2023-03-01T18:52:57.942315,1767469,540,1128,1396,-1233,-514,-474,58,188,-120
34809,5703,0,2023-03-01T18:52:57.947927,1767474,540,1128,1396,-1233,-514,-474,58,188,-120
34810,5704,0,2023-03-01T18:52:57.954290,1767480,543,1137,1395,-1225,-521,-481,58,188,-120
34811,5705,0,2023-03-01T18:52:57.962355,1767488,543,1137,1395,-1225,-521,-481,58,188,-120
34812,5706,0,2023-03-01T18:52:57.967170,1767493,543,1137,1395,-1225,-521,-481,58,188,-120
34813,5707,0,2023-03-01T18:52:57.972467,1767498,537,1135,1391,-1217,-523,-480,58,188,-120
34814,5708,0,2023-03-01T18:52:57.978000,1767503,537,1135,1391,-1217,-523,-480,58,188,-120
34815,5709,0,2023-03-01T18:52:57.984402,1767510,537,1135,1391,-1217,-523,-480,58,188,-120
34816,5710,0,2023-03-01T18:52:57.990129,1767516,535,1133,1396,-1217,-509,-475,58,188,-120
34817,5711,0,2023-03-01T18:52:57.995044,1767521,535,1133,1396,-1217,-509,-475,58,188,-120
34818,5712,0,2023-03-01T18:52:58.000058,1767526,535,1133,1396,-1217,-509,-475,58,188,-120
34819,5713,0,2023-03-01T18:52:58.005121,1767531,535,1133,1396,-1217,-509,-475,58,188,-120
34820,5714,0,2023-03-01T18:52:58.010850,1767537,537,1129,1390,-1227,-522,-476,53,187,-117
34821,5715,0,2023-03-01T18:52:58.016155,1767542,537,1129,1390,-1227,-522,-476,53,187,-117
34822,5716,0,2023-03-01T18:52:58.021154,1767547,537,1129,1390,-1227,-522,-476,53,187,-117
34823,5717,0,2023-03-01T18:52:58.026267,1767553,537,1129,1390,-1227,-522,-476,53,187,-117
34824,5718,0,2023-03-01T18:52:58.032635,1767559,533,1132,1404,-1220,-511,-473,53,187,-117
34825,5719,0,2023-03-01T18:52:58.038587,1767565,533,1132,1404,-1220,-511,-473,53,187,-117
34826,5720,0,2023-03-01T18:52:58.043223,1767570,533,1132,1404,-1220,-511,-473,53,187,-117
34827,5721,0,2023-03-01T18:52:58.047816,1767574,533,1132,1404,-1220,-511,-473,53,187,-117
34828,5722,0,2023-03-01T18:52:58.052893,1767579,533,1125,1399,-1223,-513,-475,53,187,-117
34829,5723,0,2023-03-01T18:52:58.058632,1767584,533,1125,1399,-1223,-513,-475,53,187,-117
34830,5724,0,2023-03-01T18:52:58.064018,1767590,533,1125,1399,-1223,-513,-475,53,187,-117
34831,5725,0,2023-03-01T18:52:58.068840,1767596,534,1127,1398,-1222,-514,-485,53,187,-117
34832,5726,0,2023-03-01T18:52:58.075074,1767602,534,1127,1398,-1222,-514,-485,53,187,-117
34833,5727,0,2023-03-01T18:52:58.079844,1767606,534,1127,1398,-1222,-514,-485,53,187,-117
34834,5728,0,2023-03-01T18:52:58.085003,1767611,534,1127,1398,-1222,-514,-485,53,187,-117
34835,5729,0,2023-03-01T18:52:58.091215,1767617,534,1126,1403,-1223,-506,-470,53,187,-117
34836,5730,0,2023-03-01T18:52:58.096465,1767623,534,1126,1403,-1223,-506,-470,53,187,-117
34837,5731,0,2023-03-01T18:52:58.101276,1767627,534,1126,1403,-1223,-506,-470,53,187,-117
34838,5732,0,2023-03-01T18:52:58.106463,1767632,534,1126,1403,-1223,-506,-470,53,187,-117
34839,5733,0,2023-03-01T18:52:58.111877,1767639,532,1126,1393,-1219,-505,-474,53,187,-117
34840,5734,0,2023-03-01T18:52:58.117916,1767644,532,1126,1393,-1219,-505,-474,53,187,-117
34841,5735,0,2023-03-01T18:52:58.123247,1767649,532,1126,1393,-1219,-505,-474,53,187,-117
34842,5736,0,2023-03-01T18:52:58.128322,1767654,532,1126,1393,-1219,-505,-474,53,187,-117
34843,5737,0,2023-03-01T18:52:58.133121,1767659,532,1124,1395,-1225,-508,-480,53,187,-117
34844,5738,0,2023-03-01T18:52:58.138725,1767665,532,1124,1395,-1225,-508,-480,53,187,-117
34845,5739,0,2023-03-01T18:52:58.143553,1767669,532,1124,1395,-1225,-508,-480,53,187,-117
34846,5740,0,2023-03-01T18:52:58.148476,1767674,532,1124,1395,-1225,-508,-480,53,187,-117
34847,5741,0,2023-03-01T18:52:58.154430,1767681,529,1123,1410,-1240,-504,-482,59,191,-125
34848,5742,0,2023-03-01T18:52:58.159780,1767686,529,1123,1410,-1240,-504,-482,59,191,-125
34849,5743,0,2023-03-01T18:52:58.164828,1767691,529,1123,1410,-1240,-504,-482,59,191,-125
34850,5744,0,2023-03-01T18:52:58.170326,1767696,528,1121,1402,-1236,-513,-477,59,191,-125
34851,5745,0,2023-03-01T18:52:58.177116,1767702,528,1121,1402,-1236,-513,-477,59,191,-125
34852,5746,0,2023-03-01T18:52:58.182879,1767709,528,1121,1402,-1236,-513,-477,59,191,-125
34853,5747,0,2023-03-01T18:52:58.187917,1767714,528,1121,1402,-1236,-513,-477,59,191,-125
34854,5748,0,2023-03-01T18:52:58.193896,1767719,528,1121,1402,-1236,-513,-477,59,191,-125
34855,5749,0,2023-03-01T18:52:58.199086,1767725,528,1121,1402,-1236,-513,-477,59,191,-125
34856,5750,0,2023-03-01T18:52:58.204038,1767731,528,1121,1402,-1236,-513,-477,59,191,-125
34857,5751,0,2023-03-01T18:52:58.208919,1767735,528,1121,1402,-1236,-513,-477,59,191,-125
34858,5752,0,2023-03-01T18:52:58.214920,1767741,528,1118,1399,-1236,-515,-477,59,191,-125
34859,5753,0,2023-03-01T18:52:58.221084,1767747,528,1118,1399,-1236,-515,-477,59,191,-125
34860,5754,0,2023-03-01T18:52:58.226095,1767752,528,1118,1399,-1236,-515,-477,59,191,-125
34861,5755,0,2023-03-01T18:52:58.231096,1767757,527,1120,1401,-1246,-514,-478,59,191,-125
34862,5756,0,2023-03-01T18:52:58.236878,1767763,527,1120,1401,-1246,-514,-478,59,191,-125
34863,5757,0,2023-03-01T18:52:58.242010,1767768,527,1120,1401,-1246,-514,-478,59,191,-125
34864,5758,0,2023-03-01T18:52:58.247341,1767774,527,1120,1401,-1246,-514,-478,59,191,-125
34865,5759,0,2023-03-01T18:52:58.254530,1767781,530,1122,1401,-1246,-506,-486,59,191,-125
34866,5760,0,2023-03-01T18:52:58.260246,1767786,530,1122,1401,-1246,-506,-486,59,191,-125
34867,5761,0,2023-03-01T18:52:58.264967,1767791,530,1122,1401,-1246,-506,-486,59,191,-125
34868,5762,0,2023-03-01T18:52:58.270922,1767797,526,1113,1411,-1234,-505,-479,55,187,-123
34869,5763,0,2023-03-01T18:52:58.276482,1767802,526,1113,1411,-1234,-505,-479,55,187,-123
34870,5764,0,2023-03-01T18:52:58.281434,1767808,526,1113,1411,-1234,-505,-479,55,187,-123
34871,5765,0,2023-03-01T18:52:58.287170,1767813,526,1113,1411,-1234,-505,-479,55,187,-123
34872,5766,0,2023-03-01T18:52:58.294293,1767821,527,1121,1401,-1231,-508,-483,55,187,-123
34873,5767,0,2023-03-01T18:52:58.300196,1767826,527,1121,1401,-1231,-508,-483,55,187,-123
34874,5768,0,2023-03-01T18:52:58.306492,1767832,527,1121,1401,-1231,-508,-483,55,187,-123
34875,5769,0,2023-03-01T18:52:58.312345,1767838,524,1115,1407,-1235,-514,-480,55,187,-123
34876,5770,0,2023-03-01T18:52:58.318412,1767844,524,1115,1407,-1235,-514,-480,55,187,-123
34877,5771,0,2023-03-01T18:52:58.323544,1767849,524,1115,1407,-1235,-514,-480,55,187,-123
34878,5772,0,2023-03-01T18:52:58.329036,1767855,524,1115,1407,-1235,-514,-480,55,187,-123
34879,5773,0,2023-03-01T18:52:58.334898,1767861,526,1119,1403,-1228,-511,-486,55,187,-123
34880,5774,0,2023-03-01T18:52:58.340467,1767867,526,1119,1403,-1228,-511,-486,55,187,-123
34881,5775,0,2023-03-01T18:52:58.345034,1767872,526,1119,1403,-1228,-511,-486,55,187,-123
34882,5776,0,2023-03-01T18:52:58.351148,1767877,524,1115,1404,-1225,-511,-479,55,187,-123
34883,5777,0,2023-03-01T18:52:58.356733,1767883,524,1115,1404,-1225,-511,-479,55,187,-123
34884,5778,0,2023-03-01T18:52:58.361977,1767888,524,1115,1404,-1225,-511,-479,55,187,-123
34885,5779,0,2023-03-01T18:52:58.366955,1767894,524,1115,1404,-1225,-511,-479,55,187,-123
34886,5780,0,2023-03-01T18:52:58.373011,1767900,524,1114,1408,-1230,-512,-488,55,187,-123
34887,5781,0,2023-03-01T18:52:58.378197,1767905,524,1114,1408,-1230,-512,-488,55,187,-123
34888,5782,0,2023-03-01T18:52:58.383282,1767909,524,1114,1408,-1230,-512,-488,55,187,-123
34889,5783,0,2023-03-01T18:52:58.388434,1767915,524,1114,1408,-1230,-512,-488,55,187,-123
34890,5784,0,2023-03-01T18:52:58.394393,1767921,526,1112,1409,-1229,-516,-484,60,186,-126
34891,5785,0,2023-03-01T18:52:58.401540,1767927,526,1112,1409,-1229,-516,-484,60,186,-126
34892,5786,0,2023-03-01T18:52:58.406621,1767932,526,1112,1409,-1229,-516,-484,60,186,-126
34893,5787,0,2023-03-01T18:52:58.411597,1767938,523,1110,1414,-1242,-510,-474,60,186,-126
34894,5788,0,2023-03-01T18:52:58.417605,1767944,523,1110,1414,-1242,-510,-474,60,186,-126
34895,5789,0,2023-03-01T18:52:58.422833,1767949,523,1110,1414,-1242,-510,-474,60,186,-126
34896,5790,0,2023-03-01T18:52:58.428167,1767954,523,1110,1414,-1242,-510,-474,60,186,-126
34897,5791,0,2023-03-01T18:52:58.434729,1767961,527,1112,1408,-1235,-504,-471,60,186,-126
34898,5792,0,2023-03-01T18:52:58.440401,1767966,527,1112,1408,-1235,-504,-471,60,186,-126
34899,5793,0,2023-03-01T18:52:58.445676,1767971,527,1112,1408,-1235,-504,-471,60,186,-126
34900,5794,0,2023-03-01T18:52:58.450872,1767977,521,1115,1410,-1233,-473,-431,60,186,-126
34901,5795,0,2023-03-01T18:52:58.456347,1767983,521,1115,1410,-1233,-473,-431,60,186,-126
34902,5796,0,2023-03-01T18:52:58.461228,1767988,521,1115,1410,-1233,-473,-431,60,186,-126
34903,5797,0,2023-03-01T18:52:58.466153,1767993,521,1115,1410,-1233,-473,-431,60,186,-126
34904,5798,0,2023-03-01T18:52:58.472625,1767999,520,1107,1414,-1225,-454,-385,60,186,-126
34905,5799,0,2023-03-01T18:52:58.478802,1768005,520,1107,1414,-1225,-454,-385,60,186,-126
34906,5800,0,2023-03-01T18:52:58.483903,1768010,520,1107,1414,-1225,-454,-385,60,186,-126
34907,5801,0,2023-03-01T18:52:58.488825,1768015,520,1107,1414,-1225,-454,-385,60,186,-126
34908,5802,0,2023-03-01T18:52:58.495008,1768022,519,1108,1412,-1219,-457,-373,60,186,-126
34909,5803,0,2023-03-01T18:52:58.500663,1768027,519,1108,1412,-1219,-457,-373,60,186,-126
34910,5804,0,2023-03-01T18:52:58.506065,1768033,519,1108,1412,-1219,-457,-373,60,186,-126
34911,5805,0,2023-03-01T18:52:58.512839,1768039,519,1108,1411,-1213,-458,-365,60,186,-126
34912,5806,0,2023-03-01T18:52:58.518351,1768045,519,1108,1411,-1213,-458,-365,60,186,-126
34913,5807,0,2023-03-01T18:52:58.522962,1768049,519,1108,1411,-1213,-458,-365,60,186,-126
34914,5808,0,2023-03-01T18:52:58.527943,1768054,519,1108,1411,-1213,-458,-365,60,186,-126
34915,5809,0,2023-03-01T18:52:58.534765,1768060,523,1112,1413,-1209,-460,-365,57,181,-119
34916,5810,0,2023-03-01T18:52:58.540784,1768067,523,1112,1413,-1209,-460,-365,57,181,-119
34917,5811,0,2023-03-01T18:52:58.545820,1768072,523,1112,1413,-1209,-460,-365,57,181,-119
34918,5812,0,2023-03-01T18:52:58.551942,1768078,528,1116,1407,-1136,-503,-342,57,181,-119
34919,5813,0,2023-03-01T18:52:58.557737,1768084,528,1116,1407,-1136,-503,-342,57,181,-119
34920,5814,0,2023-03-01T18:52:58.562773,1768089,528,1116,1407,-1136,-503,-342,57,181,-119
34921,5815,0,2023-03-01T18:52:58.568133,1768094,528,1116,1407,-1136,-503,-342,57,181,-119
34922,5816,0,2023-03-01T18:52:58.573242,1768099,521,1113,1411,-1065,-549,-324,57,181,-119
34923,5817,0,2023-03-01T18:52:58.578933,1768105,521,1113,1411,-1065,-549,-324,57,181,-119
34924,5818,0,2023-03-01T18:52:58.584066,1768111,521,1113,1411,-1065,-549,-324,57,181,-119
34925,5819,0,2023-03-01T18:52:58.589044,1768116,521,1113,1411,-1065,-549,-324,57,181,-119
34926,5820,0,2023-03-01T18:52:58.594061,1768120,515,1105,1413,-1060,-555,-330,57,181,-119
34927,5821,0,2023-03-01T18:52:58.599556,1768126,515,1105,1413,-1060,-555,-330,57,181,-119
34928,5822,0,2023-03-01T18:52:58.604237,1768131,515,1105,1413,-1060,-555,-330,57,181,-119
34929,5823,0,2023-03-01T18:52:58.610081,1768136,518,1108,1402,-1051,-566,-329,57,181,-119
34930,5824,0,2023-03-01T18:52:58.616189,1768142,518,1108,1402,-1051,-566,-329,57,181,-119
34931,5825,0,2023-03-01T18:52:58.621142,1768147,518,1108,1402,-1051,-566,-329,57,181,-119
34932,5826,0,2023-03-01T18:52:58.625914,1768153,518,1108,1402,-1051,-566,-329,57,181,-119
34933,5827,0,2023-03-01T18:52:58.630803,1768157,519,1109,1416,-1039,-565,-334,57,181,-119
34934,5828,0,2023-03-01T18:52:58.636234,1768163,519,1109,1416,-1039,-565,-334,57,181,-119
34935,5829,0,2023-03-01T18:52:58.641087,1768167,519,1109,1416,-1039,-565,-334,57,181,-119
34936,5830,0,2023-03-01T18:52:58.646002,1768172,519,1109,1416,-1039,-565,-334,57,181,-119
34937,5831,0,2023-03-01T18:52:58.652018,1768178,518,1107,1415,-1027,-574,-326,64,192,-122
34938,5832,0,2023-03-01T18:52:58.656438,1768183,518,1107,1415,-1027,-574,-326,64,192,-122
34939,5833,0,2023-03-01T18:52:58.661248,1768187,518,1107,1415,-1027,-574,-326,64,192,-122
34940,5834,0,2023-03-01T18:52:58.666087,1768193,518,1107,1415,-1027,-574,-326,64,192,-122
34941,5835,0,2023-03-01T18:52:58.673096,1768199,519,1109,1415,-1028,-575,-325,64,192,-122
34942,5836,0,2023-03-01T18:52:58.678964,1768206,519,1109,1415,-1028,-575,-325,64,192,-122
34943,5837,0,2023-03-01T18:52:58.684120,1768210,519,1109,1415,-1028,-575,-325,64,192,-122
34944,5838,0,2023-03-01T18:52:58.689216,1768215,519,1109,1415,-1028,-575,-325,64,192,-122
34945,5839,0,2023-03-01T18:52:58.694353,1768220,524,1109,1410,-1034,-568,-325,64,192,-122
34946,5840,0,2023-03-01T18:52:58.700855,1768226,524,1109,1410,-1034,-568,-325,64,192,-122
34947,5841,0,2023-03-01T18:52:58.706224,1768232,524,1109,1410,-1034,-568,-325,64,192,-122
34948,5842,0,2023-03-01T18:52:58.710901,1768238,521,1108,1412,-1049,-561,-326,64,192,-122
34949,5843,0,2023-03-01T18:52:58.716644,1768243,521,1108,1412,-1049,-561,-326,64,192,-122
34950,5844,0,2023-03-01T18:52:58.721838,1768248,521,1108,1412,-1049,-561,-326,64,192,-122
34951,5845,0,2023-03-01T18:52:58.727018,1768253,521,1108,1412,-1049,-561,-326,64,192,-122
34952,5846,0,2023-03-01T18:52:58.734609,1768261,516,1109,1414,-1047,-566,-327,64,192,-122
34953,5847,0,2023-03-01T18:52:58.740098,1768266,516,1109,1414,-1047,-566,-327,64,192,-122
34954,5848,0,2023-03-01T18:52:58.745103,1768271,516,1109,1414,-1047,-566,-327,64,192,-122
34955,5849,0,2023-03-01T18:52:58.750792,1768276,517,1105,1416,-1044,-564,-322,64,192,-122
34956,5850,0,2023-03-01T18:52:58.757544,1768284,517,1105,1416,-1044,-564,-322,64,192,-122
34957,5851,0,2023-03-01T18:52:58.762297,1768289,517,1105,1416,-1044,-564,-322,64,192,-122
34958,5852,0,2023-03-01T18:52:58.767294,1768294,517,1105,1416,-1044,-564,-322,64,192,-122
34959,5853,0,2023-03-01T18:52:58.772705,1768299,521,1109,1412,-1038,-567,-328,64,192,-122
34960,5854,0,2023-03-01T18:52:58.778166,1768304,521,1109,1412,-1038,-567,-328,64,192,-122
34961,5855,0,2023-03-01T18:52:58.783275,1768309,521,1109,1412,-1038,-567,-328,64,192,-122
34962,5856,0,2023-03-01T18:52:58.788541,1768315,521,1109,1412,-1038,-567,-328,64,192,-122
34963,5857,0,2023-03-01T18:52:58.793506,1768320,517,1108,1414,-1029,-572,-325,57,187,-115
34964,5858,0,2023-03-01T18:52:58.799759,1768326,517,1108,1414,-1029,-572,-325,57,187,-115
34965,5859,0,2023-03-01T18:52:58.805597,1768331,517,1108,1414,-1029,-572,-325,57,187,-115
34966,5860,0,2023-03-01T18:52:58.811797,1768338,520,1111,1413,-1032,-574,-326,57,187,-115
34967,5861,0,2023-03-01T18:52:58.817938,1768344,520,1111,1413,-1032,-574,-326,57,187,-115
34968,5862,0,2023-03-01T18:52:58.822940,1768349,520,1111,1413,-1032,-574,-326,57,187,-115
34969,5863,0,2023-03-01T18:52:58.827885,1768354,520,1111,1413,-1032,-574,-326,57,187,-115
34970,5864,0,2023-03-01T18:52:58.833080,1768358,519,1111,1412,-1034,-560,-324,57,187,-115
34971,5865,0,2023-03-01T18:52:58.839955,1768366,519,1111,1412,-1034,-560,-324,57,187,-115
34972,5866,0,2023-03-01T18:52:58.846310,1768373,519,1111,1412,-1034,-560,-324,57,187,-115
34973,5867,0,2023-03-01T18:52:58.852334,1768379,518,1108,1413,-1040,-561,-326,57,187,-115
34974,5868,0,2023-03-01T18:52:58.858153,1768384,518,1108,1413,-1040,-561,-326,57,187,-115
34975,5869,0,2023-03-01T18:52:58.863001,1768389,518,1108,1413,-1040,-561,-326,57,187,-115
34976,5870,0,2023-03-01T18:52:58.867997,1768394,518,1108,1413,-1040,-561,-326,57,187,-115
34977,5871,0,2023-03-01T18:52:58.874269,1768400,518,1109,1409,-1046,-573,-330,57,187,-115
34978,5872,0,2023-03-01T18:52:58.879968,1768407,518,1109,1409,-1046,-573,-330,57,187,-115
34979,5873,0,2023-03-01T18:52:58.885026,1768412,518,1109,1409,-1046,-573,-330,57,187,-115
34980,5874,0,2023-03-01T18:52:58.890395,1768417,519,1105,1417,-1033,-573,-332,57,187,-115
34981,5875,0,2023-03-01T18:52:58.896434,1768423,519,1105,1417,-1033,-573,-332,57,187,-115
34982,5876,0,2023-03-01T18:52:58.901909,1768428,519,1105,1417,-1033,-573,-332,57,187,-115
34983,5877,0,2023-03-01T18:52:58.907146,1768433,519,1105,1417,-1033,-573,-332,57,187,-115
34984,5878,0,2023-03-01T18:52:58.911772,1768438,518,1106,1414,-1027,-571,-326,59,181,-113
34985,5879,0,2023-03-01T18:52:58.917276,1768443,518,1106,1414,-1027,-571,-326,59,181,-113
34986,5880,0,2023-03-01T18:52:58.922518,1768449,518,1106,1414,-1027,-571,-326,59,181,-113
34987,5881,0,2023-03-01T18:52:58.928404,1768455,518,1106,1414,-1027,-571,-326,59,181,-113
34988,5882,0,2023-03-01T18:52:58.933414,1768460,518,1105,1412,-1032,-575,-317,59,181,-113
34989,5883,0,2023-03-01T18:52:58.940362,1768466,518,1105,1412,-1032,-575,-317,59,181,-113
34990,5884,0,2023-03-01T18:52:58.945761,1768471,518,1105,1412,-1032,-575,-317,59,181,-113
34991,5885,0,2023-03-01T18:52:58.951166,1768477,519,1109,1411,-1031,-574,-318,59,181,-113
34992,5886,0,2023-03-01T18:52:58.958104,1768484,519,1109,1411,-1031,-574,-318,59,181,-113
34993,5887,0,2023-03-01T18:52:58.963022,1768489,519,1109,1411,-1031,-574,-318,59,181,-113
34994,5888,0,2023-03-01T18:52:58.967672,1768494,519,1109,1411,-1031,-574,-318,59,181,-113
34995,5889,0,2023-03-01T18:52:58.972715,1768499,517,1111,1417,-1039,-569,-326,59,181,-113
34996,5890,0,2023-03-01T18:52:58.978919,1768505,517,1111,1417,-1039,-569,-326,59,181,-113
34997,5891,0,2023-03-01T18:52:58.983735,1768510,517,1111,1417,-1039,-569,-326,59,181,-113
34998,5892,0,2023-03-01T18:52:58.988567,1768515,517,1111,1417,-1039,-569,-326,59,181,-113
34999,5893,0,2023-03-01T18:52:58.994644,1768521,516,1108,1412,-1040,-569,-326,59,181,-113
