,Unnamed: 0,imu,server_time,arduino_time,ax,ay,az,gx,gy,gz,mx,my,mz
9015,2335,0,2023-03-10T14:07:21.757896,6319935,1269,496,1322,-1044,-641,-267,125,149,-81
9016,2336,0,2023-03-10T14:07:21.762331,6319939,1269,496,1322,-1044,-641,-267,125,149,-81
9017,2337,0,2023-03-10T14:07:21.766890,6319943,1258,490,1326,-1011,-640,-247,125,149,-81
9018,2338,0,2023-03-10T14:07:21.772549,6319949,1258,490,1326,-1011,-640,-247,125,149,-81
9019,2339,0,2023-03-10T14:07:21.777162,6319953,1258,490,1326,-1011,-640,-247,125,149,-81
9020,2340,0,2023-03-10T14:07:21.781394,6319959,1258,490,1326,-1011,-640,-247,125,149,-81
9021,2341,0,2023-03-10T14:07:21.786373,6319963,1269,488,1329,-1038,-630,-285,125,149,-81
9022,2342,0,2023-03-10T14:07:21.791533,6319969,1269,488,1329,-1038,-630,-285,125,149,-81
9023,2343,0,2023-03-10T14:07:21.796002,6319973,1269,488,1329,-1038,-630,-285,125,149,-81
9024,2344,0,2023-03-10T14:07:21.800425,6319977,1269,488,1329,-1038,-630,-285,125,149,-81
9025,2345,0,2023-03-10T14:07:21.805205,6319982,1283,499,1323,-1007,-660,-267,125,149,-81
9026,2346,0,2023-03-10T14:07:21.810953,6319987,1283,499,1323,-1007,-660,-267,125,149,-81
9027,2347,0,2023-03-10T14:07:21.815448,6319992,1283,499,1323,-1007,-660,-267,125,149,-81
9028,2348,0,2023-03-10T14:07:21.819996,6319996,1283,499,1323,-1007,-660,-267,125,149,-81
9029,2349,0,2023-03-10T14:07:21.824283,6320002,1283,499,1323,-1007,-660,-267,125,149,-81
9030,2350,0,2023-03-10T14:07:21.829605,6320007,1258,493,1334,-1001,-609,-236,118,142,-70
9031,2351,0,2023-03-10T14:07:21.834718,6320012,1258,493,1334,-1001,-609,-236,118,142,-70
9032,2352,0,2023-03-10T14:07:21.839252,6320016,1258,493,1334,-1001,-609,-236,118,142,-70
9033,2353,0,2023-03-10T14:07:21.843592,6320020,1258,493,1334,-1001,-609,-236,118,142,-70
9034,2354,0,2023-03-10T14:07:21.848876,6320026,1274,506,1330,-1029,-661,-292,118,142,-70
9035,2355,0,2023-03-10T14:07:21.853731,6320030,1274,506,1330,-1029,-661,-292,118,142,-70
9036,2356,0,2023-03-10T14:07:21.858222,6320035,1274,506,1330,-1029,-661,-292,118,142,-70
9037,2357,0,2023-03-10T14:07:21.862733,6320039,1274,506,1330,-1029,-661,-292,118,142,-70
9038,2358,0,2023-03-10T14:07:21.867151,6320044,1280,495,1329,-1046,-638,-283,118,142,-70
9039,2359,0,2023-03-10T14:07:21.872411,6320050,1280,495,1329,-1046,-638,-283,118,142,-70
9040,2360,0,2023-03-10T14:07:21.876913,6320054,1280,495,1329,-1046,-638,-283,118,142,-70
9041,2361,0,2023-03-10T14:07:21.881321,6320058,1280,495,1329,-1046,-638,-283,118,142,-70
9042,2362,0,2023-03-10T14:07:21.885821,6320063,1252,484,1318,-1039,-622,-272,118,142,-70
9043,2363,0,2023-03-10T14:07:21.891631,6320068,1252,484,1318,-1039,-622,-272,118,142,-70
9044,2364,0,2023-03-10T14:07:21.896080,6320073,1252,484,1318,-1039,-622,-272,118,142,-70
9045,2365,0,2023-03-10T14:07:21.900610,6320077,1252,484,1318,-1039,-622,-272,118,142,-70
9046,2366,0,2023-03-10T14:07:21.905194,6320082,1277,493,1340,-1030,-651,-272,118,142,-70
9047,2367,0,2023-03-10T14:07:21.910349,6320088,1277,493,1340,-1030,-651,-272,118,142,-70
9048,2368,0,2023-03-10T14:07:21.915063,6320092,1277,493,1340,-1030,-651,-272,118,142,-70
9049,2369,0,2023-03-10T14:07:21.919619,6320097,1277,493,1340,-1030,-651,-272,118,142,-70
9050,2370,0,2023-03-10T14:07:21.924130,6320101,1277,493,1340,-1030,-651,-272,118,142,-70
9051,2371,0,2023-03-10T14:07:21.928495,6320105,1271,495,1331,-1003,-646,-254,118,142,-70
9052,2372,0,2023-03-10T14:07:21.933516,6320110,1271,495,1331,-1003,-646,-254,118,142,-70
9053,2373,0,2023-03-10T14:07:21.938052,6320115,1271,495,1331,-1003,-646,-254,118,142,-70
9054,2374,0,2023-03-10T14:07:21.942628,6320119,1271,495,1331,-1003,-646,-254,118,142,-70
9055,2375,0,2023-03-10T14:07:21.947193,6320124,1282,501,1315,-1026,-641,-286,122,156,-72
9056,2376,0,2023-03-10T14:07:21.952319,6320130,1282,501,1315,-1026,-641,-286,122,156,-72
9057,2377,0,2023-03-10T14:07:21.956860,6320134,1282,501,1315,-1026,-641,-286,122,156,-72
9058,2378,0,2023-03-10T14:07:21.961334,6320138,1282,501,1315,-1026,-641,-286,122,156,-72
9059,2379,0,2023-03-10T14:07:21.965780,6320143,1271,497,1326,-1014,-624,-240,122,156,-72
9060,2380,0,2023-03-10T14:07:21.971753,6320149,1271,497,1326,-1014,-624,-240,122,156,-72
9061,2381,0,2023-03-10T14:07:21.976295,6320153,1271,497,1326,-1014,-624,-240,122,156,-72
9062,2382,0,2023-03-10T14:07:21.980653,6320157,1271,497,1326,-1014,-624,-240,122,156,-72
9063,2383,0,2023-03-10T14:07:21.985132,6320162,1273,504,1332,-1027,-622,-289,122,156,-72
9064,2384,0,2023-03-10T14:07:21.990476,6320167,1273,504,1332,-1027,-622,-289,122,156,-72
9065,2385,0,2023-03-10T14:07:21.995076,6320172,1273,504,1332,-1027,-622,-289,122,156,-72
9066,2386,0,2023-03-10T14:07:21.999522,6320177,1273,504,1332,-1027,-622,-289,122,156,-72
9067,2387,0,2023-03-10T14:07:22.004036,6320181,1273,504,1332,-1027,-622,-289,122,156,-72
9068,2388,0,2023-03-10T14:07:22.008365,6320185,1264,489,1323,-1023,-642,-249,122,156,-72
9069,2389,0,2023-03-10T14:07:22.013005,6320190,1264,489,1323,-1023,-642,-249,122,156,-72
9070,2390,0,2023-03-10T14:07:22.017695,6320194,1264,489,1323,-1023,-642,-249,122,156,-72
9071,2391,0,2023-03-10T14:07:22.022382,6320199,1264,489,1323,-1023,-642,-249,122,156,-72
9072,2392,0,2023-03-10T14:07:22.027155,6320204,1279,496,1338,-1008,-629,-264,122,156,-72
9073,2393,0,2023-03-10T14:07:22.031800,6320208,1279,496,1338,-1008,-629,-264,122,156,-72
9074,2394,0,2023-03-10T14:07:22.036449,6320214,1279,496,1338,-1008,-629,-264,122,156,-72
9075,2395,0,2023-03-10T14:07:22.040971,6320218,1279,496,1338,-1008,-629,-264,122,156,-72
9076,2396,0,2023-03-10T14:07:22.045350,6320222,1289,498,1321,-1034,-645,-298,122,156,-72
9077,2397,0,2023-03-10T14:07:22.052693,6320230,1289,498,1321,-1034,-645,-298,122,156,-72
9078,2398,0,2023-03-10T14:07:22.057169,6320234,1289,498,1321,-1034,-645,-298,122,156,-72
9079,2399,0,2023-03-10T14:07:22.061406,6320238,1289,498,1321,-1034,-645,-298,122,156,-72
9080,2400,0,2023-03-10T14:07:22.065968,6320243,1270,495,1316,-1015,-630,-258,122,156,-72
9081,2401,0,2023-03-10T14:07:22.071119,6320248,1270,495,1316,-1015,-630,-258,122,156,-72
9082,2402,0,2023-03-10T14:07:22.075488,6320252,1270,495,1316,-1015,-630,-258,122,156,-72
9083,2403,0,2023-03-10T14:07:22.080201,6320257,1270,495,1316,-1015,-630,-258,122,156,-72
9084,2404,0,2023-03-10T14:07:22.084514,6320262,1270,495,1316,-1015,-630,-258,122,156,-72
9085,2405,0,2023-03-10T14:07:22.089645,6320267,1266,491,1336,-1019,-617,-271,123,137,-69
9086,2406,0,2023-03-10T14:07:22.094593,6320272,1266,491,1336,-1019,-617,-271,123,137,-69
9087,2407,0,2023-03-10T14:07:22.099198,6320276,1266,491,1336,-1019,-617,-271,123,137,-69
9088,2408,0,2023-03-10T14:07:22.103800,6320281,1266,491,1336,-1019,-617,-271,123,137,-69
9089,2409,0,2023-03-10T14:07:22.108812,6320285,1280,500,1318,-1025,-655,-286,123,137,-69
9090,2410,0,2023-03-10T14:07:22.113551,6320290,1280,500,1318,-1025,-655,-286,123,137,-69
9091,2411,0,2023-03-10T14:07:22.118219,6320294,1280,500,1318,-1025,-655,-286,123,137,-69
9092,2412,0,2023-03-10T14:07:22.122870,6320300,1280,500,1318,-1025,-655,-286,123,137,-69
9093,2413,0,2023-03-10T14:07:22.127304,6320305,1274,493,1329,-1024,-622,-256,123,137,-69
9094,2414,0,2023-03-10T14:07:22.132610,6320310,1274,493,1329,-1024,-622,-256,123,137,-69
9095,2415,0,2023-03-10T14:07:22.137170,6320314,1274,493,1329,-1024,-622,-256,123,137,-69
9096,2416,0,2023-03-10T14:07:22.141648,6320318,1274,493,1329,-1024,-622,-256,123,137,-69
9097,2417,0,2023-03-10T14:07:22.146319,6320323,1275,498,1316,-1013,-651,-282,123,137,-69
9098,2418,0,2023-03-10T14:07:22.151216,6320328,1275,498,1316,-1013,-651,-282,123,137,-69
9099,2419,0,2023-03-10T14:07:22.155764,6320332,1275,498,1316,-1013,-651,-282,123,137,-69
9100,2420,0,2023-03-10T14:07:22.160301,6320337,1275,498,1316,-1013,-651,-282,123,137,-69
9101,2421,0,2023-03-10T14:07:22.164601,6320342,1275,498,1316,-1013,-651,-282,123,137,-69
9102,2422,0,2023-03-10T14:07:22.169644,6320347,1290,498,1322,-1031,-633,-271,123,137,-69
9103,2423,0,2023-03-10T14:07:22.174223,6320351,1290,498,1322,-1031,-633,-271,123,137,-69
9104,2424,0,2023-03-10T14:07:22.179058,6320356,1290,498,1322,-1031,-633,-271,123,137,-69
9105,2425,0,2023-03-10T14:07:22.184321,6320361,1290,498,1322,-1031,-633,-271,123,137,-69
9106,2426,0,2023-03-10T14:07:22.189813,6320366,1264,494,1311,-1018,-633,-266,123,137,-69
9107,2427,0,2023-03-10T14:07:22.195174,6320372,1264,494,1311,-1018,-633,-266,123,137,-69
9108,2428,0,2023-03-10T14:07:22.199429,6320376,1264,494,1311,-1018,-633,-266,123,137,-69
9109,2429,0,2023-03-10T14:07:22.204110,6320381,1264,494,1311,-1018,-633,-266,123,137,-69
9110,2430,0,2023-03-10T14:07:22.208964,6320386,1271,486,1324,-1027,-637,-262,122,154,-74
9111,2431,0,2023-03-10T14:07:22.213939,6320391,1271,486,1324,-1027,-637,-262,122,154,-74
9112,2432,0,2023-03-10T14:07:22.218749,6320395,1271,486,1324,-1027,-637,-262,122,154,-74
9113,2433,0,2023-03-10T14:07:22.223541,6320400,1271,486,1324,-1027,-637,-262,122,154,-74
9114,2434,0,2023-03-10T14:07:22.228401,6320405,1282,506,1335,-1016,-642,-279,122,154,-74
9115,2435,0,2023-03-10T14:07:22.233545,6320410,1282,506,1335,-1016,-642,-279,122,154,-74
9116,2436,0,2023-03-10T14:07:22.238195,6320415,1282,506,1335,-1016,-642,-279,122,154,-74
9117,2437,0,2023-03-10T14:07:22.242636,6320419,1282,506,1335,-1016,-642,-279,122,154,-74
9118,2438,0,2023-03-10T14:07:22.247078,6320423,1278,498,1320,-1026,-625,-246,122,154,-74
9119,2439,0,2023-03-10T14:07:22.252223,6320430,1278,498,1320,-1026,-625,-246,122,154,-74
9120,2440,0,2023-03-10T14:07:22.256826,6320434,1278,498,1320,-1026,-625,-246,122,154,-74
9121,2441,0,2023-03-10T14:07:22.261120,6320438,1278,498,1320,-1026,-625,-246,122,154,-74
9122,2442,0,2023-03-10T14:07:22.265625,6320443,1282,496,1330,-1000,-632,-267,122,154,-74
9123,2443,0,2023-03-10T14:07:22.270691,6320448,1282,496,1330,-1000,-632,-267,122,154,-74
9124,2444,0,2023-03-10T14:07:22.275159,6320452,1282,496,1330,-1000,-632,-267,122,154,-74
9125,2445,0,2023-03-10T14:07:22.279651,6320456,1282,496,1330,-1000,-632,-267,122,154,-74
9126,2446,0,2023-03-10T14:07:22.283805,6320460,1282,496,1330,-1000,-632,-267,122,154,-74
9127,2447,0,2023-03-10T14:07:22.288435,6320465,1281,496,1314,-1054,-635,-290,122,154,-74
9128,2448,0,2023-03-10T14:07:22.293340,6320471,1281,496,1314,-1054,-635,-290,122,154,-74
9129,2449,0,2023-03-10T14:07:22.297946,6320475,1281,496,1314,-1054,-635,-290,122,154,-74
9130,2450,0,2023-03-10T14:07:22.302774,6320480,1281,496,1314,-1054,-635,-290,122,154,-74
9131,2451,0,2023-03-10T14:07:22.307186,6320484,1291,497,1326,-1007,-646,-273,122,154,-74
9132,2452,0,2023-03-10T14:07:22.313005,6320490,1291,497,1326,-1007,-646,-273,122,154,-74
9133,2453,0,2023-03-10T14:07:22.317602,6320494,1291,497,1326,-1007,-646,-273,122,154,-74
9134,2454,0,2023-03-10T14:07:22.322054,6320499,1291,497,1326,-1007,-646,-273,122,154,-74
9135,2455,0,2023-03-10T14:07:22.326951,6320503,1263,487,1320,-1025,-648,-268,122,154,-74
9136,2456,0,2023-03-10T14:07:22.332167,6320509,1263,487,1320,-1025,-648,-268,122,154,-74
9137,2457,0,2023-03-10T14:07:22.336553,6320514,1263,487,1320,-1025,-648,-268,122,154,-74
9138,2458,0,2023-03-10T14:07:22.341083,6320518,1263,487,1320,-1025,-648,-268,122,154,-74
9139,2459,0,2023-03-10T14:07:22.345551,6320523,1295,506,1322,-1030,-626,-288,126,150,-70
9140,2460,0,2023-03-10T14:07:22.351179,6320528,1295,506,1322,-1030,-626,-288,126,150,-70
9141,2461,0,2023-03-10T14:07:22.355548,6320532,1295,506,1322,-1030,-626,-288,126,150,-70
9142,2462,0,2023-03-10T14:07:22.360128,6320537,1295,506,1322,-1030,-626,-288,126,150,-70
9143,2463,0,2023-03-10T14:07:22.364688,6320541,1295,506,1322,-1030,-626,-288,126,150,-70
9144,2464,0,2023-03-10T14:07:22.370187,6320547,1283,499,1327,-998,-657,-234,126,150,-70
9145,2465,0,2023-03-10T14:07:22.375314,6320552,1283,499,1327,-998,-657,-234,126,150,-70
9146,2466,0,2023-03-10T14:07:22.380035,6320557,1283,499,1327,-998,-657,-234,126,150,-70
9147,2467,0,2023-03-10T14:07:22.384851,6320562,1283,499,1327,-998,-657,-234,126,150,-70
9148,2468,0,2023-03-10T14:07:22.389848,6320567,1267,490,1314,-1039,-628,-266,126,150,-70
9149,2469,0,2023-03-10T14:07:22.394917,6320572,1267,490,1314,-1039,-628,-266,126,150,-70
9150,2470,0,2023-03-10T14:07:22.399357,6320576,1267,490,1314,-1039,-628,-266,126,150,-70
9151,2471,0,2023-03-10T14:07:22.403833,6320581,1267,490,1314,-1039,-628,-266,126,150,-70
9152,2472,0,2023-03-10T14:07:22.409046,6320586,1303,504,1330,-1031,-648,-306,126,150,-70
9153,2473,0,2023-03-10T14:07:22.414358,6320591,1303,504,1330,-1031,-648,-306,126,150,-70
9154,2474,0,2023-03-10T14:07:22.418671,6320595,1303,504,1330,-1031,-648,-306,126,150,-70
9155,2475,0,2023-03-10T14:07:22.423107,6320600,1303,504,1330,-1031,-648,-306,126,150,-70
9156,2476,0,2023-03-10T14:07:22.427608,6320605,1264,483,1311,-1030,-644,-244,126,150,-70
9157,2477,0,2023-03-10T14:07:22.432627,6320610,1264,483,1311,-1030,-644,-244,126,150,-70
9158,2478,0,2023-03-10T14:07:22.437400,6320614,1264,483,1311,-1030,-644,-244,126,150,-70
9159,2479,0,2023-03-10T14:07:22.441755,6320619,1264,483,1311,-1030,-644,-244,126,150,-70
9160,2480,0,2023-03-10T14:07:22.446124,6320623,1293,503,1328,-1016,-617,-289,126,150,-70
9161,2481,0,2023-03-10T14:07:22.451171,6320628,1293,503,1328,-1016,-617,-289,126,150,-70
9162,2482,0,2023-03-10T14:07:22.455745,6320632,1293,503,1328,-1016,-617,-289,126,150,-70
9163,2483,0,2023-03-10T14:07:22.460312,6320637,1293,503,1328,-1016,-617,-289,126,150,-70
9164,2484,0,2023-03-10T14:07:22.464662,6320642,1293,503,1328,-1016,-617,-289,126,150,-70
9165,2485,0,2023-03-10T14:07:22.469715,6320647,1289,501,1329,-1019,-653,-276,120,142,-70
9166,2486,0,2023-03-10T14:07:22.474099,6320651,1289,501,1329,-1019,-653,-276,120,142,-70
9167,2487,0,2023-03-10T14:07:22.478572,6320656,1289,501,1329,-1019,-653,-276,120,142,-70
9168,2488,0,2023-03-10T14:07:22.483228,6320660,1289,501,1329,-1019,-653,-276,120,142,-70
9169,2489,0,2023-03-10T14:07:22.487687,6320665,1278,506,1314,-1035,-622,-283,120,142,-70
9170,2490,0,2023-03-10T14:07:22.493159,6320670,1278,506,1314,-1035,-622,-283,120,142,-70
9171,2491,0,2023-03-10T14:07:22.498197,6320674,1278,506,1314,-1035,-622,-283,120,142,-70
9172,2492,0,2023-03-10T14:07:22.502862,6320679,1278,506,1314,-1035,-622,-283,120,142,-70
9173,2493,0,2023-03-10T14:07:22.507185,6320685,1290,500,1333,-1009,-642,-246,120,142,-70
9174,2494,0,2023-03-10T14:07:22.512493,6320690,1290,500,1333,-1009,-642,-246,120,142,-70
9175,2495,0,2023-03-10T14:07:22.517091,6320694,1290,500,1333,-1009,-642,-246,120,142,-70
9176,2496,0,2023-03-10T14:07:22.521469,6320698,1290,500,1333,-1009,-642,-246,120,142,-70
9177,2497,0,2023-03-10T14:07:22.525877,6320703,1268,485,1316,-1017,-637,-251,120,142,-70
9178,2498,0,2023-03-10T14:07:22.531049,6320708,1268,485,1316,-1017,-637,-251,120,142,-70
9179,2499,0,2023-03-10T14:07:22.535478,6320712,1268,485,1316,-1017,-637,-251,120,142,-70
9180,2500,0,2023-03-10T14:07:22.540149,6320717,1268,485,1316,-1017,-637,-251,120,142,-70
9181,2501,0,2023-03-10T14:07:22.544869,6320721,1268,485,1316,-1017,-637,-251,120,142,-70
9182,2502,0,2023-03-10T14:07:22.549810,6320727,1294,497,1316,-1043,-628,-284,120,142,-70
9183,2503,0,2023-03-10T14:07:22.554771,6320732,1294,497,1316,-1043,-628,-284,120,142,-70
9184,2504,0,2023-03-10T14:07:22.559448,6320736,1294,497,1316,-1043,-628,-284,120,142,-70
9185,2505,0,2023-03-10T14:07:22.564029,6320741,1294,497,1316,-1043,-628,-284,120,142,-70
9186,2506,0,2023-03-10T14:07:22.569087,6320746,1298,498,1329,-1011,-659,-275,120,142,-70
9187,2507,0,2023-03-10T14:07:22.574358,6320751,1298,498,1329,-1011,-659,-275,120,142,-70
9188,2508,0,2023-03-10T14:07:22.579052,6320755,1298,498,1329,-1011,-659,-275,120,142,-70
9189,2509,0,2023-03-10T14:07:22.583541,6320760,1298,498,1329,-1011,-659,-275,120,142,-70
9190,2510,0,2023-03-10T14:07:22.588326,6320765,1275,497,1316,-1040,-605,-276,112,142,-64
9191,2511,0,2023-03-10T14:07:22.592745,6320770,1275,497,1316,-1040,-605,-276,112,142,-64
9192,2512,0,2023-03-10T14:07:22.597377,6320775,1275,497,1316,-1040,-605,-276,112,142,-64
9193,2513,0,2023-03-10T14:07:22.602009,6320779,1275,497,1316,-1040,-605,-276,112,142,-64
9194,2514,0,2023-03-10T14:07:22.606489,6320784,1289,500,1334,-1008,-655,-254,112,142,-64
9195,2515,0,2023-03-10T14:07:22.611086,6320788,1289,500,1334,-1008,-655,-254,112,142,-64
9196,2516,0,2023-03-10T14:07:22.615696,6320792,1289,500,1334,-1008,-655,-254,112,142,-64
9197,2517,0,2023-03-10T14:07:22.620050,6320797,1289,500,1334,-1008,-655,-254,112,142,-64
9198,2518,0,2023-03-10T14:07:22.624486,6320801,1289,500,1334,-1008,-655,-254,112,142,-64
9199,2519,0,2023-03-10T14:07:22.629693,6320806,1270,493,1324,-1031,-638,-259,112,142,-64
9200,2520,0,2023-03-10T14:07:22.634585,6320812,1270,493,1324,-1031,-638,-259,112,142,-64
9201,2521,0,2023-03-10T14:07:22.639069,6320816,1270,493,1324,-1031,-638,-259,112,142,-64
9202,2522,0,2023-03-10T14:07:22.643706,6320821,1270,493,1324,-1031,-638,-259,112,142,-64
9203,2523,0,2023-03-10T14:07:22.648563,6320825,1284,497,1317,-1048,-631,-285,112,142,-64
9204,2524,0,2023-03-10T14:07:22.653504,6320830,1284,497,1317,-1048,-631,-285,112,142,-64
9205,2525,0,2023-03-10T14:07:22.658095,6320835,1284,497,1317,-1048,-631,-285,112,142,-64
9206,2526,0,2023-03-10T14:07:22.662770,6320839,1284,497,1317,-1048,-631,-285,112,142,-64
9207,2527,0,2023-03-10T14:07:22.667353,6320844,1299,498,1331,-1015,-676,-281,112,142,-64
9208,2528,0,2023-03-10T14:07:22.672834,6320849,1299,498,1331,-1015,-676,-281,112,142,-64
9209,2529,0,2023-03-10T14:07:22.677359,6320855,1299,498,1331,-1015,-676,-281,112,142,-64
9210,2530,0,2023-03-10T14:07:22.681804,6320859,1299,498,1331,-1015,-676,-281,112,142,-64
9211,2531,0,2023-03-10T14:07:22.686322,6320863,1277,493,1309,-1045,-619,-270,112,142,-64
9212,2532,0,2023-03-10T14:07:22.691820,6320869,1277,493,1309,-1045,-619,-270,112,142,-64
9213,2533,0,2023-03-10T14:07:22.696288,6320873,1277,493,1309,-1045,-619,-270,112,142,-64
9214,2534,0,2023-03-10T14:07:22.700862,6320878,1277,493,1309,-1045,-619,-270,112,142,-64
9215,2535,0,2023-03-10T14:07:22.705337,6320882,1277,493,1309,-1045,-619,-270,112,142,-64
9216,2536,0,2023-03-10T14:07:22.710796,6320887,1292,498,1321,-994,-645,-249,112,142,-64
9217,2537,0,2023-03-10T14:07:22.715580,6320892,1292,498,1321,-994,-645,-249,112,142,-64
9218,2538,0,2023-03-10T14:07:22.720200,6320898,1292,498,1321,-994,-645,-249,112,142,-64
9219,2539,0,2023-03-10T14:07:22.724767,6320902,1292,498,1321,-994,-645,-249,112,142,-64
9220,2540,0,2023-03-10T14:07:22.729590,6320907,1278,498,1323,-1013,-628,-263,115,147,-73
9221,2541,0,2023-03-10T14:07:22.734856,6320912,1278,498,1323,-1013,-628,-263,115,147,-73
9222,2542,0,2023-03-10T14:07:22.739790,6320916,1278,498,1323,-1013,-628,-263,115,147,-73
9223,2543,0,2023-03-10T14:07:22.744171,6320921,1278,498,1323,-1013,-628,-263,115,147,-73
9224,2544,0,2023-03-10T14:07:22.749282,6320926,1276,496,1316,-1050,-630,-287,115,147,-73
9225,2545,0,2023-03-10T14:07:22.754597,6320931,1276,496,1316,-1050,-630,-287,115,147,-73
9226,2546,0,2023-03-10T14:07:22.759220,6320935,1276,496,1316,-1050,-630,-287,115,147,-73
9227,2547,0,2023-03-10T14:07:22.763548,6320941,1276,496,1316,-1050,-630,-287,115,147,-73
9228,2548,0,2023-03-10T14:07:22.768148,6320945,1300,501,1331,-1017,-659,-277,115,147,-73
9229,2549,0,2023-03-10T14:07:22.773217,6320950,1300,501,1331,-1017,-659,-277,115,147,-73
9230,2550,0,2023-03-10T14:07:22.777895,6320955,1300,501,1331,-1017,-659,-277,115,147,-73
9231,2551,0,2023-03-10T14:07:22.782288,6320959,1300,501,1331,-1017,-659,-277,115,147,-73
9232,2552,0,2023-03-10T14:07:22.786607,6320963,1288,497,1309,-1034,-628,-270,115,147,-73
9233,2553,0,2023-03-10T14:07:22.791827,6320968,1288,497,1309,-1034,-628,-270,115,147,-73
9234,2554,0,2023-03-10T14:07:22.796236,6320973,1288,497,1309,-1034,-628,-270,115,147,-73
9235,2555,0,2023-03-10T14:07:22.800926,6320977,1288,497,1309,-1034,-628,-270,115,147,-73
9236,2556,0,2023-03-10T14:07:22.805349,6320983,1288,497,1309,-1034,-628,-270,115,147,-73
9237,2557,0,2023-03-10T14:07:22.809862,6320987,1285,491,1320,-1007,-640,-233,115,147,-73
9238,2558,0,2023-03-10T14:07:22.814854,6320992,1285,491,1320,-1007,-640,-233,115,147,-73
9239,2559,0,2023-03-10T14:07:22.819505,6320996,1285,491,1320,-1007,-640,-233,115,147,-73
9240,2560,0,2023-03-10T14:07:22.823924,6321001,1285,491,1320,-1007,-640,-233,115,147,-73
9241,2561,0,2023-03-10T14:07:22.828335,6321005,1278,496,1315,-1020,-641,-266,115,147,-73
9242,2562,0,2023-03-10T14:07:22.832953,6321010,1278,496,1315,-1020,-641,-266,115,147,-73
9243,2563,0,2023-03-10T14:07:22.837574,6321014,1278,496,1315,-1020,-641,-266,115,147,-73
9244,2564,0,2023-03-10T14:07:22.842230,6321019,1278,496,1315,-1020,-641,-266,115,147,-73
9245,2565,0,2023-03-10T14:07:22.846755,6321024,1296,498,1321,-1041,-630,-293,120,142,-68
9246,2566,0,2023-03-10T14:07:22.852574,6321030,1296,498,1321,-1041,-630,-293,120,142,-68
9247,2567,0,2023-03-10T14:07:22.857014,6321034,1296,498,1321,-1041,-630,-293,120,142,-68
9248,2568,0,2023-03-10T14:07:22.861332,6321038,1296,498,1321,-1041,-630,-293,120,142,-68
9249,2569,0,2023-03-10T14:07:22.865770,6321043,1271,493,1316,-1010,-650,-254,120,142,-68
9250,2570,0,2023-03-10T14:07:22.870552,6321047,1271,493,1316,-1010,-650,-254,120,142,-68
9251,2571,0,2023-03-10T14:07:22.875232,6321052,1271,493,1316,-1010,-650,-254,120,142,-68
9252,2572,0,2023-03-10T14:07:22.879806,6321056,1271,493,1316,-1010,-650,-254,120,142,-68
9253,2573,0,2023-03-10T14:07:22.884145,6321061,1271,493,1316,-1010,-650,-254,120,142,-68
9254,2574,0,2023-03-10T14:07:22.889095,6321067,1305,506,1325,-1033,-637,-283,120,142,-68
9255,2575,0,2023-03-10T14:07:22.894010,6321071,1305,506,1325,-1033,-637,-283,120,142,-68
9256,2576,0,2023-03-10T14:07:22.898392,6321076,1305,506,1325,-1033,-637,-283,120,142,-68
9257,2577,0,2023-03-10T14:07:22.902977,6321080,1305,506,1325,-1033,-637,-283,120,142,-68
9258,2578,0,2023-03-10T14:07:22.907759,6321085,1286,496,1313,-1014,-646,-258,120,142,-68
9259,2579,0,2023-03-10T14:07:22.913217,6321090,1286,496,1313,-1014,-646,-258,120,142,-68
9260,2580,0,2023-03-10T14:07:22.917504,6321094,1286,496,1313,-1014,-646,-258,120,142,-68
9261,2581,0,2023-03-10T14:07:22.922039,6321099,1286,496,1313,-1014,-646,-258,120,142,-68
9262,2582,0,2023-03-10T14:07:22.926441,6321103,1286,498,1298,-1035,-636,-277,120,142,-68
9263,2583,0,2023-03-10T14:07:22.931640,6321108,1286,498,1298,-1035,-636,-277,120,142,-68
9264,2584,0,2023-03-10T14:07:22.936089,6321113,1286,498,1298,-1035,-636,-277,120,142,-68
9265,2585,0,2023-03-10T14:07:22.940757,6321118,1286,498,1298,-1035,-636,-277,120,142,-68
9266,2586,0,2023-03-10T14:07:22.945411,6321122,1286,498,1298,-1035,-636,-277,120,142,-68
9267,2587,0,2023-03-10T14:07:22.950400,6321127,1281,489,1335,-1002,-625,-236,120,142,-68
9268,2588,0,2023-03-10T14:07:22.955414,6321132,1281,489,1335,-1002,-625,-236,120,142,-68
9269,2589,0,2023-03-10T14:07:22.959815,6321137,1281,489,1335,-1002,-625,-236,120,142,-68
9270,2590,0,2023-03-10T14:07:22.964201,6321141,1281,489,1335,-1002,-625,-236,120,142,-68
9271,2591,0,2023-03-10T14:07:22.969353,6321146,1287,496,1311,-1016,-675,-272,120,142,-68
9272,2592,0,2023-03-10T14:07:22.974546,6321152,1287,496,1311,-1016,-675,-272,120,142,-68
9273,2593,0,2023-03-10T14:07:22.978917,6321156,1287,496,1311,-1016,-675,-272,120,142,-68
9274,2594,0,2023-03-10T14:07:22.983354,6321161,1287,496,1311,-1016,-675,-272,120,142,-68
9275,2595,0,2023-03-10T14:07:22.987768,6321165,1298,498,1314,-1047,-614,-285,126,146,-70
9276,2596,0,2023-03-10T14:07:22.992702,6321170,1298,498,1314,-1047,-614,-285,126,146,-70
9277,2597,0,2023-03-10T14:07:22.997058,6321174,1298,498,1314,-1047,-614,-285,126,146,-70
9278,2598,0,2023-03-10T14:07:23.001731,6321178,1298,498,1314,-1047,-614,-285,126,146,-70
9279,2599,0,2023-03-10T14:07:23.006362,6321183,1285,497,1322,-1003,-653,-256,126,146,-70
9280,2600,0,2023-03-10T14:07:23.010838,6321187,1285,497,1322,-1003,-653,-256,126,146,-70
9281,2601,0,2023-03-10T14:07:23.015359,6321192,1285,497,1322,-1003,-653,-256,126,146,-70
9282,2602,0,2023-03-10T14:07:23.020056,6321197,1285,497,1322,-1003,-653,-256,126,146,-70
9283,2603,0,2023-03-10T14:07:23.024420,6321202,1285,497,1322,-1003,-653,-256,126,146,-70
9284,2604,0,2023-03-10T14:07:23.029427,6321207,1296,495,1309,-1040,-621,-274,126,146,-70
9285,2605,0,2023-03-10T14:07:23.034186,6321211,1296,495,1309,-1040,-621,-274,126,146,-70
9286,2606,0,2023-03-10T14:07:23.038857,6321216,1296,495,1309,-1040,-621,-274,126,146,-70
9287,2607,0,2023-03-10T14:07:23.043390,6321220,1296,495,1309,-1040,-621,-274,126,146,-70
9288,2608,0,2023-03-10T14:07:23.047809,6321224,1272,486,1306,-1031,-633,-252,126,146,-70
9289,2609,0,2023-03-10T14:07:23.052522,6321229,1272,486,1306,-1031,-633,-252,126,146,-70
9290,2610,0,2023-03-10T14:07:23.057050,6321233,1272,486,1306,-1031,-633,-252,126,146,-70
9291,2611,0,2023-03-10T14:07:23.061386,6321239,1272,486,1306,-1031,-633,-252,126,146,-70
9292,2612,0,2023-03-10T14:07:23.065883,6321243,1272,486,1306,-1031,-633,-252,126,146,-70
9293,2613,0,2023-03-10T14:07:23.070962,6321248,1293,502,1327,-1031,-634,-275,126,146,-70
9294,2614,0,2023-03-10T14:07:23.075857,6321253,1293,502,1327,-1031,-634,-275,126,146,-70
9295,2615,0,2023-03-10T14:07:23.080360,6321257,1293,502,1327,-1031,-634,-275,126,146,-70
9296,2616,0,2023-03-10T14:07:23.084685,6321262,1293,502,1327,-1031,-634,-275,126,146,-70
9297,2617,0,2023-03-10T14:07:23.089668,6321266,1285,491,1315,-1006,-649,-224,126,146,-70
9298,2618,0,2023-03-10T14:07:23.094646,6321271,1285,491,1315,-1006,-649,-224,126,146,-70
9299,2619,0,2023-03-10T14:07:23.099182,6321276,1285,491,1315,-1006,-649,-224,126,146,-70
9300,2620,0,2023-03-10T14:07:23.103742,6321281,1285,491,1315,-1006,-649,-224,126,146,-70
9301,2621,0,2023-03-10T14:07:23.108560,6321286,1301,491,1310,-1026,-655,-273,121,145,-79
9302,2622,0,2023-03-10T14:07:23.113320,6321291,1301,491,1310,-1026,-655,-273,121,145,-79
9303,2623,0,2023-03-10T14:07:23.117827,6321295,1301,491,1310,-1026,-655,-273,121,145,-79
9304,2624,0,2023-03-10T14:07:23.122199,6321299,1301,491,1310,-1026,-655,-273,121,145,-79
9305,2625,0,2023-03-10T14:07:23.126759,6321303,1293,493,1318,-1043,-636,-275,121,145,-79
9306,2626,0,2023-03-10T14:07:23.132359,6321309,1293,493,1318,-1043,-636,-275,121,145,-79
9307,2627,0,2023-03-10T14:07:23.136746,6321313,1293,493,1318,-1043,-636,-275,121,145,-79
9308,2628,0,2023-03-10T14:07:23.141431,6321318,1293,493,1318,-1043,-636,-275,121,145,-79
9309,2629,0,2023-03-10T14:07:23.145838,6321323,1293,493,1318,-1043,-636,-275,121,145,-79
9310,2630,0,2023-03-10T14:07:23.150318,6321328,1282,488,1323,-1016,-624,-265,121,145,-79
9311,2631,0,2023-03-10T14:07:23.155313,6321332,1282,488,1323,-1016,-624,-265,121,145,-79
9312,2632,0,2023-03-10T14:07:23.159875,6321337,1282,488,1323,-1016,-624,-265,121,145,-79
9313,2633,0,2023-03-10T14:07:23.164383,6321341,1282,488,1323,-1016,-624,-265,121,145,-79
9314,2634,0,2023-03-10T14:07:23.169253,6321346,1295,497,1314,-1033,-660,-277,121,145,-79
9315,2635,0,2023-03-10T14:07:23.174447,6321351,1295,497,1314,-1033,-660,-277,121,145,-79
9316,2636,0,2023-03-10T14:07:23.178926,6321356,1295,497,1314,-1033,-660,-277,121,145,-79
9317,2637,0,2023-03-10T14:07:23.183379,6321360,1295,497,1314,-1033,-660,-277,121,145,-79
9318,2638,0,2023-03-10T14:07:23.187722,6321364,1291,489,1321,-1032,-606,-272,121,145,-79
9319,2639,0,2023-03-10T14:07:23.192652,6321370,1291,489,1321,-1032,-606,-272,121,145,-79
9320,2640,0,2023-03-10T14:07:23.197214,6321374,1291,489,1321,-1032,-606,-272,121,145,-79
9321,2641,0,2023-03-10T14:07:23.201602,6321379,1291,489,1321,-1032,-606,-272,121,145,-79
9322,2642,0,2023-03-10T14:07:23.206431,6321383,1292,502,1304,-1020,-653,-273,121,145,-79
9323,2643,0,2023-03-10T14:07:23.212067,6321389,1292,502,1304,-1020,-653,-273,121,145,-79
9324,2644,0,2023-03-10T14:07:23.216530,6321393,1292,502,1304,-1020,-653,-273,121,145,-79
9325,2645,0,2023-03-10T14:07:23.221313,6321398,1292,502,1304,-1020,-653,-273,121,145,-79
9326,2646,0,2023-03-10T14:07:23.225898,6321402,1292,502,1304,-1020,-653,-273,121,145,-79
9327,2647,0,2023-03-10T14:07:23.231002,6321408,1297,491,1314,-1008,-633,-237,121,145,-79
9328,2648,0,2023-03-10T14:07:23.235318,6321413,1297,491,1314,-1008,-633,-237,121,145,-79
9329,2649,0,2023-03-10T14:07:23.240218,6321417,1297,491,1314,-1008,-633,-237,121,145,-79
9330,2650,0,2023-03-10T14:07:23.244814,6321422,1297,491,1314,-1008,-633,-237,121,145,-79
9331,2651,0,2023-03-10T14:07:23.250001,6321427,1281,488,1315,-1026,-640,-269,133,145,-69
9332,2652,0,2023-03-10T14:07:23.255320,6321432,1281,488,1315,-1026,-640,-269,133,145,-69
9333,2653,0,2023-03-10T14:07:23.259995,6321437,1281,488,1315,-1026,-640,-269,133,145,-69
9334,2654,0,2023-03-10T14:07:23.264578,6321441,1281,488,1315,-1026,-640,-269,133,145,-69
9335,2655,0,2023-03-10T14:07:23.269522,6321446,1300,492,1302,-1037,-662,-276,133,145,-69
9336,2656,0,2023-03-10T14:07:23.274563,6321452,1300,492,1302,-1037,-662,-276,133,145,-69
9337,2657,0,2023-03-10T14:07:23.279138,6321456,1300,492,1302,-1037,-662,-276,133,145,-69
9338,2658,0,2023-03-10T14:07:23.283560,6321461,1300,492,1302,-1037,-662,-276,133,145,-69
9339,2659,0,2023-03-10T14:07:23.287928,6321465,1301,492,1320,-1020,-609,-269,133,145,-69
9340,2660,0,2023-03-10T14:07:23.293266,6321470,1301,492,1320,-1020,-609,-269,133,145,-69
9341,2661,0,2023-03-10T14:07:23.297844,6321474,1301,492,1320,-1020,-609,-269,133,145,-69
9342,2662,0,2023-03-10T14:07:23.302346,6321479,1301,492,1320,-1020,-609,-269,133,145,-69
9343,2663,0,2023-03-10T14:07:23.306779,6321483,1301,492,1320,-1020,-609,-269,133,145,-69
9344,2664,0,2023-03-10T14:07:23.311843,6321488,1301,492,1320,-1020,-609,-269,133,145,-69
9345,2665,0,2023-03-10T14:07:23.316341,6321494,1301,492,1320,-1020,-609,-269,133,145,-69
9346,2666,0,2023-03-10T14:07:23.320734,6321498,1301,492,1320,-1020,-609,-269,133,145,-69
9347,2667,0,2023-03-10T14:07:23.325328,6321503,1301,492,1320,-1020,-609,-269,133,145,-69
9348,2668,0,2023-03-10T14:07:23.330049,6321507,1299,501,1328,-1014,-625,-255,133,145,-69
9349,2669,0,2023-03-10T14:07:23.335301,6321512,1299,501,1328,-1014,-625,-255,133,145,-69
9350,2670,0,2023-03-10T14:07:23.339795,6321516,1299,501,1328,-1014,-625,-255,133,145,-69
9351,2671,0,2023-03-10T14:07:23.344345,6321521,1299,501,1328,-1014,-625,-255,133,145,-69
9352,2672,0,2023-03-10T14:07:23.349399,6321526,1283,488,1301,-1040,-638,-289,133,145,-69
9353,2673,0,2023-03-10T14:07:23.355294,6321531,1283,488,1301,-1040,-638,-289,133,145,-69
9354,2674,0,2023-03-10T14:07:23.359554,6321537,1283,488,1301,-1040,-638,-289,133,145,-69
9355,2675,0,2023-03-10T14:07:23.364216,6321541,1283,488,1301,-1040,-638,-289,133,145,-69
9356,2676,0,2023-03-10T14:07:23.369105,6321546,1294,492,1308,-1038,-647,-280,124,142,-76
9357,2677,0,2023-03-10T14:07:23.374027,6321551,1294,492,1308,-1038,-647,-280,124,142,-76
9358,2678,0,2023-03-10T14:07:23.378609,6321556,1294,492,1308,-1038,-647,-280,124,142,-76
9359,2679,0,2023-03-10T14:07:23.383339,6321560,1294,492,1308,-1038,-647,-280,124,142,-76
9360,2680,0,2023-03-10T14:07:23.387788,6321564,1305,492,1328,-1018,-624,-261,124,142,-76
9361,2681,0,2023-03-10T14:07:23.392728,6321569,1305,492,1328,-1018,-624,-261,124,142,-76
9362,2682,0,2023-03-10T14:07:23.397231,6321574,1305,492,1328,-1018,-624,-261,124,142,-76
9363,2683,0,2023-03-10T14:07:23.401559,6321579,1305,492,1328,-1018,-624,-261,124,142,-76
9364,2684,0,2023-03-10T14:07:23.406212,6321583,1305,492,1328,-1018,-624,-261,124,142,-76
9365,2685,0,2023-03-10T14:07:23.410795,6321588,1287,493,1305,-1028,-652,-262,124,142,-76
9366,2686,0,2023-03-10T14:07:23.415696,6321593,1287,493,1305,-1028,-652,-262,124,142,-76
9367,2687,0,2023-03-10T14:07:23.420319,6321597,1287,493,1305,-1028,-652,-262,124,142,-76
9368,2688,0,2023-03-10T14:07:23.424603,6321602,1287,493,1305,-1028,-652,-262,124,142,-76
9369,2689,0,2023-03-10T14:07:23.429137,6321606,1312,498,1313,-1016,-621,-289,124,142,-76
9370,2690,0,2023-03-10T14:07:23.434781,6321611,1312,498,1313,-1016,-621,-289,124,142,-76
9371,2691,0,2023-03-10T14:07:23.439263,6321616,1312,498,1313,-1016,-621,-289,124,142,-76
9372,2692,0,2023-03-10T14:07:23.443977,6321620,1312,498,1313,-1016,-621,-289,124,142,-76
9373,2693,0,2023-03-10T14:07:23.448815,6321626,1290,494,1299,-1025,-633,-272,124,142,-76
9374,2694,0,2023-03-10T14:07:23.454134,6321631,1290,494,1299,-1025,-633,-272,124,142,-76
9375,2695,0,2023-03-10T14:07:23.458611,6321636,1290,494,1299,-1025,-633,-272,124,142,-76
9376,2696,0,2023-03-10T14:07:23.463082,6321640,1290,494,1299,-1025,-633,-272,124,142,-76
9377,2697,0,2023-03-10T14:07:23.467410,6321644,1283,492,1306,-1015,-640,-247,124,142,-76
9378,2698,0,2023-03-10T14:07:23.472346,6321649,1283,492,1306,-1015,-640,-247,124,142,-76
9379,2699,0,2023-03-10T14:07:23.477248,6321654,1283,492,1306,-1015,-640,-247,124,142,-76
9380,2700,0,2023-03-10T14:07:23.481563,6321658,1283,492,1306,-1015,-640,-247,124,142,-76
9381,2701,0,2023-03-10T14:07:23.486368,6321664,1283,492,1306,-1015,-640,-247,124,142,-76
9382,2702,0,2023-03-10T14:07:23.491420,6321669,1303,499,1321,-1031,-634,-295,124,144,-76
9383,2703,0,2023-03-10T14:07:23.496735,6321674,1303,499,1321,-1031,-634,-295,124,144,-76
9384,2704,0,2023-03-10T14:07:23.501100,6321678,1303,499,1321,-1031,-634,-295,124,144,-76
9385,2705,0,2023-03-10T14:07:23.505594,6321683,1303,499,1321,-1031,-634,-295,124,144,-76
9386,2706,0,2023-03-10T14:07:23.509867,6321687,1292,492,1308,-1047,-667,-270,124,144,-76
9387,2707,0,2023-03-10T14:07:23.514710,6321692,1292,492,1308,-1047,-667,-270,124,144,-76
9388,2708,0,2023-03-10T14:07:23.519387,6321696,1292,492,1308,-1047,-667,-270,124,144,-76
9389,2709,0,2023-03-10T14:07:23.524038,6321700,1292,492,1308,-1047,-667,-270,124,144,-76
9390,2710,0,2023-03-10T14:07:23.529050,6321705,1322,498,1314,-1018,-634,-290,124,144,-76
9391,2711,0,2023-03-10T14:07:23.534583,6321712,1322,498,1314,-1018,-634,-290,124,144,-76
9392,2712,0,2023-03-10T14:07:23.539308,6321716,1322,498,1314,-1018,-634,-290,124,144,-76
9393,2713,0,2023-03-10T14:07:23.543784,6321721,1322,498,1314,-1018,-634,-290,124,144,-76
9394,2714,0,2023-03-10T14:07:23.548128,6321725,1301,498,1302,-1032,-641,-261,124,144,-76
9395,2715,0,2023-03-10T14:07:23.553404,6321730,1301,498,1302,-1032,-641,-261,124,144,-76
9396,2716,0,2023-03-10T14:07:23.558010,6321735,1301,498,1302,-1032,-641,-261,124,144,-76
9397,2717,0,2023-03-10T14:07:23.562654,6321739,1301,498,1302,-1032,-641,-261,124,144,-76
9398,2718,0,2023-03-10T14:07:23.567045,6321744,1282,493,1308,-999,-623,-241,124,144,-76
9399,2719,0,2023-03-10T14:07:23.572278,6321748,1282,493,1308,-999,-623,-241,124,144,-76
9400,2720,0,2023-03-10T14:07:23.576748,6321754,1282,493,1308,-999,-623,-241,124,144,-76
9401,2721,0,2023-03-10T14:07:23.581086,6321758,1282,493,1308,-999,-623,-241,124,144,-76
9402,2722,0,2023-03-10T14:07:23.585360,6321762,1282,493,1308,-999,-623,-241,124,144,-76
9403,2723,0,2023-03-10T14:07:23.590636,6321768,1306,495,1318,-1035,-628,-299,124,144,-76
9404,2724,0,2023-03-10T14:07:23.595470,6321772,1306,495,1318,-1035,-628,-299,124,144,-76
9405,2725,0,2023-03-10T14:07:23.599760,6321777,1306,495,1318,-1035,-628,-299,124,144,-76
9406,2726,0,2023-03-10T14:07:23.604135,6321781,1306,495,1318,-1035,-628,-299,124,144,-76
9407,2727,0,2023-03-10T14:07:23.609031,6321786,1283,494,1302,-1025,-641,-259,124,144,-76
9408,2728,0,2023-03-10T14:07:23.614086,6321790,1283,494,1302,-1025,-641,-259,124,144,-76
9409,2729,0,2023-03-10T14:07:23.618623,6321796,1283,494,1302,-1025,-641,-259,124,144,-76
9410,2730,0,2023-03-10T14:07:23.623286,6321800,1283,494,1302,-1025,-641,-259,124,144,-76
9411,2731,0,2023-03-10T14:07:23.627523,6321805,1313,499,1315,-1012,-624,-270,123,137,-73
9412,2732,0,2023-03-10T14:07:23.632734,6321810,1313,499,1315,-1012,-624,-270,123,137,-73
9413,2733,0,2023-03-10T14:07:23.637061,6321814,1313,499,1315,-1012,-624,-270,123,137,-73
9414,2734,0,2023-03-10T14:07:23.641524,6321818,1313,499,1315,-1012,-624,-270,123,137,-73
9415,2735,0,2023-03-10T14:07:23.646148,6321823,1313,499,1315,-1012,-624,-270,123,137,-73
9416,2736,0,2023-03-10T14:07:23.650968,6321828,1304,497,1307,-1025,-649,-275,123,137,-73
9417,2737,0,2023-03-10T14:07:23.655961,6321832,1304,497,1307,-1025,-649,-275,123,137,-73
9418,2738,0,2023-03-10T14:07:23.660324,6321838,1304,497,1307,-1025,-649,-275,123,137,-73
9419,2739,0,2023-03-10T14:07:23.664817,6321842,1304,497,1307,-1025,-649,-275,123,137,-73
9420,2740,0,2023-03-10T14:07:23.669963,6321847,1292,492,1302,-1025,-621,-256,123,137,-73
9421,2741,0,2023-03-10T14:07:23.674842,6321852,1292,492,1302,-1025,-621,-256,123,137,-73
9422,2742,0,2023-03-10T14:07:23.679245,6321856,1292,492,1302,-1025,-621,-256,123,137,-73
9423,2743,0,2023-03-10T14:07:23.683762,6321861,1292,492,1302,-1025,-621,-256,123,137,-73
9424,2744,0,2023-03-10T14:07:23.688225,6321865,1313,503,1319,-1027,-638,-288,123,137,-73
9425,2745,0,2023-03-10T14:07:23.693786,6321870,1313,503,1319,-1027,-638,-288,123,137,-73
9426,2746,0,2023-03-10T14:07:23.698653,6321875,1313,503,1319,-1027,-638,-288,123,137,-73
9427,2747,0,2023-03-10T14:07:23.703212,6321881,1313,503,1319,-1027,-638,-288,123,137,-73
9428,2748,0,2023-03-10T14:07:23.707748,6321885,1281,489,1309,-1031,-637,-253,123,137,-73
9429,2749,0,2023-03-10T14:07:23.713704,6321891,1281,489,1309,-1031,-637,-253,123,137,-73
9430,2750,0,2023-03-10T14:07:23.718392,6321895,1281,489,1309,-1031,-637,-253,123,137,-73
9431,2751,0,2023-03-10T14:07:23.722993,6321900,1281,489,1309,-1031,-637,-253,123,137,-73
9432,2752,0,2023-03-10T14:07:23.727481,6321904,1315,506,1319,-1019,-626,-292,123,137,-73
9433,2753,0,2023-03-10T14:07:23.732491,6321909,1315,506,1319,-1019,-626,-292,123,137,-73
9434,2754,0,2023-03-10T14:07:23.737109,6321914,1315,506,1319,-1019,-626,-292,123,137,-73
9435,2755,0,2023-03-10T14:07:23.741520,6321918,1315,506,1319,-1019,-626,-292,123,137,-73
9436,2756,0,2023-03-10T14:07:23.746125,6321923,1315,506,1319,-1019,-626,-292,123,137,-73
9437,2757,0,2023-03-10T14:07:23.750387,6321928,1305,495,1309,-1025,-656,-261,117,149,-71
9438,2758,0,2023-03-10T14:07:23.754637,6321932,1305,495,1309,-1025,-656,-261,117,149,-71
9439,2759,0,2023-03-10T14:07:23.758912,6321936,1305,495,1309,-1025,-656,-261,117,149,-71
9440,2760,0,2023-03-10T14:07:23.763506,6321940,1305,495,1309,-1025,-656,-261,117,149,-71
9441,2761,0,2023-03-10T14:07:23.768445,6321945,1297,494,1299,-1014,-623,-263,117,149,-71
9442,2762,0,2023-03-10T14:07:23.774722,6321951,1297,494,1299,-1014,-623,-263,117,149,-71
9443,2763,0,2023-03-10T14:07:23.779295,6321956,1297,494,1299,-1014,-623,-263,117,149,-71
9444,2764,0,2023-03-10T14:07:23.783912,6321960,1297,494,1299,-1014,-623,-263,117,149,-71
9445,2765,0,2023-03-10T14:07:23.788487,6321966,1312,492,1312,-1021,-643,-261,117,149,-71
9446,2766,0,2023-03-10T14:07:23.794410,6321971,1312,492,1312,-1021,-643,-261,117,149,-71
9447,2767,0,2023-03-10T14:07:23.799505,6321976,1312,492,1312,-1021,-643,-261,117,149,-71
9448,2768,0,2023-03-10T14:07:23.803902,6321981,1312,492,1312,-1021,-643,-261,117,149,-71
9449,2769,0,2023-03-10T14:07:23.809079,6321986,1282,492,1303,-1015,-630,-256,117,149,-71
9450,2770,0,2023-03-10T14:07:23.814282,6321991,1282,492,1303,-1015,-630,-256,117,149,-71
9451,2771,0,2023-03-10T14:07:23.818814,6321995,1282,492,1303,-1015,-630,-256,117,149,-71
9452,2772,0,2023-03-10T14:07:23.823563,6322000,1282,492,1303,-1015,-630,-256,117,149,-71
9453,2773,0,2023-03-10T14:07:23.828355,6322006,1313,498,1316,-1021,-632,-268,117,149,-71
9454,2774,0,2023-03-10T14:07:23.834176,6322011,1313,498,1316,-1021,-632,-268,117,149,-71
9455,2775,0,2023-03-10T14:07:23.838920,6322016,1313,498,1316,-1021,-632,-268,117,149,-71
9456,2776,0,2023-03-10T14:07:23.843668,6322021,1313,498,1316,-1021,-632,-268,117,149,-71
9457,2777,0,2023-03-10T14:07:23.848257,6322025,1313,504,1305,-1017,-646,-276,117,149,-71
9458,2778,0,2023-03-10T14:07:23.854154,6322031,1313,504,1305,-1017,-646,-276,117,149,-71
9459,2779,0,2023-03-10T14:07:23.858785,6322035,1313,504,1305,-1017,-646,-276,117,149,-71
9460,2780,0,2023-03-10T14:07:23.863271,6322040,1313,504,1305,-1017,-646,-276,117,149,-71
9461,2781,0,2023-03-10T14:07:23.867616,6322044,1291,490,1299,-1043,-622,-249,117,149,-71
9462,2782,0,2023-03-10T14:07:23.872616,6322050,1291,490,1299,-1043,-622,-249,117,149,-71
9463,2783,0,2023-03-10T14:07:23.877350,6322054,1291,490,1299,-1043,-622,-249,117,149,-71
9464,2784,0,2023-03-10T14:07:23.881874,6322059,1291,490,1299,-1043,-622,-249,117,149,-71
9465,2785,0,2023-03-10T14:07:23.886367,6322063,1291,490,1299,-1043,-622,-249,117,149,-71
9466,2786,0,2023-03-10T14:07:23.891544,6322068,1318,498,1320,-1014,-629,-292,127,143,-79
9467,2787,0,2023-03-10T14:07:23.896312,6322073,1318,498,1320,-1014,-629,-292,127,143,-79
9468,2788,0,2023-03-10T14:07:23.900745,6322078,1318,498,1320,-1014,-629,-292,127,143,-79
9469,2789,0,2023-03-10T14:07:23.905236,6322082,1318,498,1320,-1014,-629,-292,127,143,-79
9470,2790,0,2023-03-10T14:07:23.909611,6322086,1284,479,1295,-1037,-636,-252,127,143,-79
9471,2791,0,2023-03-10T14:07:23.914363,6322092,1284,479,1295,-1037,-636,-252,127,143,-79
9472,2792,0,2023-03-10T14:07:23.918870,6322096,1284,479,1295,-1037,-636,-252,127,143,-79
9473,2793,0,2023-03-10T14:07:23.923285,6322100,1284,479,1295,-1037,-636,-252,127,143,-79
9474,2794,0,2023-03-10T14:07:23.927845,6322105,1310,499,1317,-1012,-624,-288,127,143,-79
9475,2795,0,2023-03-10T14:07:23.933406,6322110,1310,499,1317,-1012,-624,-288,127,143,-79
9476,2796,0,2023-03-10T14:07:23.938139,6322115,1310,499,1317,-1012,-624,-288,127,143,-79
9477,2797,0,2023-03-10T14:07:23.942837,6322119,1310,499,1317,-1012,-624,-288,127,143,-79
9478,2798,0,2023-03-10T14:07:23.947222,6322124,1310,499,1317,-1012,-624,-288,127,143,-79
9479,2799,0,2023-03-10T14:07:23.952229,6322129,1314,499,1310,-1027,-660,-269,127,143,-79
9480,2800,0,2023-03-10T14:07:23.957284,6322135,1314,499,1310,-1027,-660,-269,127,143,-79
9481,2801,0,2023-03-10T14:07:23.961868,6322139,1314,499,1310,-1027,-660,-269,127,143,-79
9482,2802,0,2023-03-10T14:07:23.966371,6322144,1314,499,1310,-1027,-660,-269,127,143,-79
9483,2803,0,2023-03-10T14:07:23.971429,6322148,1293,493,1299,-1029,-614,-264,127,143,-79
9484,2804,0,2023-03-10T14:07:23.976449,6322153,1293,493,1299,-1029,-614,-264,127,143,-79
9485,2805,0,2023-03-10T14:07:23.980804,6322158,1293,493,1299,-1029,-614,-264,127,143,-79
9486,2806,0,2023-03-10T14:07:23.985221,6322162,1293,493,1299,-1029,-614,-264,127,143,-79
9487,2807,0,2023-03-10T14:07:23.990071,6322167,1293,493,1299,-1029,-614,-264,127,143,-79
9488,2808,0,2023-03-10T14:07:23.994557,6322171,1293,493,1299,-1029,-614,-264,127,143,-79
9489,2809,0,2023-03-10T14:07:23.999263,6322177,1293,493,1299,-1029,-614,-264,127,143,-79
9490,2810,0,2023-03-10T14:07:24.003877,6322181,1293,493,1299,-1029,-614,-264,127,143,-79
9491,2811,0,2023-03-10T14:07:24.008252,6322186,1295,487,1296,-1026,-626,-265,122,144,-68
9492,2812,0,2023-03-10T14:07:24.014037,6322191,1295,487,1296,-1026,-626,-265,122,144,-68
9493,2813,0,2023-03-10T14:07:24.018717,6322196,1295,487,1296,-1026,-626,-265,122,144,-68
9494,2814,0,2023-03-10T14:07:24.023146,6322200,1295,487,1296,-1026,-626,-265,122,144,-68
9495,2815,0,2023-03-10T14:07:24.027561,6322204,1305,491,1309,-1027,-626,-264,122,144,-68
9496,2816,0,2023-03-10T14:07:24.033630,6322210,1305,491,1309,-1027,-626,-264,122,144,-68
9497,2817,0,2023-03-10T14:07:24.038104,6322215,1305,491,1309,-1027,-626,-264,122,144,-68
9498,2818,0,2023-03-10T14:07:24.042595,6322220,1305,491,1309,-1027,-626,-264,122,144,-68
9499,2819,0,2023-03-10T14:07:24.047082,6322224,1305,491,1309,-1027,-626,-264,122,144,-68
9500,2820,0,2023-03-10T14:07:24.051593,6322229,1321,507,1311,-1012,-641,-278,122,144,-68
9501,2821,0,2023-03-10T14:07:24.056428,6322234,1321,507,1311,-1012,-641,-278,122,144,-68
9502,2822,0,2023-03-10T14:07:24.060781,6322238,1321,507,1311,-1012,-641,-278,122,144,-68
9503,2823,0,2023-03-10T14:07:24.065312,6322242,1321,507,1311,-1012,-641,-278,122,144,-68
9504,2824,0,2023-03-10T14:07:24.070422,6322247,1288,487,1292,-1029,-634,-245,122,144,-68
9505,2825,0,2023-03-10T14:07:24.075442,6322252,1288,487,1292,-1029,-634,-245,122,144,-68
9506,2826,0,2023-03-10T14:07:24.080271,6322257,1288,487,1292,-1029,-634,-245,122,144,-68
9507,2827,0,2023-03-10T14:07:24.084803,6322262,1288,487,1292,-1029,-634,-245,122,144,-68
9508,2828,0,2023-03-10T14:07:24.089796,6322267,1320,500,1304,-1012,-636,-285,122,144,-68
9509,2829,0,2023-03-10T14:07:24.094237,6322271,1320,500,1304,-1012,-636,-285,122,144,-68
9510,2830,0,2023-03-10T14:07:24.098907,6322276,1320,500,1304,-1012,-636,-285,122,144,-68
9511,2831,0,2023-03-10T14:07:24.103419,6322280,1320,500,1304,-1012,-636,-285,122,144,-68
9512,2832,0,2023-03-10T14:07:24.107765,6322285,1288,486,1295,-1034,-630,-245,122,144,-68
9513,2833,0,2023-03-10T14:07:24.113464,6322290,1288,486,1295,-1034,-630,-245,122,144,-68
9514,2834,0,2023-03-10T14:07:24.117994,6322295,1288,486,1295,-1034,-630,-245,122,144,-68
9515,2835,0,2023-03-10T14:07:24.122547,6322299,1288,486,1295,-1034,-630,-245,122,144,-68
9516,2836,0,2023-03-10T14:07:24.127032,6322304,1288,486,1295,-1034,-630,-245,122,144,-68
9517,2837,0,2023-03-10T14:07:24.131519,6322309,1299,502,1311,-1013,-626,-277,122,144,-68
9518,2838,0,2023-03-10T14:07:24.136395,6322314,1299,502,1311,-1013,-626,-277,122,144,-68
9519,2839,0,2023-03-10T14:07:24.140839,6322318,1299,502,1311,-1013,-626,-277,122,144,-68
9520,2840,0,2023-03-10T14:07:24.145282,6322322,1299,502,1311,-1013,-626,-277,122,144,-68
9521,2841,0,2023-03-10T14:07:24.150383,6322327,1317,496,1308,-1030,-649,-262,122,144,-68
9522,2842,0,2023-03-10T14:07:24.154895,6322332,1317,496,1308,-1030,-649,-262,122,144,-68
9523,2843,0,2023-03-10T14:07:24.160035,6322336,1317,496,1308,-1030,-649,-262,122,144,-68
9524,2844,0,2023-03-10T14:07:24.164494,6322341,1317,496,1308,-1030,-649,-262,122,144,-68
9525,2845,0,2023-03-10T14:07:24.169521,6322347,1308,493,1297,-1029,-638,-274,122,144,-68
9526,2846,0,2023-03-10T14:07:24.174508,6322352,1308,493,1297,-1029,-638,-274,122,144,-68
9527,2847,0,2023-03-10T14:07:24.179007,6322356,1308,493,1297,-1029,-638,-274,122,144,-68
9528,2848,0,2023-03-10T14:07:24.183403,6322361,1308,493,1297,-1029,-638,-274,122,144,-68
9529,2849,0,2023-03-10T14:07:24.187888,6322365,1307,488,1293,-1024,-632,-263,122,144,-68
9530,2850,0,2023-03-10T14:07:24.193778,6322371,1307,488,1293,-1024,-632,-263,122,144,-68
9531,2851,0,2023-03-10T14:07:24.198331,6322375,1307,488,1293,-1024,-632,-263,122,144,-68
9532,2852,0,2023-03-10T14:07:24.202717,6322379,1307,488,1293,-1024,-632,-263,122,144,-68
9533,2853,0,2023-03-10T14:07:24.207146,6322384,1307,488,1293,-1024,-632,-263,122,144,-68
9534,2854,0,2023-03-10T14:07:24.212868,6322390,1305,500,1304,-1010,-630,-278,122,144,-68
9535,2855,0,2023-03-10T14:07:24.218291,6322395,1305,500,1304,-1010,-630,-278,122,144,-68
9536,2856,0,2023-03-10T14:07:24.222873,6322400,1305,500,1304,-1010,-630,-278,122,144,-68
9537,2857,0,2023-03-10T14:07:24.227482,6322405,1305,500,1304,-1010,-630,-278,122,144,-68
9538,2858,0,2023-03-10T14:07:24.231947,6322409,1303,496,1303,-1024,-627,-255,122,144,-68
9539,2859,0,2023-03-10T14:07:24.237159,6322414,1303,496,1303,-1024,-627,-255,122,144,-68
9540,2860,0,2023-03-10T14:07:24.241501,6322418,1303,496,1303,-1024,-627,-255,122,144,-68
9541,2861,0,2023-03-10T14:07:24.246215,6322423,1303,496,1303,-1024,-627,-255,122,144,-68
9542,2862,0,2023-03-10T14:07:24.251109,6322428,1311,500,1307,-1015,-672,-278,122,144,-68
9543,2863,0,2023-03-10T14:07:24.255835,6322433,1311,500,1307,-1015,-672,-278,122,144,-68
9544,2864,0,2023-03-10T14:07:24.260327,6322438,1311,500,1307,-1015,-672,-278,122,144,-68
9545,2865,0,2023-03-10T14:07:24.264744,6322442,1311,500,1307,-1015,-672,-278,122,144,-68
9546,2866,0,2023-03-10T14:07:24.269804,6322447,1304,483,1299,-1033,-614,-253,118,140,-68
9547,2867,0,2023-03-10T14:07:24.275339,6322452,1304,483,1299,-1033,-614,-253,118,140,-68
9548,2868,0,2023-03-10T14:07:24.280050,6322457,1304,483,1299,-1033,-614,-253,118,140,-68
9549,2869,0,2023-03-10T14:07:24.284553,6322461,1304,483,1299,-1033,-614,-253,118,140,-68
9550,2870,0,2023-03-10T14:07:24.289584,6322466,1315,501,1303,-1011,-642,-288,118,140,-68
9551,2871,0,2023-03-10T14:07:24.294873,6322471,1315,501,1303,-1011,-642,-288,118,140,-68
9552,2872,0,2023-03-10T14:07:24.299424,6322477,1315,501,1303,-1011,-642,-288,118,140,-68
9553,2873,0,2023-03-10T14:07:24.304155,6322481,1315,501,1303,-1011,-642,-288,118,140,-68
9554,2874,0,2023-03-10T14:07:24.308752,6322486,1298,489,1297,-1028,-631,-254,118,140,-68
9555,2875,0,2023-03-10T14:07:24.314028,6322491,1298,489,1297,-1028,-631,-254,118,140,-68
9556,2876,0,2023-03-10T14:07:24.318615,6322496,1298,489,1297,-1028,-631,-254,118,140,-68
9557,2877,0,2023-03-10T14:07:24.323256,6322500,1298,489,1297,-1028,-631,-254,118,140,-68
9558,2878,0,2023-03-10T14:07:24.327843,6322505,1298,491,1297,-1010,-622,-266,118,140,-68
9559,2879,0,2023-03-10T14:07:24.332428,6322509,1298,491,1297,-1010,-622,-266,118,140,-68
9560,2880,0,2023-03-10T14:07:24.337024,6322514,1298,491,1297,-1010,-622,-266,118,140,-68
9561,2881,0,2023-03-10T14:07:24.341439,6322519,1298,491,1297,-1010,-622,-266,118,140,-68
9562,2882,0,2023-03-10T14:07:24.345930,6322523,1298,491,1297,-1010,-622,-266,118,140,-68
9563,2883,0,2023-03-10T14:07:24.350921,6322528,1314,491,1317,-1014,-633,-257,118,140,-68
9564,2884,0,2023-03-10T14:07:24.355803,6322532,1314,491,1317,-1014,-633,-257,118,140,-68
9565,2885,0,2023-03-10T14:07:24.360375,6322537,1314,491,1317,-1014,-633,-257,118,140,-68
9566,2886,0,2023-03-10T14:07:24.364808,6322542,1314,491,1317,-1014,-633,-257,118,140,-68
9567,2887,0,2023-03-10T14:07:24.369659,6322547,1312,504,1299,-1019,-638,-273,118,140,-68
9568,2888,0,2023-03-10T14:07:24.374498,6322551,1312,504,1299,-1019,-638,-273,118,140,-68
9569,2889,0,2023-03-10T14:07:24.379027,6322556,1312,504,1299,-1019,-638,-273,118,140,-68
9570,2890,0,2023-03-10T14:07:24.383388,6322561,1312,504,1299,-1019,-638,-273,118,140,-68
9571,2891,0,2023-03-10T14:07:24.387783,6322565,1310,493,1301,-1028,-654,-250,118,140,-68
9572,2892,0,2023-03-10T14:07:24.392677,6322570,1310,493,1301,-1028,-654,-250,124,142,-72
9573,2893,0,2023-03-10T14:07:24.397320,6322574,1310,493,1301,-1028,-654,-250,124,142,-72
9574,2894,0,2023-03-10T14:07:24.401730,6322579,1310,493,1301,-1028,-654,-250,124,142,-72
9575,2895,0,2023-03-10T14:07:24.406539,6322583,1310,493,1301,-1028,-654,-250,124,142,-72
9576,2896,0,2023-03-10T14:07:24.411670,6322588,1307,493,1300,-1019,-630,-269,124,142,-72
9577,2897,0,2023-03-10T14:07:24.416802,6322593,1307,493,1300,-1019,-630,-269,124,142,-72
9578,2898,0,2023-03-10T14:07:24.421527,6322598,1307,493,1300,-1019,-630,-269,124,142,-72
9579,2899,0,2023-03-10T14:07:24.426564,6322604,1307,493,1300,-1019,-630,-269,124,142,-72
9580,2900,0,2023-03-10T14:07:24.431499,6322609,1302,483,1298,-1021,-627,-256,124,142,-72
9581,2901,0,2023-03-10T14:07:24.436171,6322613,1302,483,1298,-1021,-627,-256,124,142,-72
9582,2902,0,2023-03-10T14:07:24.440716,6322618,1302,483,1298,-1021,-627,-256,124,142,-72
9583,2903,0,2023-03-10T14:07:24.445122,6322622,1302,483,1298,-1021,-627,-256,124,142,-72
9584,2904,0,2023-03-10T14:07:24.450037,6322627,1315,500,1309,-1015,-662,-278,124,142,-72
9585,2905,0,2023-03-10T14:07:24.454920,6322632,1315,500,1309,-1015,-662,-278,124,142,-72
9586,2906,0,2023-03-10T14:07:24.459372,6322636,1315,500,1309,-1015,-662,-278,124,142,-72
9587,2907,0,2023-03-10T14:07:24.463705,6322640,1315,500,1309,-1015,-662,-278,124,142,-72
9588,2908,0,2023-03-10T14:07:24.468140,6322646,1301,493,1298,-1032,-619,-249,124,142,-72
9589,2909,0,2023-03-10T14:07:24.473434,6322651,1301,493,1298,-1032,-619,-249,124,142,-72
9590,2910,0,2023-03-10T14:07:24.478027,6322655,1301,493,1298,-1032,-619,-249,124,142,-72
9591,2911,0,2023-03-10T14:07:24.482854,6322660,1301,493,1298,-1032,-619,-249,124,142,-72
9592,2912,0,2023-03-10T14:07:24.487204,6322664,1301,493,1298,-1032,-619,-249,124,142,-72
9593,2913,0,2023-03-10T14:07:24.492433,6322669,1313,503,1301,-1010,-651,-282,124,142,-72
9594,2914,0,2023-03-10T14:07:24.497538,6322674,1313,503,1301,-1010,-651,-282,124,142,-72
9595,2915,0,2023-03-10T14:07:24.502419,6322679,1313,503,1301,-1010,-651,-282,124,142,-72
9596,2916,0,2023-03-10T14:07:24.506887,6322683,1313,503,1301,-1010,-651,-282,124,142,-72
9597,2917,0,2023-03-10T14:07:24.512022,6322689,1316,486,1297,-1031,-640,-256,124,142,-72
9598,2918,0,2023-03-10T14:07:24.516908,6322694,1316,486,1297,-1031,-640,-256,124,142,-72
9599,2919,0,2023-03-10T14:07:24.521349,6322699,1316,486,1297,-1031,-640,-256,124,142,-72
9600,2920,0,2023-03-10T14:07:24.525882,6322703,1316,486,1297,-1031,-640,-256,124,142,-72
9601,2921,0,2023-03-10T14:07:24.530805,6322708,1294,493,1295,-1021,-627,-272,121,143,-77
9602,2922,0,2023-03-10T14:07:24.535279,6322712,1294,493,1295,-1021,-627,-272,121,143,-77
9603,2923,0,2023-03-10T14:07:24.539706,6322716,1294,493,1295,-1021,-627,-272,121,143,-77
9604,2924,0,2023-03-10T14:07:24.544129,6322721,1294,493,1295,-1021,-627,-272,121,143,-77
9605,2925,0,2023-03-10T14:07:24.548558,6322725,1310,489,1312,-1010,-639,-258,121,143,-77
9606,2926,0,2023-03-10T14:07:24.553822,6322731,1310,489,1312,-1010,-639,-258,121,143,-77
9607,2927,0,2023-03-10T14:07:24.558949,6322736,1310,489,1312,-1010,-639,-258,121,143,-77
9608,2928,0,2023-03-10T14:07:24.563741,6322741,1310,489,1312,-1010,-639,-258,121,143,-77
9609,2929,0,2023-03-10T14:07:24.568342,6322745,1318,497,1308,-1019,-638,-278,121,143,-77
9610,2930,0,2023-03-10T14:07:24.573657,6322751,1318,497,1308,-1019,-638,-278,121,143,-77
9611,2931,0,2023-03-10T14:07:24.578085,6322755,1318,497,1308,-1019,-638,-278,121,143,-77
9612,2932,0,2023-03-10T14:07:24.582724,6322760,1318,497,1308,-1019,-638,-278,121,143,-77
9613,2933,0,2023-03-10T14:07:24.587168,6322764,1318,497,1308,-1019,-638,-278,121,143,-77
9614,2934,0,2023-03-10T14:07:24.592110,6322768,1311,491,1299,-1015,-654,-259,121,143,-77
9615,2935,0,2023-03-10T14:07:24.597198,6322775,1311,491,1299,-1015,-654,-259,121,143,-77
9616,2936,0,2023-03-10T14:07:24.601734,6322779,1311,491,1299,-1015,-654,-259,121,143,-77
9617,2937,0,2023-03-10T14:07:24.606147,6322783,1311,491,1299,-1015,-654,-259,121,143,-77
9618,2938,0,2023-03-10T14:07:24.610999,6322788,1311,491,1299,-1015,-654,-259,121,143,-77
9619,2939,0,2023-03-10T14:07:24.615554,6322793,1311,491,1299,-1015,-654,-259,121,143,-77
9620,2940,0,2023-03-10T14:07:24.620005,6322797,1311,491,1299,-1015,-654,-259,121,143,-77
9621,2941,0,2023-03-10T14:07:24.624288,6322801,1311,491,1299,-1015,-654,-259,121,143,-77
9622,2942,0,2023-03-10T14:07:24.629115,6322806,1313,494,1299,-1024,-642,-274,121,143,-77
9623,2943,0,2023-03-10T14:07:24.633594,6322810,1313,494,1299,-1024,-642,-274,121,143,-77
9624,2944,0,2023-03-10T14:07:24.638405,6322816,1313,494,1299,-1024,-642,-274,121,143,-77
9625,2945,0,2023-03-10T14:07:24.642995,6322820,1313,494,1299,-1024,-642,-274,121,143,-77
9626,2946,0,2023-03-10T14:07:24.647407,6322825,1313,494,1299,-1024,-642,-274,121,143,-77
9627,2947,0,2023-03-10T14:07:24.652446,6322830,1297,489,1296,-1026,-626,-270,111,139,-67
9628,2948,0,2023-03-10T14:07:24.657460,6322834,1297,489,1296,-1026,-626,-270,111,139,-67
9629,2949,0,2023-03-10T14:07:24.662171,6322839,1297,489,1296,-1026,-626,-270,111,139,-67
9630,2950,0,2023-03-10T14:07:24.666554,6322843,1297,489,1296,-1026,-626,-270,111,139,-67
9631,2951,0,2023-03-10T14:07:24.671630,6322848,1320,490,1304,-1023,-638,-271,111,139,-67
9632,2952,0,2023-03-10T14:07:24.676855,6322853,1320,490,1304,-1023,-638,-271,111,139,-67
9633,2953,0,2023-03-10T14:07:24.681387,6322859,1320,490,1304,-1023,-638,-271,111,139,-67
9634,2954,0,2023-03-10T14:07:24.685749,6322863,1320,490,1304,-1023,-638,-271,111,139,-67
9635,2955,0,2023-03-10T14:07:24.690904,6322868,1327,504,1312,-1011,-642,-283,111,139,-67
9636,2956,0,2023-03-10T14:07:24.696769,6322874,1327,504,1312,-1011,-642,-283,111,139,-67
9637,2957,0,2023-03-10T14:07:24.701572,6322879,1327,504,1312,-1011,-642,-283,111,139,-67
9638,2958,0,2023-03-10T14:07:24.706008,6322883,1327,504,1312,-1011,-642,-283,111,139,-67
9639,2959,0,2023-03-10T14:07:24.711126,6322888,1302,491,1291,-1022,-636,-247,111,139,-67
9640,2960,0,2023-03-10T14:07:24.715749,6322892,1302,491,1291,-1022,-636,-247,111,139,-67
9641,2961,0,2023-03-10T14:07:24.720317,6322897,1302,491,1291,-1022,-636,-247,111,139,-67
9642,2962,0,2023-03-10T14:07:24.724795,6322902,1302,491,1291,-1022,-636,-247,111,139,-67
9643,2963,0,2023-03-10T14:07:24.729173,6322907,1312,495,1302,-1021,-616,-285,111,139,-67
9644,2964,0,2023-03-10T14:07:24.734147,6322911,1312,495,1302,-1021,-616,-285,111,139,-67
9645,2965,0,2023-03-10T14:07:24.738728,6322916,1312,495,1302,-1021,-616,-285,111,139,-67
9646,2966,0,2023-03-10T14:07:24.743127,6322920,1312,495,1302,-1021,-616,-285,111,139,-67
9647,2967,0,2023-03-10T14:07:24.747666,6322925,1312,495,1302,-1021,-616,-285,111,139,-67
9648,2968,0,2023-03-10T14:07:24.753197,6322930,1311,485,1295,-1026,-653,-248,111,139,-67
9649,2969,0,2023-03-10T14:07:24.758186,6322935,1311,485,1295,-1026,-653,-248,111,139,-67
9650,2970,0,2023-03-10T14:07:24.762509,6322939,1311,485,1295,-1026,-653,-248,111,139,-67
9651,2971,0,2023-03-10T14:07:24.766978,6322945,1311,485,1295,-1026,-653,-248,111,139,-67
9652,2972,0,2023-03-10T14:07:24.771445,6322949,1319,492,1306,-1013,-603,-281,111,139,-67
9653,2973,0,2023-03-10T14:07:24.776584,6322954,1319,492,1306,-1013,-603,-281,111,139,-67
9654,2974,0,2023-03-10T14:07:24.781490,6322958,1319,492,1306,-1013,-603,-281,111,139,-67
9655,2975,0,2023-03-10T14:07:24.785884,6322963,1319,492,1306,-1013,-603,-281,111,139,-67
9656,2976,0,2023-03-10T14:07:24.790740,6322968,1307,491,1294,-1020,-665,-252,125,145,-65
9657,2977,0,2023-03-10T14:07:24.795749,6322973,1307,491,1294,-1020,-665,-252,125,145,-65
9658,2978,0,2023-03-10T14:07:24.800103,6322977,1307,491,1294,-1020,-665,-252,125,145,-65
9659,2979,0,2023-03-10T14:07:24.804535,6322981,1307,491,1294,-1020,-665,-252,125,145,-65
9660,2980,0,2023-03-10T14:07:24.809297,6322987,1333,503,1306,-1017,-620,-284,125,145,-65
9661,2981,0,2023-03-10T14:07:24.813885,6322991,1333,503,1306,-1017,-620,-284,125,145,-65
9662,2982,0,2023-03-10T14:07:24.818633,6322996,1333,503,1306,-1017,-620,-284,125,145,-65
9663,2983,0,2023-03-10T14:07:24.823280,6323000,1333,503,1306,-1017,-620,-284,125,145,-65
9664,2984,0,2023-03-10T14:07:24.827653,6323005,1333,503,1306,-1017,-620,-284,125,145,-65
9665,2985,0,2023-03-10T14:07:24.833344,6323010,1333,503,1306,-1017,-620,-284,125,145,-65
9666,2986,0,2023-03-10T14:07:24.838033,6323014,1333,503,1306,-1017,-620,-284,125,145,-65
9667,2987,0,2023-03-10T14:07:24.842502,6323019,1333,503,1306,-1017,-620,-284,125,145,-65
9668,2988,0,2023-03-10T14:07:24.847103,6323023,1333,503,1306,-1017,-620,-284,125,145,-65
9669,2989,0,2023-03-10T14:07:24.852455,6323030,1315,492,1295,-1016,-654,-270,125,145,-65
9670,2990,0,2023-03-10T14:07:24.857395,6323034,1315,492,1295,-1016,-654,-270,125,145,-65
9671,2991,0,2023-03-10T14:07:24.862845,6323040,1315,492,1295,-1016,-654,-270,125,145,-65
9672,2992,0,2023-03-10T14:07:24.867142,6323044,1315,492,1295,-1016,-654,-270,125,145,-65
9673,2993,0,2023-03-10T14:07:24.872518,6323050,1324,489,1308,-1030,-624,-269,125,145,-65
9674,2994,0,2023-03-10T14:07:24.877304,6323054,1324,489,1308,-1030,-624,-269,125,145,-65
9675,2995,0,2023-03-10T14:07:24.881810,6323058,1324,489,1308,-1030,-624,-269,125,145,-65
9676,2996,0,2023-03-10T14:07:24.886494,6323063,1324,489,1308,-1030,-624,-269,125,145,-65
9677,2997,0,2023-03-10T14:07:24.891417,6323068,1307,489,1290,-1012,-656,-260,125,145,-65
9678,2998,0,2023-03-10T14:07:24.896499,6323074,1307,489,1290,-1012,-656,-260,125,145,-65
9679,2999,0,2023-03-10T14:07:24.900762,6323078,1307,489,1290,-1012,-656,-260,125,145,-65
9680,3000,0,2023-03-10T14:07:24.905242,6323083,1307,489,1290,-1012,-656,-260,125,145,-65
9681,3001,0,2023-03-10T14:07:24.910440,6323087,1335,500,1307,-1024,-622,-282,124,148,-70
9682,3002,0,2023-03-10T14:07:24.915303,6323092,1335,500,1307,-1024,-622,-282,124,148,-70
9683,3003,0,2023-03-10T14:07:24.919945,6323097,1335,500,1307,-1024,-622,-282,124,148,-70
9684,3004,0,2023-03-10T14:07:24.924588,6323101,1335,500,1307,-1024,-622,-282,124,148,-70
9685,3005,0,2023-03-10T14:07:24.929653,6323106,1305,485,1293,-1010,-637,-248,124,148,-70
9686,3006,0,2023-03-10T14:07:24.934536,6323111,1305,485,1293,-1010,-637,-248,124,148,-70
9687,3007,0,2023-03-10T14:07:24.939351,6323117,1305,485,1293,-1010,-637,-248,124,148,-70
9688,3008,0,2023-03-10T14:07:24.943745,6323121,1305,485,1293,-1010,-637,-248,124,148,-70
9689,3009,0,2023-03-10T14:07:24.948062,6323125,1305,485,1293,-1010,-637,-248,124,148,-70
9690,3010,0,2023-03-10T14:07:24.953316,6323131,1307,489,1291,-1037,-624,-266,124,148,-70
9691,3011,0,2023-03-10T14:07:24.958185,6323135,1307,489,1291,-1037,-624,-266,124,148,-70
9692,3012,0,2023-03-10T14:07:24.962671,6323139,1307,489,1291,-1037,-624,-266,124,148,-70
9693,3013,0,2023-03-10T14:07:24.967063,6323144,1307,489,1291,-1037,-624,-266,124,148,-70
9694,3014,0,2023-03-10T14:07:24.971619,6323148,1318,495,1310,-1014,-645,-258,124,148,-70
9695,3015,0,2023-03-10T14:07:24.976703,6323153,1318,495,1310,-1014,-645,-258,124,148,-70
9696,3016,0,2023-03-10T14:07:24.981337,6323159,1318,495,1310,-1014,-645,-258,124,148,-70
9697,3017,0,2023-03-10T14:07:24.985964,6323163,1318,495,1310,-1014,-645,-258,124,148,-70
9698,3018,0,2023-03-10T14:07:24.990892,6323168,1327,502,1299,-1023,-651,-270,124,148,-70
9699,3019,0,2023-03-10T14:07:24.996291,6323173,1327,502,1299,-1023,-651,-270,124,148,-70
9700,3020,0,2023-03-10T14:07:25.000893,6323178,1327,502,1299,-1023,-651,-270,124,148,-70
9701,3021,0,2023-03-10T14:07:25.005482,6323182,1327,502,1299,-1023,-651,-270,124,148,-70
9702,3022,0,2023-03-10T14:07:25.009834,6323187,1316,486,1293,-1019,-640,-239,124,148,-70
9703,3023,0,2023-03-10T14:07:25.015158,6323192,1316,486,1293,-1019,-640,-239,124,148,-70
9704,3024,0,2023-03-10T14:07:25.020259,6323197,1316,486,1293,-1019,-640,-239,124,148,-70
9705,3025,0,2023-03-10T14:07:25.024863,6323202,1316,486,1293,-1019,-640,-239,124,148,-70
9706,3026,0,2023-03-10T14:07:25.029908,6323207,1316,486,1293,-1019,-640,-239,120,146,-72
9707,3027,0,2023-03-10T14:07:25.034354,6323212,1316,486,1293,-1019,-640,-239,120,146,-72
9708,3028,0,2023-03-10T14:07:25.038973,6323216,1316,486,1293,-1019,-640,-239,120,146,-72
9709,3029,0,2023-03-10T14:07:25.043513,6323221,1316,486,1293,-1019,-640,-239,120,146,-72
9710,3030,0,2023-03-10T14:07:25.048016,6323225,1316,486,1293,-1019,-640,-239,120,146,-72
9711,3031,0,2023-03-10T14:07:25.053496,6323230,1308,485,1290,-1020,-654,-241,120,146,-72
9712,3032,0,2023-03-10T14:07:25.058281,6323235,1308,485,1290,-1020,-654,-241,120,146,-72
9713,3033,0,2023-03-10T14:07:25.062766,6323239,1308,485,1290,-1020,-654,-241,120,146,-72
9714,3034,0,2023-03-10T14:07:25.067104,6323245,1308,485,1290,-1020,-654,-241,120,146,-72
9715,3035,0,2023-03-10T14:07:25.071708,6323249,1325,498,1309,-1025,-609,-275,120,146,-72
9716,3036,0,2023-03-10T14:07:25.077150,6323254,1325,498,1309,-1025,-609,-275,120,146,-72
9717,3037,0,2023-03-10T14:07:25.081664,6323259,1325,498,1309,-1025,-609,-275,120,146,-72
9718,3038,0,2023-03-10T14:07:25.085999,6323263,1325,498,1309,-1025,-609,-275,120,146,-72
9719,3039,0,2023-03-10T14:07:25.090578,6323268,1308,489,1291,-1021,-648,-233,120,146,-72
9720,3040,0,2023-03-10T14:07:25.095271,6323272,1308,489,1291,-1021,-648,-233,120,146,-72
9721,3041,0,2023-03-10T14:07:25.100034,6323277,1308,489,1291,-1021,-648,-233,120,146,-72
9722,3042,0,2023-03-10T14:07:25.104299,6323281,1308,489,1291,-1021,-648,-233,120,146,-72
9723,3043,0,2023-03-10T14:07:25.108944,6323286,1335,501,1302,-1013,-641,-283,120,146,-72
9724,3044,0,2023-03-10T14:07:25.113729,6323291,1335,501,1302,-1013,-641,-283,120,146,-72
9725,3045,0,2023-03-10T14:07:25.118334,6323296,1335,501,1302,-1013,-641,-283,120,146,-72
9726,3046,0,2023-03-10T14:07:25.122623,6323300,1335,501,1302,-1013,-641,-283,120,146,-72
9727,3047,0,2023-03-10T14:07:25.127062,6323304,1335,501,1302,-1013,-641,-283,120,146,-72
9728,3048,0,2023-03-10T14:07:25.132164,6323309,1313,489,1284,-1032,-641,-249,120,146,-72
9729,3049,0,2023-03-10T14:07:25.137305,6323314,1313,489,1284,-1032,-641,-249,120,146,-72
9730,3050,0,2023-03-10T14:07:25.141935,6323319,1313,489,1284,-1032,-641,-249,120,146,-72
9731,3051,0,2023-03-10T14:07:25.146317,6323323,1313,489,1284,-1032,-641,-249,120,146,-72
9732,3052,0,2023-03-10T14:07:25.151412,6323329,1309,487,1297,-1017,-618,-264,120,146,-72
9733,3053,0,2023-03-10T14:07:25.156565,6323334,1309,487,1297,-1017,-618,-264,120,146,-72
9734,3054,0,2023-03-10T14:07:25.161164,6323338,1309,487,1297,-1017,-618,-264,120,146,-72
9735,3055,0,2023-03-10T14:07:25.165849,6323343,1309,487,1297,-1017,-618,-264,120,146,-72
9736,3056,0,2023-03-10T14:07:25.170392,6323347,1324,500,1292,-1031,-667,-280,119,145,-67
9737,3057,0,2023-03-10T14:07:25.175669,6323352,1324,500,1292,-1031,-667,-280,119,145,-67
9738,3058,0,2023-03-10T14:07:25.180008,6323357,1324,500,1292,-1031,-667,-280,119,145,-67
9739,3059,0,2023-03-10T14:07:25.184483,6323361,1324,500,1292,-1031,-667,-280,119,145,-67
9740,3060,0,2023-03-10T14:07:25.188938,6323365,1324,500,1292,-1031,-667,-280,119,145,-67
9741,3061,0,2023-03-10T14:07:25.193408,6323371,1321,489,1299,-1017,-612,-231,119,145,-67
9742,3062,0,2023-03-10T14:07:25.198376,6323376,1321,489,1299,-1017,-612,-231,119,145,-67
9743,3063,0,2023-03-10T14:07:25.203101,6323380,1321,489,1299,-1017,-612,-231,119,145,-67
9744,3064,0,2023-03-10T14:07:25.207477,6323385,1321,489,1299,-1017,-612,-231,119,145,-67
9745,3065,0,2023-03-10T14:07:25.212576,6323390,1320,494,1296,-1014,-643,-270,119,145,-67
9746,3066,0,2023-03-10T14:07:25.217575,6323394,1320,494,1296,-1014,-643,-270,119,145,-67
9747,3067,0,2023-03-10T14:07:25.222306,6323399,1320,494,1296,-1014,-643,-270,119,145,-67
9748,3068,0,2023-03-10T14:07:25.227543,6323403,1320,494,1296,-1014,-643,-270,119,145,-67
9749,3069,0,2023-03-10T14:07:25.232620,6323409,1338,502,1287,-1032,-649,-284,119,145,-67
9750,3070,0,2023-03-10T14:07:25.237125,6323415,1338,502,1287,-1032,-649,-284,119,145,-67
9751,3071,0,2023-03-10T14:07:25.241767,6323419,1338,502,1287,-1032,-649,-284,119,145,-67
9752,3072,0,2023-03-10T14:07:25.246642,6323424,1338,502,1287,-1032,-649,-284,119,145,-67
9753,3073,0,2023-03-10T14:07:25.251583,6323429,1310,492,1285,-1012,-630,-251,119,145,-67
9754,3074,0,2023-03-10T14:07:25.256627,6323434,1310,492,1285,-1012,-630,-251,119,145,-67
9755,3075,0,2023-03-10T14:07:25.261363,6323438,1310,492,1285,-1012,-630,-251,119,145,-67
9756,3076,0,2023-03-10T14:07:25.266088,6323443,1310,492,1285,-1012,-630,-251,119,145,-67
9757,3077,0,2023-03-10T14:07:25.270528,6323447,1334,498,1298,-1038,-634,-288,119,145,-67
9758,3078,0,2023-03-10T14:07:25.275897,6323452,1334,498,1298,-1038,-634,-288,119,145,-67
9759,3079,0,2023-03-10T14:07:25.280834,6323458,1334,498,1298,-1038,-634,-288,119,145,-67
9760,3080,0,2023-03-10T14:07:25.285740,6323463,1334,498,1298,-1038,-634,-288,119,145,-67
9761,3081,0,2023-03-10T14:07:25.290767,6323468,1298,485,1288,-1026,-654,-248,115,143,-75
9762,3082,0,2023-03-10T14:07:25.296393,6323473,1298,485,1288,-1026,-654,-248,115,143,-75
9763,3083,0,2023-03-10T14:07:25.301086,6323478,1298,485,1288,-1026,-654,-248,115,143,-75
9764,3084,0,2023-03-10T14:07:25.305644,6323482,1298,485,1288,-1026,-654,-248,115,143,-75
9765,3085,0,2023-03-10T14:07:25.310916,6323488,1340,504,1296,-1027,-620,-284,115,143,-75
9766,3086,0,2023-03-10T14:07:25.315897,6323493,1340,504,1296,-1027,-620,-284,115,143,-75
9767,3087,0,2023-03-10T14:07:25.320359,6323497,1340,504,1296,-1027,-620,-284,115,143,-75
9768,3088,0,2023-03-10T14:07:25.324704,6323502,1340,504,1296,-1027,-620,-284,115,143,-75
9769,3089,0,2023-03-10T14:07:25.329746,6323507,1321,496,1304,-1002,-652,-231,115,143,-75
9770,3090,0,2023-03-10T14:07:25.334798,6323512,1321,496,1304,-1002,-652,-231,115,143,-75
9771,3091,0,2023-03-10T14:07:25.339228,6323516,1321,496,1304,-1002,-652,-231,115,143,-75
9772,3092,0,2023-03-10T14:07:25.343604,6323521,1321,496,1304,-1002,-652,-231,115,143,-75
9773,3093,0,2023-03-10T14:07:25.348078,6323525,1321,496,1304,-1002,-652,-231,115,143,-75
9774,3094,0,2023-03-10T14:07:25.352621,6323529,1314,486,1289,-1024,-631,-253,115,143,-75
9775,3095,0,2023-03-10T14:07:25.357842,6323534,1314,486,1289,-1024,-631,-253,115,143,-75
9776,3096,0,2023-03-10T14:07:25.362349,6323539,1314,486,1289,-1024,-631,-253,115,143,-75
9777,3097,0,2023-03-10T14:07:25.367004,6323544,1314,486,1289,-1024,-631,-253,115,143,-75
9778,3098,0,2023-03-10T14:07:25.371479,6323549,1338,495,1300,-1024,-635,-292,115,143,-75
9779,3099,0,2023-03-10T14:07:25.376541,6323554,1338,495,1300,-1024,-635,-292,115,143,-75
9780,3100,0,2023-03-10T14:07:25.380750,6323558,1338,495,1300,-1024,-635,-292,115,143,-75
9781,3101,0,2023-03-10T14:07:25.385557,6323562,1338,495,1300,-1024,-635,-292,115,143,-75
9782,3102,0,2023-03-10T14:07:25.390529,6323568,1305,483,1292,-1018,-638,-260,115,143,-75
9783,3103,0,2023-03-10T14:07:25.395394,6323572,1305,483,1292,-1018,-638,-260,115,143,-75
9784,3104,0,2023-03-10T14:07:25.399753,6323576,1305,483,1292,-1018,-638,-260,115,143,-75
9785,3105,0,2023-03-10T14:07:25.404176,6323581,1305,483,1292,-1018,-638,-260,115,143,-75
9786,3106,0,2023-03-10T14:07:25.408668,6323586,1305,483,1292,-1018,-638,-260,115,143,-75
9787,3107,0,2023-03-10T14:07:25.413869,6323591,1338,502,1298,-1023,-620,-283,115,143,-75
9788,3108,0,2023-03-10T14:07:25.418791,6323596,1338,502,1298,-1023,-620,-283,115,143,-75
9789,3109,0,2023-03-10T14:07:25.423199,6323600,1338,502,1298,-1023,-620,-283,115,143,-75
9790,3110,0,2023-03-10T14:07:25.427593,6323605,1338,502,1298,-1023,-620,-283,115,143,-75
9791,3111,0,2023-03-10T14:07:25.432575,6323609,1321,493,1301,-1008,-650,-259,117,143,-71
9792,3112,0,2023-03-10T14:07:25.437680,6323614,1321,493,1301,-1008,-650,-259,117,143,-71
9793,3113,0,2023-03-10T14:07:25.442237,6323619,1321,493,1301,-1008,-650,-259,117,143,-71
9794,3114,0,2023-03-10T14:07:25.446667,6323623,1321,493,1301,-1008,-650,-259,117,143,-71
9795,3115,0,2023-03-10T14:07:25.451097,6323629,1312,488,1288,-1042,-622,-276,117,143,-71
9796,3116,0,2023-03-10T14:07:25.456332,6323634,1312,488,1288,-1042,-622,-276,117,143,-71
9797,3117,0,2023-03-10T14:07:25.460879,6323638,1312,488,1288,-1042,-622,-276,117,143,-71
9798,3118,0,2023-03-10T14:07:25.465324,6323642,1312,488,1288,-1042,-622,-276,117,143,-71
9799,3119,0,2023-03-10T14:07:25.469998,6323647,1339,494,1305,-1017,-646,-277,117,143,-71
9800,3120,0,2023-03-10T14:07:25.474369,6323651,1339,494,1305,-1017,-646,-277,117,143,-71
9801,3121,0,2023-03-10T14:07:25.478895,6323656,1339,494,1305,-1017,-646,-277,117,143,-71
9802,3122,0,2023-03-10T14:07:25.483444,6323660,1339,494,1305,-1017,-646,-277,117,143,-71
9803,3123,0,2023-03-10T14:07:25.487928,6323664,1339,494,1305,-1017,-646,-277,117,143,-71
9804,3124,0,2023-03-10T14:07:25.493554,6323671,1309,479,1285,-1031,-639,-250,117,143,-71
9805,3125,0,2023-03-10T14:07:25.498940,6323676,1309,479,1285,-1031,-639,-250,117,143,-71
9806,3126,0,2023-03-10T14:07:25.503594,6323681,1309,479,1285,-1031,-639,-250,117,143,-71
9807,3127,0,2023-03-10T14:07:25.508409,6323685,1309,479,1285,-1031,-639,-250,117,143,-71
9808,3128,0,2023-03-10T14:07:25.513453,6323691,1336,497,1293,-1016,-618,-264,117,143,-71
9809,3129,0,2023-03-10T14:07:25.518621,6323695,1336,497,1293,-1016,-618,-264,117,143,-71
9810,3130,0,2023-03-10T14:07:25.523282,6323700,1336,497,1293,-1016,-618,-264,117,143,-71
9811,3131,0,2023-03-10T14:07:25.527674,6323704,1336,497,1293,-1016,-618,-264,117,143,-71
9812,3132,0,2023-03-10T14:07:25.533262,6323710,1336,499,1298,-1000,-657,-269,117,143,-71
9813,3133,0,2023-03-10T14:07:25.538446,6323716,1336,499,1298,-1000,-657,-269,117,143,-71
9814,3134,0,2023-03-10T14:07:25.543080,6323720,1336,499,1298,-1000,-657,-269,117,143,-71
9815,3135,0,2023-03-10T14:07:25.547800,6323725,1336,499,1298,-1000,-657,-269,117,143,-71
9816,3136,0,2023-03-10T14:07:25.553280,6323730,1317,493,1282,-1035,-617,-259,123,141,-75
9817,3137,0,2023-03-10T14:07:25.558038,6323735,1317,493,1282,-1035,-617,-259,123,141,-75
9818,3138,0,2023-03-10T14:07:25.562575,6323739,1317,493,1282,-1035,-617,-259,123,141,-75
9819,3139,0,2023-03-10T14:07:25.567563,6323744,1317,493,1282,-1035,-617,-259,123,141,-75
9820,3140,0,2023-03-10T14:07:25.572939,6323749,1336,498,1309,-1004,-646,-269,123,141,-75
9821,3141,0,2023-03-10T14:07:25.578327,6323756,1336,498,1309,-1004,-646,-269,123,141,-75
9822,3142,0,2023-03-10T14:07:25.582508,6323760,1336,498,1309,-1004,-646,-269,123,141,-75
9823,3143,0,2023-03-10T14:07:25.587082,6323764,1336,498,1309,-1004,-646,-269,123,141,-75
9824,3144,0,2023-03-10T14:07:25.592068,6323769,1314,486,1280,-1039,-634,-258,123,141,-75
9825,3145,0,2023-03-10T14:07:25.597324,6323774,1314,486,1280,-1039,-634,-258,123,141,-75
9826,3146,0,2023-03-10T14:07:25.602153,6323779,1314,486,1280,-1039,-634,-258,123,141,-75
9827,3147,0,2023-03-10T14:07:25.606645,6323783,1314,486,1280,-1039,-634,-258,123,141,-75
9828,3148,0,2023-03-10T14:07:25.611585,6323788,1334,491,1289,-1024,-622,-261,123,141,-75
9829,3149,0,2023-03-10T14:07:25.616127,6323793,1334,491,1289,-1024,-622,-261,123,141,-75
9830,3150,0,2023-03-10T14:07:25.620770,6323798,1334,491,1289,-1024,-622,-261,123,141,-75
9831,3151,0,2023-03-10T14:07:25.625097,6323803,1334,491,1289,-1024,-622,-261,123,141,-75
9832,3152,0,2023-03-10T14:07:25.630216,6323807,1335,494,1300,-1009,-657,-272,123,141,-75
9833,3153,0,2023-03-10T14:07:25.635320,6323812,1335,494,1300,-1009,-657,-272,123,141,-75
9834,3154,0,2023-03-10T14:07:25.639623,6323817,1335,494,1300,-1009,-657,-272,123,141,-75
9835,3155,0,2023-03-10T14:07:25.643902,6323821,1335,494,1300,-1009,-657,-272,123,141,-75
9836,3156,0,2023-03-10T14:07:25.648267,6323825,1335,494,1300,-1009,-657,-272,123,141,-75
9837,3157,0,2023-03-10T14:07:25.653327,6323830,1315,492,1284,-1037,-612,-250,123,141,-75
9838,3158,0,2023-03-10T14:07:25.658074,6323835,1315,492,1284,-1037,-612,-250,123,141,-75
9839,3159,0,2023-03-10T14:07:25.662732,6323840,1315,492,1284,-1037,-612,-250,123,141,-75
9840,3160,0,2023-03-10T14:07:25.666996,6323844,1315,492,1284,-1037,-612,-250,123,141,-75
9841,3161,0,2023-03-10T14:07:25.671883,6323849,1337,497,1289,-1011,-633,-288,123,141,-75
9842,3162,0,2023-03-10T14:07:25.677703,6323855,1337,497,1289,-1011,-633,-288,123,141,-75
9843,3163,0,2023-03-10T14:07:25.682279,6323859,1337,497,1289,-1011,-633,-288,123,141,-75
9844,3164,0,2023-03-10T14:07:25.687194,6323864,1337,497,1289,-1011,-633,-288,123,141,-75
9845,3165,0,2023-03-10T14:07:25.692044,6323869,1319,490,1286,-1029,-629,-266,130,142,-70
9846,3166,0,2023-03-10T14:07:25.698005,6323874,1319,490,1286,-1029,-629,-266,130,142,-70
9847,3167,0,2023-03-10T14:07:25.702539,6323879,1319,490,1286,-1029,-629,-266,130,142,-70
9848,3168,0,2023-03-10T14:07:25.707023,6323884,1319,490,1286,-1029,-629,-266,130,142,-70
9849,3169,0,2023-03-10T14:07:25.711344,6323889,1315,493,1298,-1004,-636,-249,130,142,-70
9850,3170,0,2023-03-10T14:07:25.716456,6323894,1315,493,1298,-1004,-636,-249,130,142,-70
9851,3171,0,2023-03-10T14:07:25.720823,6323898,1315,493,1298,-1004,-636,-249,130,142,-70
9852,3172,0,2023-03-10T14:07:25.725310,6323902,1315,493,1298,-1004,-636,-249,130,142,-70
9853,3173,0,2023-03-10T14:07:25.730520,6323907,1344,499,1300,-1029,-647,-280,130,142,-70
9854,3174,0,2023-03-10T14:07:25.735571,6323912,1344,499,1300,-1029,-647,-280,130,142,-70
9855,3175,0,2023-03-10T14:07:25.740198,6323917,1344,499,1300,-1029,-647,-280,130,142,-70
9856,3176,0,2023-03-10T14:07:25.744890,6323921,1344,499,1300,-1029,-647,-280,130,142,-70
9857,3177,0,2023-03-10T14:07:25.749594,6323927,1344,499,1300,-1029,-647,-280,130,142,-70
9858,3178,0,2023-03-10T14:07:25.754398,6323932,1326,489,1279,-1022,-649,-255,130,142,-70
9859,3179,0,2023-03-10T14:07:25.759990,6323937,1326,489,1279,-1022,-649,-255,130,142,-70
9860,3180,0,2023-03-10T14:07:25.764876,6323942,1326,489,1279,-1022,-649,-255,130,142,-70
9861,3181,0,2023-03-10T14:07:25.769923,6323947,1325,491,1284,-1017,-630,-268,130,142,-70
9862,3182,0,2023-03-10T14:07:25.774583,6323951,1325,491,1284,-1017,-630,-268,130,142,-70
9863,3183,0,2023-03-10T14:07:25.779004,6323956,1325,491,1284,-1017,-630,-268,130,142,-70
9864,3184,0,2023-03-10T14:07:25.783364,6323960,1325,491,1284,-1017,-630,-268,130,142,-70
9865,3185,0,2023-03-10T14:07:25.787831,6323964,1325,491,1284,-1017,-630,-268,130,142,-70
9866,3186,0,2023-03-10T14:07:25.792966,6323970,1322,493,1288,-1020,-633,-265,130,142,-70
9867,3187,0,2023-03-10T14:07:25.798263,6323975,1322,493,1288,-1020,-633,-265,130,142,-70
9868,3188,0,2023-03-10T14:07:25.802778,6323980,1322,493,1288,-1020,-633,-265,130,142,-70
9869,3189,0,2023-03-10T14:07:25.807045,6323984,1322,493,1288,-1020,-633,-265,130,142,-70
9870,3190,0,2023-03-10T14:07:25.812049,6323989,1322,494,1300,-1015,-623,-272,126,144,-72
9871,3191,0,2023-03-10T14:07:25.817202,6323994,1322,494,1300,-1015,-623,-272,126,144,-72
9872,3192,0,2023-03-10T14:07:25.821879,6323999,1322,494,1300,-1015,-623,-272,126,144,-72
9873,3193,0,2023-03-10T14:07:25.826305,6324003,1322,494,1300,-1015,-623,-272,126,144,-72
9874,3194,0,2023-03-10T14:07:25.830721,6324007,1334,498,1290,-1014,-648,-275,126,144,-72
9875,3195,0,2023-03-10T14:07:25.835738,6324013,1334,498,1290,-1014,-648,-275,126,144,-72
9876,3196,0,2023-03-10T14:07:25.840196,6324018,1334,498,1290,-1014,-648,-275,126,144,-72
9877,3197,0,2023-03-10T14:07:25.844755,6324022,1334,498,1290,-1014,-648,-275,126,144,-72
9878,3198,0,2023-03-10T14:07:25.849479,6324026,1334,498,1290,-1014,-648,-275,126,144,-72
9879,3199,0,2023-03-10T14:07:25.854845,6324032,1329,491,1286,-1017,-636,-270,126,144,-72
9880,3200,0,2023-03-10T14:07:25.860321,6324037,1329,491,1286,-1017,-636,-270,126,144,-72
9881,3201,0,2023-03-10T14:07:25.865206,6324042,1329,491,1286,-1017,-636,-270,126,144,-72
9882,3202,0,2023-03-10T14:07:25.870336,6324047,1339,497,1285,-1025,-644,-266,126,144,-72
9883,3203,0,2023-03-10T14:07:25.876127,6324052,1339,497,1285,-1025,-644,-266,126,144,-72
9884,3204,0,2023-03-10T14:07:25.880877,6324058,1339,497,1285,-1025,-644,-266,126,144,-72
9885,3205,0,2023-03-10T14:07:25.886184,6324063,1339,497,1285,-1025,-644,-266,126,144,-72
9886,3206,0,2023-03-10T14:07:25.891242,6324068,1314,490,1282,-1004,-648,-239,126,144,-72
9887,3207,0,2023-03-10T14:07:25.895365,6324072,1314,490,1282,-1004,-648,-239,126,144,-72
9888,3208,0,2023-03-10T14:07:25.899987,6324077,1314,490,1282,-1004,-648,-239,126,144,-72
9889,3209,0,2023-03-10T14:07:25.904583,6324081,1314,490,1282,-1004,-648,-239,126,144,-72
9890,3210,0,2023-03-10T14:07:25.909137,6324086,1314,490,1282,-1004,-648,-239,126,144,-72
9891,3211,0,2023-03-10T14:07:25.914714,6324091,1339,494,1297,-1023,-621,-282,126,144,-72
9892,3212,0,2023-03-10T14:07:25.920226,6324097,1339,494,1297,-1023,-621,-282,126,144,-72
9893,3213,0,2023-03-10T14:07:25.924819,6324102,1339,494,1297,-1023,-621,-282,126,144,-72
9894,3214,0,2023-03-10T14:07:25.929706,6324107,1339,494,1297,-1023,-621,-282,126,144,-72
9895,3215,0,2023-03-10T14:07:25.934492,6324112,1325,490,1278,-1008,-652,-249,114,132,-72
9896,3216,0,2023-03-10T14:07:25.939943,6324117,1325,490,1278,-1008,-652,-249,114,132,-72
9897,3217,0,2023-03-10T14:07:25.944486,6324121,1325,490,1278,-1008,-652,-249,114,132,-72
9898,3218,0,2023-03-10T14:07:25.948836,6324126,1325,490,1278,-1008,-652,-249,114,132,-72
9899,3219,0,2023-03-10T14:07:25.954613,6324131,1348,500,1287,-1018,-629,-283,114,132,-72
9900,3220,0,2023-03-10T14:07:25.960019,6324136,1348,500,1287,-1018,-629,-283,114,132,-72
9901,3221,0,2023-03-10T14:07:25.964503,6324142,1348,500,1287,-1018,-629,-283,114,132,-72
9902,3222,0,2023-03-10T14:07:25.968906,6324146,1348,500,1287,-1018,-629,-283,114,132,-72
9903,3223,0,2023-03-10T14:07:25.973378,6324151,1328,488,1282,-1021,-641,-250,114,132,-72
9904,3224,0,2023-03-10T14:07:25.978429,6324156,1328,488,1282,-1021,-641,-250,114,132,-72
9905,3225,0,2023-03-10T14:07:25.982890,6324160,1328,488,1282,-1021,-641,-250,114,132,-72
9906,3226,0,2023-03-10T14:07:25.987168,6324164,1328,488,1282,-1021,-641,-250,114,132,-72
9907,3227,0,2023-03-10T14:07:25.992217,6324169,1324,495,1279,-1031,-629,-272,114,132,-72
9908,3228,0,2023-03-10T14:07:25.997346,6324174,1324,495,1279,-1031,-629,-272,114,132,-72
9909,3229,0,2023-03-10T14:07:26.001789,6324178,1324,495,1279,-1031,-629,-272,114,132,-72
9910,3230,0,2023-03-10T14:07:26.006196,6324184,1324,495,1279,-1031,-629,-272,114,132,-72
9911,3231,0,2023-03-10T14:07:26.011435,6324189,1326,482,1299,-1015,-635,-253,114,132,-72
9912,3232,0,2023-03-10T14:07:26.017231,6324194,1326,482,1299,-1015,-635,-253,114,132,-72
9913,3233,0,2023-03-10T14:07:26.022049,6324199,1326,482,1299,-1015,-635,-253,114,132,-72
9914,3234,0,2023-03-10T14:07:26.026536,6324204,1326,482,1299,-1015,-635,-253,114,132,-72
9915,3235,0,2023-03-10T14:07:26.031544,6324208,1334,489,1284,-1006,-652,-274,114,132,-72
9916,3236,0,2023-03-10T14:07:26.036726,6324213,1334,489,1284,-1006,-652,-274,114,132,-72
9917,3237,0,2023-03-10T14:07:26.041309,6324218,1334,489,1284,-1006,-652,-274,114,132,-72
9918,3238,0,2023-03-10T14:07:26.046205,6324224,1334,489,1284,-1006,-652,-274,114,132,-72
9919,3239,0,2023-03-10T14:07:26.051012,6324228,1329,484,1286,-1023,-614,-252,114,132,-72
9920,3240,0,2023-03-10T14:07:26.055769,6324233,1329,484,1286,-1023,-614,-252,114,132,-72
9921,3241,0,2023-03-10T14:07:26.060194,6324237,1329,484,1286,-1023,-614,-252,114,132,-72
9922,3242,0,2023-03-10T14:07:26.064746,6324242,1329,484,1286,-1023,-614,-252,114,132,-72
9923,3243,0,2023-03-10T14:07:26.069131,6324246,1329,484,1286,-1023,-614,-252,114,132,-72
9924,3244,0,2023-03-10T14:07:26.073825,6324251,1338,498,1288,-995,-655,-270,125,137,-77
9925,3245,0,2023-03-10T14:07:26.078893,6324256,1338,498,1288,-995,-655,-270,125,137,-77
9926,3246,0,2023-03-10T14:07:26.083627,6324260,1338,498,1288,-995,-655,-270,125,137,-77
9927,3247,0,2023-03-10T14:07:26.088170,6324265,1338,498,1288,-995,-655,-270,125,137,-77
9928,3248,0,2023-03-10T14:07:26.093819,6324271,1333,487,1284,-1017,-620,-250,125,137,-77
9929,3249,0,2023-03-10T14:07:26.099154,6324276,1333,487,1284,-1017,-620,-250,125,137,-77
9930,3250,0,2023-03-10T14:07:26.103559,6324281,1333,487,1284,-1017,-620,-250,125,137,-77
9931,3251,0,2023-03-10T14:07:26.108167,6324285,1333,487,1284,-1017,-620,-250,125,137,-77
9932,3252,0,2023-03-10T14:07:26.113183,6324290,1320,484,1282,-1028,-620,-268,125,137,-77
9933,3253,0,2023-03-10T14:07:26.118381,6324295,1320,484,1282,-1028,-620,-268,125,137,-77
9934,3254,0,2023-03-10T14:07:26.122897,6324300,1320,484,1282,-1028,-620,-268,125,137,-77
9935,3255,0,2023-03-10T14:07:26.127193,6324304,1320,484,1282,-1028,-620,-268,125,137,-77
9936,3256,0,2023-03-10T14:07:26.132209,6324310,1339,486,1294,-1021,-675,-260,125,137,-77
9937,3257,0,2023-03-10T14:07:26.137462,6324315,1339,486,1294,-1021,-675,-260,125,137,-77
9938,3258,0,2023-03-10T14:07:26.141886,6324319,1339,486,1294,-1021,-675,-260,125,137,-77
9939,3259,0,2023-03-10T14:07:26.146761,6324324,1339,486,1294,-1021,-675,-260,125,137,-77
9940,3260,0,2023-03-10T14:07:26.151086,6324328,1332,496,1292,-1013,-613,-266,125,137,-77
9941,3261,0,2023-03-10T14:07:26.156557,6324333,1332,496,1292,-1013,-613,-266,125,137,-77
9942,3262,0,2023-03-10T14:07:26.160827,6324338,1332,496,1292,-1013,-613,-266,125,137,-77
9943,3263,0,2023-03-10T14:07:26.165384,6324342,1332,496,1292,-1013,-613,-266,125,137,-77
9944,3264,0,2023-03-10T14:07:26.170448,6324347,1337,488,1282,-1016,-667,-257,125,137,-77
9945,3265,0,2023-03-10T14:07:26.175414,6324353,1337,488,1282,-1016,-667,-257,125,137,-77
9946,3266,0,2023-03-10T14:07:26.180398,6324358,1337,488,1282,-1016,-667,-257,125,137,-77
9947,3267,0,2023-03-10T14:07:26.184820,6324362,1337,488,1282,-1016,-667,-257,125,137,-77
9948,3268,0,2023-03-10T14:07:26.189404,6324366,1337,488,1282,-1016,-667,-257,125,137,-77
9949,3269,0,2023-03-10T14:07:26.193613,6324371,1346,498,1295,-1020,-620,-260,116,144,-66
9950,3270,0,2023-03-10T14:07:26.198514,6324375,1346,498,1295,-1020,-620,-260,116,144,-66
9951,3271,0,2023-03-10T14:07:26.203241,6324380,1346,498,1295,-1020,-620,-260,116,144,-66
9952,3272,0,2023-03-10T14:07:26.207831,6324385,1346,498,1295,-1020,-620,-260,116,144,-66
9953,3273,0,2023-03-10T14:07:26.213032,6324390,1325,485,1280,-1027,-619,-252,116,144,-66
9954,3274,0,2023-03-10T14:07:26.218248,6324396,1325,485,1280,-1027,-619,-252,116,144,-66
9955,3275,0,2023-03-10T14:07:26.222914,6324400,1325,485,1280,-1027,-619,-252,116,144,-66
9956,3276,0,2023-03-10T14:07:26.227335,6324405,1325,485,1280,-1027,-619,-252,116,144,-66
9957,3277,0,2023-03-10T14:07:26.231964,6324409,1335,495,1288,-1003,-657,-277,116,144,-66
9958,3278,0,2023-03-10T14:07:26.237391,6324415,1335,495,1288,-1003,-657,-277,116,144,-66
9959,3279,0,2023-03-10T14:07:26.241844,6324419,1335,495,1288,-1003,-657,-277,116,144,-66
9960,3280,0,2023-03-10T14:07:26.246151,6324423,1335,495,1288,-1003,-657,-277,116,144,-66
9961,3281,0,2023-03-10T14:07:26.251313,6324428,1339,494,1296,-1025,-618,-262,116,144,-66
9962,3282,0,2023-03-10T14:07:26.256363,6324433,1339,494,1296,-1025,-618,-262,116,144,-66
9963,3283,0,2023-03-10T14:07:26.260724,6324438,1339,494,1296,-1025,-618,-262,116,144,-66
9964,3284,0,2023-03-10T14:07:26.265605,6324443,1339,494,1296,-1025,-618,-262,116,144,-66
9965,3285,0,2023-03-10T14:07:26.270405,6324448,1331,496,1277,-1015,-663,-274,116,144,-66
9966,3286,0,2023-03-10T14:07:26.275249,6324452,1331,496,1277,-1015,-663,-274,116,144,-66
9967,3287,0,2023-03-10T14:07:26.279629,6324457,1331,496,1277,-1015,-663,-274,116,144,-66
9968,3288,0,2023-03-10T14:07:26.284411,6324461,1331,496,1277,-1015,-663,-274,116,144,-66
9969,3289,0,2023-03-10T14:07:26.288916,6324466,1331,496,1277,-1015,-663,-274,116,144,-66
9970,3290,0,2023-03-10T14:07:26.295074,6324471,1350,490,1284,-1012,-625,-255,116,144,-66
9971,3291,0,2023-03-10T14:07:26.299465,6324476,1350,490,1284,-1012,-625,-255,116,144,-66
9972,3292,0,2023-03-10T14:07:26.304389,6324482,1350,490,1284,-1012,-625,-255,116,144,-66
9973,3293,0,2023-03-10T14:07:26.309358,6324487,1350,490,1284,-1012,-625,-255,116,144,-66
9974,3294,0,2023-03-10T14:07:26.314795,6324492,1313,481,1283,-1001,-631,-230,116,144,-66
9975,3295,0,2023-03-10T14:07:26.319831,6324497,1313,481,1283,-1001,-631,-230,116,144,-66
9976,3296,0,2023-03-10T14:07:26.324200,6324501,1313,481,1283,-1001,-631,-230,116,144,-66
9977,3297,0,2023-03-10T14:07:26.328636,6324506,1313,481,1283,-1001,-631,-230,116,144,-66
9978,3298,0,2023-03-10T14:07:26.333421,6324510,1341,493,1282,-1027,-664,-285,116,142,-78
9979,3299,0,2023-03-10T14:07:26.338363,6324515,1341,493,1282,-1027,-664,-285,116,142,-78
9980,3300,0,2023-03-10T14:07:26.342890,6324519,1341,493,1282,-1027,-664,-285,116,142,-78
9981,3301,0,2023-03-10T14:07:26.347495,6324525,1341,493,1282,-1027,-664,-285,116,142,-78
9982,3302,0,2023-03-10T14:07:26.352487,6324530,1347,491,1290,-1023,-622,-263,116,142,-78
9983,3303,0,2023-03-10T14:07:26.357523,6324535,1347,491,1290,-1023,-622,-263,116,142,-78
9984,3304,0,2023-03-10T14:07:26.362105,6324539,1347,491,1290,-1023,-622,-263,116,142,-78
9985,3305,0,2023-03-10T14:07:26.366468,6324544,1347,491,1290,-1023,-622,-263,116,142,-78
9986,3306,0,2023-03-10T14:07:26.370919,6324548,1329,494,1273,-1019,-654,-276,116,142,-78
9987,3307,0,2023-03-10T14:07:26.375842,6324553,1329,494,1273,-1019,-654,-276,116,142,-78
9988,3308,0,2023-03-10T14:07:26.380299,6324557,1329,494,1273,-1019,-654,-276,116,142,-78
9989,3309,0,2023-03-10T14:07:26.384762,6324561,1329,494,1273,-1019,-654,-276,116,142,-78
9990,3310,0,2023-03-10T14:07:26.389220,6324567,1329,494,1273,-1019,-654,-276,116,142,-78
9991,3311,0,2023-03-10T14:07:26.394468,6324572,1349,493,1289,-1022,-621,-256,116,142,-78
9992,3312,0,2023-03-10T14:07:26.399414,6324577,1349,493,1289,-1022,-621,-256,116,142,-78
9993,3313,0,2023-03-10T14:07:26.404170,6324581,1349,493,1289,-1022,-621,-256,116,142,-78
9994,3314,0,2023-03-10T14:07:26.408532,6324586,1349,493,1289,-1022,-621,-256,116,142,-78
9995,3315,0,2023-03-10T14:07:26.413654,6324590,1311,482,1284,-1008,-619,-241,116,142,-78
9996,3316,0,2023-03-10T14:07:26.418631,6324596,1311,482,1284,-1008,-619,-241,116,142,-78
9997,3317,0,2023-03-10T14:07:26.423171,6324600,1311,482,1284,-1008,-619,-241,116,142,-78
9998,3318,0,2023-03-10T14:07:26.427635,6324604,1311,482,1284,-1008,-619,-241,116,142,-78
9999,3319,0,2023-03-10T14:07:26.432091,6324610,1343,490,1278,-1034,-658,-283,116,142,-78
10000,3320,0,2023-03-10T14:07:26.437421,6324615,1343,490,1278,-1034,-658,-283,116,142,-78
10001,3321,0,2023-03-10T14:07:26.441790,6324619,1343,490,1278,-1034,-658,-283,116,142,-78
10002,3322,0,2023-03-10T14:07:26.446210,6324623,1343,490,1278,-1034,-658,-283,116,142,-78
10003,3323,0,2023-03-10T14:07:26.451404,6324628,1345,489,1291,-1022,-630,-273,120,138,-76
10004,3324,0,2023-03-10T14:07:26.456269,6324633,1345,489,1291,-1022,-630,-273,120,138,-76
10005,3325,0,2023-03-10T14:07:26.460707,6324638,1345,489,1291,-1022,-630,-273,120,138,-76
10006,3326,0,2023-03-10T14:07:26.465173,6324642,1345,489,1291,-1022,-630,-273,120,138,-76
10007,3327,0,2023-03-10T14:07:26.470140,6324647,1345,489,1291,-1022,-630,-273,120,138,-76
10008,3328,0,2023-03-10T14:07:26.474537,6324652,1334,493,1268,-1022,-661,-267,120,138,-76
10009,3329,0,2023-03-10T14:07:26.479138,6324656,1334,493,1268,-1022,-661,-267,120,138,-76
10010,3330,0,2023-03-10T14:07:26.483795,6324661,1334,493,1268,-1022,-661,-267,120,138,-76
10011,3331,0,2023-03-10T14:07:26.488257,6324665,1334,493,1268,-1022,-661,-267,120,138,-76
10012,3332,0,2023-03-10T14:07:26.493081,6324670,1353,499,1291,-1008,-625,-257,120,138,-76
10013,3333,0,2023-03-10T14:07:26.498257,6324675,1353,499,1291,-1008,-625,-257,120,138,-76
10014,3334,0,2023-03-10T14:07:26.502771,6324680,1353,499,1291,-1008,-625,-257,120,138,-76
10015,3335,0,2023-03-10T14:07:26.507331,6324684,1353,499,1291,-1008,-625,-257,120,138,-76
10016,3336,0,2023-03-10T14:07:26.512171,6324689,1321,484,1283,-1023,-630,-246,120,138,-76
10017,3337,0,2023-03-10T14:07:26.517397,6324695,1321,484,1283,-1023,-630,-246,120,138,-76
10018,3338,0,2023-03-10T14:07:26.521885,6324699,1321,484,1283,-1023,-630,-246,120,138,-76
10019,3339,0,2023-03-10T14:07:26.526710,6324704,1321,484,1283,-1023,-630,-246,120,138,-76
10020,3340,0,2023-03-10T14:07:26.531522,6324709,1344,489,1276,-1041,-659,-288,120,138,-76
10021,3341,0,2023-03-10T14:07:26.536349,6324713,1344,489,1276,-1041,-659,-288,120,138,-76
10022,3342,0,2023-03-10T14:07:26.541036,6324718,1344,489,1276,-1041,-659,-288,120,138,-76
10023,3343,0,2023-03-10T14:07:26.545573,6324722,1344,489,1276,-1041,-659,-288,120,138,-76
10024,3344,0,2023-03-10T14:07:26.550043,6324727,1344,489,1276,-1041,-659,-288,120,138,-76
10025,3345,0,2023-03-10T14:07:26.554379,6324731,1343,490,1292,-1019,-617,-268,120,138,-76
10026,3346,0,2023-03-10T14:07:26.559359,6324737,1343,490,1292,-1019,-617,-268,120,138,-76
10027,3347,0,2023-03-10T14:07:26.563867,6324741,1343,490,1292,-1019,-617,-268,120,138,-76
10028,3348,0,2023-03-10T14:07:26.568140,6324746,1343,490,1292,-1019,-617,-268,120,138,-76
10029,3349,0,2023-03-10T14:07:26.573157,6324750,1332,490,1276,-1019,-644,-277,120,138,-76
10030,3350,0,2023-03-10T14:07:26.577996,6324755,1332,490,1276,-1019,-644,-277,120,138,-76
10031,3351,0,2023-03-10T14:07:26.582380,6324759,1332,490,1276,-1019,-644,-277,120,138,-76
10032,3352,0,2023-03-10T14:07:26.586810,6324764,1332,490,1276,-1019,-644,-277,120,138,-76
10033,3353,0,2023-03-10T14:07:26.591396,6324768,1358,493,1294,-1017,-643,-271,124,144,-74
10034,3354,0,2023-03-10T14:07:26.596158,6324773,1358,493,1294,-1017,-643,-271,124,144,-74
10035,3355,0,2023-03-10T14:07:26.600864,6324777,1358,493,1294,-1017,-643,-271,124,144,-74
10036,3356,0,2023-03-10T14:07:26.605674,6324783,1358,493,1294,-1017,-643,-271,124,144,-74
10037,3357,0,2023-03-10T14:07:26.610380,6324788,1358,493,1294,-1017,-643,-271,124,144,-74
10038,3358,0,2023-03-10T14:07:26.615545,6324793,1333,493,1275,-1022,-633,-261,124,144,-74
10039,3359,0,2023-03-10T14:07:26.620435,6324798,1333,493,1275,-1022,-633,-261,124,144,-74
10040,3360,0,2023-03-10T14:07:26.625107,6324802,1333,493,1275,-1022,-633,-261,124,144,-74
10041,3361,0,2023-03-10T14:07:26.629659,6324807,1333,493,1275,-1022,-633,-261,124,144,-74
10042,3362,0,2023-03-10T14:07:26.634132,6324811,1338,486,1279,-1023,-619,-242,124,144,-74
10043,3363,0,2023-03-10T14:07:26.639361,6324816,1338,486,1279,-1023,-619,-242,124,144,-74
10044,3364,0,2023-03-10T14:07:26.643775,6324820,1338,486,1279,-1023,-619,-242,124,144,-74
10045,3365,0,2023-03-10T14:07:26.648203,6324826,1338,486,1279,-1023,-619,-242,124,144,-74
10046,3366,0,2023-03-10T14:07:26.652664,6324830,1335,493,1292,-998,-667,-259,124,144,-74
10047,3367,0,2023-03-10T14:07:26.657443,6324835,1335,493,1292,-998,-667,-259,124,144,-74
10048,3368,0,2023-03-10T14:07:26.661858,6324839,1335,493,1292,-998,-667,-259,124,144,-74
10049,3369,0,2023-03-10T14:07:26.666448,6324843,1335,493,1292,-998,-667,-259,124,144,-74
10050,3370,0,2023-03-10T14:07:26.671049,6324848,1351,496,1273,-1046,-619,-275,124,144,-74
10051,3371,0,2023-03-10T14:07:26.676528,6324853,1351,496,1273,-1046,-619,-275,124,144,-74
10052,3372,0,2023-03-10T14:07:26.681259,6324858,1351,496,1273,-1046,-619,-275,124,144,-74
10053,3373,0,2023-03-10T14:07:26.685828,6324862,1351,496,1273,-1046,-619,-275,124,144,-74
10054,3374,0,2023-03-10T14:07:26.690406,6324868,1351,496,1273,-1046,-619,-275,124,144,-74
10055,3375,0,2023-03-10T14:07:26.695088,6324872,1343,486,1279,-991,-647,-225,124,144,-74
10056,3376,0,2023-03-10T14:07:26.699993,6324877,1343,486,1279,-991,-647,-225,124,144,-74
10057,3377,0,2023-03-10T14:07:26.704396,6324882,1343,486,1279,-991,-647,-225,124,144,-74
10058,3378,0,2023-03-10T14:07:26.708765,6324886,1343,486,1279,-991,-647,-225,124,144,-74
10059,3379,0,2023-03-10T14:07:26.713350,6324890,1349,487,1290,-995,-637,-242,116,144,-72
10060,3380,0,2023-03-10T14:07:26.718201,6324895,1349,487,1290,-995,-637,-242,116,144,-72
10061,3381,0,2023-03-10T14:07:26.722708,6324899,1349,487,1290,-995,-637,-242,116,144,-72
10062,3382,0,2023-03-10T14:07:26.727451,6324904,1349,487,1290,-995,-637,-242,116,144,-72
10063,3383,0,2023-03-10T14:07:26.732345,6324910,1336,492,1268,-1034,-639,-281,116,144,-72
10064,3384,0,2023-03-10T14:07:26.737192,6324915,1336,492,1268,-1034,-639,-281,116,144,-72
10065,3385,0,2023-03-10T14:07:26.741984,6324919,1336,492,1268,-1034,-639,-281,116,144,-72
10066,3386,0,2023-03-10T14:07:26.746329,6324923,1336,492,1268,-1034,-639,-281,116,144,-72
10067,3387,0,2023-03-10T14:07:26.751248,6324928,1359,493,1274,-1030,-628,-284,116,144,-72
10068,3388,0,2023-03-10T14:07:26.756063,6324933,1359,493,1274,-1030,-628,-284,116,144,-72
10069,3389,0,2023-03-10T14:07:26.760670,6324937,1359,493,1274,-1030,-628,-284,116,144,-72
10070,3390,0,2023-03-10T14:07:26.765307,6324942,1359,493,1274,-1030,-628,-284,116,144,-72
10071,3391,0,2023-03-10T14:07:26.769645,6324946,1359,493,1274,-1030,-628,-284,116,144,-72
10072,3392,0,2023-03-10T14:07:26.774170,6324952,1327,485,1280,-990,-644,-217,116,144,-72
10073,3393,0,2023-03-10T14:07:26.779145,6324957,1327,485,1280,-990,-644,-217,116,144,-72
10074,3394,0,2023-03-10T14:07:26.783648,6324961,1327,485,1280,-990,-644,-217,116,144,-72
10075,3395,0,2023-03-10T14:07:26.788022,6324965,1327,485,1280,-990,-644,-217,116,144,-72
10076,3396,0,2023-03-10T14:07:26.793022,6324970,1356,500,1284,-1022,-631,-283,116,144,-72
10077,3397,0,2023-03-10T14:07:26.798507,6324976,1356,500,1284,-1022,-631,-283,116,144,-72
10078,3398,0,2023-03-10T14:07:26.803287,6324980,1356,500,1284,-1022,-631,-283,116,144,-72
10079,3399,0,2023-03-10T14:07:26.807817,6324984,1356,500,1284,-1022,-631,-283,116,144,-72
10080,3400,0,2023-03-10T14:07:26.812582,6324989,1346,495,1269,-1044,-651,-292,116,144,-72
10081,3401,0,2023-03-10T14:07:26.817851,6324995,1346,495,1269,-1044,-651,-292,116,144,-72
10082,3402,0,2023-03-10T14:07:26.822086,6325000,1346,495,1269,-1044,-651,-292,116,144,-72
10083,3403,0,2023-03-10T14:07:26.827751,6325005,1346,495,1269,-1044,-651,-292,116,144,-72
10084,3404,0,2023-03-10T14:07:26.832443,6325010,1343,490,1270,-1015,-640,-258,123,137,-67
10085,3405,0,2023-03-10T14:07:26.836769,6325014,1343,490,1270,-1015,-640,-258,123,137,-67
10086,3406,0,2023-03-10T14:07:26.841071,6325018,1343,490,1270,-1015,-640,-258,123,137,-67
10087,3407,0,2023-03-10T14:07:26.845531,6325022,1343,490,1270,-1015,-640,-258,123,137,-67
10088,3408,0,2023-03-10T14:07:26.850633,6325027,1343,490,1270,-1015,-640,-258,123,137,-67
10089,3409,0,2023-03-10T14:07:26.855101,6325032,1348,485,1282,-1012,-621,-280,123,137,-67
10090,3410,0,2023-03-10T14:07:26.860146,6325038,1348,485,1282,-1012,-621,-280,123,137,-67
10091,3411,0,2023-03-10T14:07:26.864903,6325042,1348,485,1282,-1012,-621,-280,123,137,-67
10092,3412,0,2023-03-10T14:07:26.869564,6325047,1348,485,1282,-1012,-621,-280,123,137,-67
10093,3413,0,2023-03-10T14:07:26.875829,6325053,1340,491,1280,-1017,-644,-257,123,137,-67
10094,3414,0,2023-03-10T14:07:26.880648,6325058,1340,491,1280,-1017,-644,-257,123,137,-67
10095,3415,0,2023-03-10T14:07:26.885163,6325062,1340,491,1280,-1017,-644,-257,123,137,-67
10096,3416,0,2023-03-10T14:07:26.890070,6325067,1340,491,1280,-1017,-644,-257,123,137,-67
10097,3417,0,2023-03-10T14:07:26.894801,6325071,1345,493,1292,-998,-638,-237,123,137,-67
10098,3418,0,2023-03-10T14:07:26.899956,6325078,1345,493,1292,-998,-638,-237,123,137,-67
10099,3419,0,2023-03-10T14:07:26.904450,6325082,1345,493,1292,-998,-638,-237,123,137,-67
10100,3420,0,2023-03-10T14:07:26.908842,6325086,1345,493,1292,-998,-638,-237,123,137,-67
10101,3421,0,2023-03-10T14:07:26.914462,6325091,1354,497,1278,-1023,-651,-284,123,137,-67
10102,3422,0,2023-03-10T14:07:26.919882,6325097,1354,497,1278,-1023,-651,-284,123,137,-67
10103,3423,0,2023-03-10T14:07:26.924527,6325101,1354,497,1278,-1023,-651,-284,123,137,-67
10104,3424,0,2023-03-10T14:07:26.928800,6325106,1354,497,1278,-1023,-651,-284,123,137,-67
10105,3425,0,2023-03-10T14:07:26.934413,6325111,1342,485,1260,-1026,-642,-254,123,137,-67
10106,3426,0,2023-03-10T14:07:26.939614,6325116,1342,485,1260,-1026,-642,-254,123,137,-67
10107,3427,0,2023-03-10T14:07:26.944053,6325121,1342,485,1260,-1026,-642,-254,123,137,-67
10108,3428,0,2023-03-10T14:07:26.948675,6325126,1342,485,1260,-1026,-642,-254,123,137,-67
10109,3429,0,2023-03-10T14:07:26.954304,6325132,1356,488,1286,-992,-625,-272,123,137,-67
10110,3430,0,2023-03-10T14:07:26.959218,6325136,1356,488,1286,-992,-625,-272,123,137,-67
10111,3431,0,2023-03-10T14:07:26.963775,6325141,1356,488,1286,-992,-625,-272,123,137,-67
10112,3432,0,2023-03-10T14:07:26.968471,6325145,1356,488,1286,-992,-625,-272,123,137,-67
10113,3433,0,2023-03-10T14:07:26.973809,6325151,1334,489,1272,-1020,-641,-256,118,136,-70
10114,3434,0,2023-03-10T14:07:26.978735,6325156,1334,489,1272,-1020,-641,-256,118,136,-70
10115,3435,0,2023-03-10T14:07:26.983352,6325160,1334,489,1272,-1020,-641,-256,118,136,-70
10116,3436,0,2023-03-10T14:07:26.987566,6325165,1334,489,1272,-1020,-641,-256,118,136,-70
10117,3437,0,2023-03-10T14:07:26.992295,6325170,1360,495,1291,-1007,-632,-283,118,136,-70
10118,3438,0,2023-03-10T14:07:26.997752,6325175,1360,495,1291,-1007,-632,-283,118,136,-70
10119,3439,0,2023-03-10T14:07:27.002417,6325179,1360,495,1291,-1007,-632,-283,118,136,-70
10120,3440,0,2023-03-10T14:07:27.006822,6325184,1360,495,1291,-1007,-632,-283,118,136,-70
10121,3441,0,2023-03-10T14:07:27.011823,6325189,1354,498,1276,-1013,-645,-268,118,136,-70
10122,3442,0,2023-03-10T14:07:27.016934,6325194,1354,498,1276,-1013,-645,-268,118,136,-70
10123,3443,0,2023-03-10T14:07:27.021620,6325198,1354,498,1276,-1013,-645,-268,118,136,-70
10124,3444,0,2023-03-10T14:07:27.026050,6325203,1354,498,1276,-1013,-645,-268,118,136,-70
10125,3445,0,2023-03-10T14:07:27.031076,6325209,1354,498,1276,-1013,-645,-268,118,136,-70
10126,3446,0,2023-03-10T14:07:27.035433,6325213,1332,486,1269,-1010,-637,-240,118,136,-70
10127,3447,0,2023-03-10T14:07:27.040263,6325218,1332,486,1269,-1010,-637,-240,118,136,-70
10128,3448,0,2023-03-10T14:07:27.044575,6325222,1332,486,1269,-1010,-637,-240,118,136,-70
10129,3449,0,2023-03-10T14:07:27.049199,6325226,1332,486,1269,-1010,-637,-240,118,136,-70
10130,3450,0,2023-03-10T14:07:27.054672,6325232,1371,501,1289,-1023,-633,-290,118,136,-70
10131,3451,0,2023-03-10T14:07:27.059270,6325236,1371,501,1289,-1023,-633,-290,118,136,-70
10132,3452,0,2023-03-10T14:07:27.063740,6325241,1371,501,1289,-1023,-633,-290,118,136,-70
10133,3453,0,2023-03-10T14:07:27.068147,6325245,1371,501,1289,-1023,-633,-290,118,136,-70
10134,3454,0,2023-03-10T14:07:27.073231,6325251,1326,477,1263,-1016,-659,-224,118,136,-70
10135,3455,0,2023-03-10T14:07:27.078285,6325256,1326,477,1263,-1016,-659,-224,118,136,-70
10136,3456,0,2023-03-10T14:07:27.082902,6325260,1326,477,1263,-1016,-659,-224,118,136,-70
10137,3457,0,2023-03-10T14:07:27.087497,6325265,1326,477,1263,-1016,-659,-224,118,136,-70
10138,3458,0,2023-03-10T14:07:27.092099,6325269,1361,495,1284,-1022,-609,-285,118,142,-80
10139,3459,0,2023-03-10T14:07:27.096702,6325274,1361,495,1284,-1022,-609,-285,118,142,-80
10140,3460,0,2023-03-10T14:07:27.101121,6325278,1361,495,1284,-1022,-609,-285,118,142,-80
10141,3461,0,2023-03-10T14:07:27.105732,6325283,1361,495,1284,-1022,-609,-285,118,142,-80
10142,3462,0,2023-03-10T14:07:27.110148,6325287,1361,495,1284,-1022,-609,-285,118,142,-80
10143,3463,0,2023-03-10T14:07:27.114718,6325292,1357,494,1275,-1024,-655,-260,118,142,-80
10144,3464,0,2023-03-10T14:07:27.119594,6325297,1357,494,1275,-1024,-655,-260,118,142,-80
10145,3465,0,2023-03-10T14:07:27.124036,6325301,1357,494,1275,-1024,-655,-260,118,142,-80
10146,3466,0,2023-03-10T14:07:27.128521,6325306,1357,494,1275,-1024,-655,-260,118,142,-80
10147,3467,0,2023-03-10T14:07:27.133496,6325311,1339,483,1277,-991,-625,-217,118,142,-80
10148,3468,0,2023-03-10T14:07:27.138461,6325315,1339,483,1277,-991,-625,-217,118,142,-80
10149,3469,0,2023-03-10T14:07:27.143028,6325320,1339,483,1277,-991,-625,-217,118,142,-80
10150,3470,0,2023-03-10T14:07:27.147519,6325324,1339,483,1277,-991,-625,-217,118,142,-80
10151,3471,0,2023-03-10T14:07:27.152444,6325329,1343,486,1274,-1036,-635,-269,118,142,-80
10152,3472,0,2023-03-10T14:07:27.157812,6325335,1343,486,1274,-1036,-635,-269,118,142,-80
10153,3473,0,2023-03-10T14:07:27.162224,6325340,1343,486,1274,-1036,-635,-269,118,142,-80
10154,3474,0,2023-03-10T14:07:27.166750,6325344,1343,486,1274,-1036,-635,-269,118,142,-80
10155,3475,0,2023-03-10T14:07:27.171140,6325348,1343,486,1274,-1036,-635,-269,118,142,-80
10156,3476,0,2023-03-10T14:07:27.176422,6325354,1353,491,1280,-1029,-635,-287,118,142,-80
10157,3477,0,2023-03-10T14:07:27.181504,6325358,1353,491,1280,-1029,-635,-287,118,142,-80
10158,3478,0,2023-03-10T14:07:27.185837,6325363,1353,491,1280,-1029,-635,-287,118,142,-80
10159,3479,0,2023-03-10T14:07:27.190807,6325368,1353,491,1280,-1029,-635,-287,118,142,-80
10160,3480,0,2023-03-10T14:07:27.195211,6325372,1356,488,1276,-1011,-648,-258,118,142,-80
10161,3481,0,2023-03-10T14:07:27.200252,6325378,1356,488,1276,-1011,-648,-258,118,142,-80
10162,3482,0,2023-03-10T14:07:27.204785,6325382,1356,488,1276,-1011,-648,-258,118,142,-80
10163,3483,0,2023-03-10T14:07:27.209078,6325387,1356,488,1276,-1011,-648,-258,118,142,-80
10164,3484,0,2023-03-10T14:07:27.213999,6325391,1355,492,1267,-1017,-629,-282,118,142,-80
10165,3485,0,2023-03-10T14:07:27.219327,6325396,1355,492,1267,-1017,-629,-282,118,142,-80
10166,3486,0,2023-03-10T14:07:27.223656,6325401,1355,492,1267,-1017,-629,-282,118,142,-80
10167,3487,0,2023-03-10T14:07:27.228181,6325405,1355,492,1267,-1017,-629,-282,118,142,-80
10168,3488,0,2023-03-10T14:07:27.232994,6325410,1354,489,1282,-1016,-629,-265,113,133,-79
10169,3489,0,2023-03-10T14:07:27.237944,6325414,1354,489,1282,-1016,-629,-265,113,133,-79
10170,3490,0,2023-03-10T14:07:27.242432,6325420,1354,489,1282,-1016,-629,-265,113,133,-79
10171,3491,0,2023-03-10T14:07:27.247002,6325424,1354,489,1282,-1016,-629,-265,113,133,-79
10172,3492,0,2023-03-10T14:07:27.252137,6325429,1337,489,1268,-1019,-649,-272,113,133,-79
10173,3493,0,2023-03-10T14:07:27.257053,6325434,1337,489,1268,-1019,-649,-272,113,133,-79
10174,3494,0,2023-03-10T14:07:27.261614,6325439,1337,489,1268,-1019,-649,-272,113,133,-79
10175,3495,0,2023-03-10T14:07:27.266298,6325443,1337,489,1268,-1019,-649,-272,113,133,-79
10176,3496,0,2023-03-10T14:07:27.271164,6325448,1337,489,1268,-1019,-649,-272,113,133,-79
10177,3497,0,2023-03-10T14:07:27.275648,6325452,1361,488,1284,-1016,-612,-258,113,133,-79
10178,3498,0,2023-03-10T14:07:27.280605,6325457,1361,488,1284,-1016,-612,-258,113,133,-79
10179,3499,0,2023-03-10T14:07:27.285136,6325463,1361,488,1284,-1016,-612,-258,113,133,-79
10180,3500,0,2023-03-10T14:07:27.289738,6325467,1361,488,1284,-1016,-612,-258,113,133,-79
10181,3501,0,2023-03-10T14:07:27.294852,6325472,1339,485,1281,-986,-648,-224,113,133,-79
10182,3502,0,2023-03-10T14:07:27.299770,6325477,1339,485,1281,-986,-648,-224,113,133,-79
10183,3503,0,2023-03-10T14:07:27.304245,6325481,1339,485,1281,-986,-648,-224,113,133,-79
10184,3504,0,2023-03-10T14:07:27.308741,6325486,1339,485,1281,-986,-648,-224,113,133,-79
10185,3505,0,2023-03-10T14:07:27.313143,6325490,1370,494,1271,-1032,-660,-290,113,133,-79
10186,3506,0,2023-03-10T14:07:27.318496,6325495,1370,494,1271,-1032,-660,-290,113,133,-79
10187,3507,0,2023-03-10T14:07:27.323004,6325500,1370,494,1271,-1032,-660,-290,113,133,-79
10188,3508,0,2023-03-10T14:07:27.327719,6325505,1370,494,1271,-1032,-660,-290,113,133,-79
10189,3509,0,2023-03-10T14:07:27.332942,6325510,1347,491,1269,-1012,-630,-242,113,133,-79
10190,3510,0,2023-03-10T14:07:27.338668,6325516,1347,491,1269,-1012,-630,-242,113,133,-79
10191,3511,0,2023-03-10T14:07:27.343438,6325521,1347,491,1269,-1012,-630,-242,113,133,-79
10192,3512,0,2023-03-10T14:07:27.347825,6325525,1347,491,1269,-1012,-630,-242,113,133,-79
10193,3513,0,2023-03-10T14:07:27.352406,6325529,1368,496,1274,-1009,-656,-273,118,146,-76
10194,3514,0,2023-03-10T14:07:27.356743,6325534,1368,496,1274,-1009,-656,-273,118,146,-76
10195,3515,0,2023-03-10T14:07:27.361308,6325538,1368,496,1274,-1009,-656,-273,118,146,-76
10196,3516,0,2023-03-10T14:07:27.365674,6325542,1368,496,1274,-1009,-656,-273,118,146,-76
10197,3517,0,2023-03-10T14:07:27.370912,6325548,1368,496,1274,-1009,-656,-273,118,146,-76
10198,3518,0,2023-03-10T14:07:27.375346,6325553,1342,487,1269,-1027,-635,-259,118,146,-76
10199,3519,0,2023-03-10T14:07:27.380298,6325558,1342,487,1269,-1027,-635,-259,118,146,-76
10200,3520,0,2023-03-10T14:07:27.384593,6325562,1342,487,1269,-1027,-635,-259,118,146,-76
10201,3521,0,2023-03-10T14:07:27.389204,6325566,1342,487,1269,-1027,-635,-259,118,146,-76
10202,3522,0,2023-03-10T14:07:27.393548,6325570,1353,493,1275,-1029,-618,-286,118,146,-76
10203,3523,0,2023-03-10T14:07:27.399151,6325576,1353,493,1275,-1029,-618,-286,118,146,-76
10204,3524,0,2023-03-10T14:07:27.403513,6325580,1353,493,1275,-1029,-618,-286,118,146,-76
10205,3525,0,2023-03-10T14:07:27.407992,6325585,1353,493,1275,-1029,-618,-286,118,146,-76
10206,3526,0,2023-03-10T14:07:27.412964,6325591,1364,493,1289,-1019,-665,-263,118,146,-76
10207,3527,0,2023-03-10T14:07:27.418388,6325596,1364,493,1289,-1019,-665,-263,118,146,-76
10208,3528,0,2023-03-10T14:07:27.422562,6325600,1364,493,1289,-1019,-665,-263,118,146,-76
10209,3529,0,2023-03-10T14:07:27.426888,6325604,1364,493,1289,-1019,-665,-263,118,146,-76
10210,3530,0,2023-03-10T14:07:27.432169,6325609,1337,491,1264,-1024,-627,-247,118,146,-76
10211,3531,0,2023-03-10T14:07:27.437129,6325614,1337,491,1264,-1024,-627,-247,118,146,-76
10212,3532,0,2023-03-10T14:07:27.441620,6325619,1337,491,1264,-1024,-627,-247,118,146,-76
10213,3533,0,2023-03-10T14:07:27.446074,6325623,1337,491,1264,-1024,-627,-247,118,146,-76
10214,3534,0,2023-03-10T14:07:27.451159,6325628,1337,491,1264,-1024,-627,-247,118,146,-76
10215,3535,0,2023-03-10T14:07:27.456295,6325634,1369,493,1277,-1019,-638,-276,118,146,-76
10216,3536,0,2023-03-10T14:07:27.461124,6325639,1369,493,1277,-1019,-638,-276,118,146,-76
10217,3537,0,2023-03-10T14:07:27.465501,6325643,1369,493,1277,-1019,-638,-276,118,146,-76
10218,3538,0,2023-03-10T14:07:27.470076,6325647,1369,493,1277,-1019,-638,-276,118,146,-76
10219,3539,0,2023-03-10T14:07:27.475347,6325652,1345,482,1267,-1008,-643,-244,120,138,-74
10220,3540,0,2023-03-10T14:07:27.480389,6325657,1345,482,1267,-1008,-643,-244,120,138,-74
10221,3541,0,2023-03-10T14:07:27.485032,6325662,1345,482,1267,-1008,-643,-244,120,138,-74
10222,3542,0,2023-03-10T14:07:27.489409,6325666,1345,482,1267,-1008,-643,-244,120,138,-74
10223,3543,0,2023-03-10T14:07:27.493964,6325671,1349,492,1268,-1014,-617,-281,120,138,-74
10224,3544,0,2023-03-10T14:07:27.499060,6325676,1349,492,1268,-1014,-617,-281,120,138,-74
10225,3545,0,2023-03-10T14:07:27.503574,6325681,1349,492,1268,-1014,-617,-281,120,138,-74
10226,3546,0,2023-03-10T14:07:27.508020,6325685,1349,492,1268,-1014,-617,-281,120,138,-74
10227,3547,0,2023-03-10T14:07:27.513021,6325690,1365,492,1282,-999,-646,-249,120,138,-74
10228,3548,0,2023-03-10T14:07:27.518493,6325696,1365,492,1282,-999,-646,-249,120,138,-74
10229,3549,0,2023-03-10T14:07:27.522844,6325700,1365,492,1282,-999,-646,-249,120,138,-74
10230,3550,0,2023-03-10T14:07:27.527242,6325704,1365,492,1282,-999,-646,-249,120,138,-74
10231,3551,0,2023-03-10T14:07:27.532293,6325709,1330,477,1274,-1005,-610,-232,120,138,-74
10232,3552,0,2023-03-10T14:07:27.537284,6325714,1330,477,1274,-1005,-610,-232,120,138,-74
10233,3553,0,2023-03-10T14:07:27.541761,6325719,1330,477,1274,-1005,-610,-232,120,138,-74
10234,3554,0,2023-03-10T14:07:27.546226,6325724,1330,477,1274,-1005,-610,-232,120,138,-74
10235,3555,0,2023-03-10T14:07:27.550690,6325728,1330,477,1274,-1005,-610,-232,120,138,-74
10236,3556,0,2023-03-10T14:07:27.554997,6325732,1364,492,1275,-1029,-662,-298,120,138,-74
10237,3557,0,2023-03-10T14:07:27.559712,6325737,1364,492,1275,-1029,-662,-298,120,138,-74
10238,3558,0,2023-03-10T14:07:27.564239,6325741,1364,492,1275,-1029,-662,-298,120,138,-74
10239,3559,0,2023-03-10T14:07:27.568624,6325746,1364,492,1275,-1029,-662,-298,120,138,-74
10240,3560,0,2023-03-10T14:07:27.573904,6325750,1358,489,1261,-1024,-641,-254,120,138,-74
10241,3561,0,2023-03-10T14:07:27.579154,6325756,1358,489,1261,-1024,-641,-254,120,138,-74
10242,3562,0,2023-03-10T14:07:27.583714,6325761,1358,489,1261,-1024,-641,-254,120,138,-74
10243,3563,0,2023-03-10T14:07:27.587983,6325766,1358,489,1261,-1024,-641,-254,120,138,-74
10244,3564,0,2023-03-10T14:07:27.592814,6325770,1345,489,1278,-1019,-615,-260,120,138,-74
10245,3565,0,2023-03-10T14:07:27.597784,6325775,1345,489,1278,-1019,-615,-260,120,138,-74
10246,3566,0,2023-03-10T14:07:27.602105,6325779,1345,489,1278,-1019,-615,-260,120,138,-74
10247,3567,0,2023-03-10T14:07:27.606718,6325784,1345,489,1278,-1019,-615,-260,120,138,-74
10248,3568,0,2023-03-10T14:07:27.611679,6325789,1345,489,1278,-1019,-615,-260,120,138,-74
10249,3569,0,2023-03-10T14:07:27.616276,6325793,1370,499,1275,-1007,-668,-289,125,133,-75
10250,3570,0,2023-03-10T14:07:27.621069,6325798,1370,499,1275,-1007,-668,-289,125,133,-75
10251,3571,0,2023-03-10T14:07:27.625599,6325803,1370,499,1275,-1007,-668,-289,125,133,-75
10252,3572,0,2023-03-10T14:07:27.630824,6325808,1370,499,1275,-1007,-668,-289,125,133,-75
10253,3573,0,2023-03-10T14:07:27.635288,6325813,1340,481,1272,-1018,-612,-251,125,133,-75
10254,3574,0,2023-03-10T14:07:27.640254,6325817,1340,481,1272,-1018,-612,-251,125,133,-75
10255,3575,0,2023-03-10T14:07:27.644951,6325822,1340,481,1272,-1018,-612,-251,125,133,-75
10256,3576,0,2023-03-10T14:07:27.649322,6325826,1340,481,1272,-1018,-612,-251,125,133,-75
10257,3577,0,2023-03-10T14:07:27.653761,6325831,1364,497,1273,-1021,-660,-291,125,133,-75
10258,3578,0,2023-03-10T14:07:27.658746,6325836,1364,497,1273,-1021,-660,-291,125,133,-75
10259,3579,0,2023-03-10T14:07:27.663281,6325840,1364,497,1273,-1021,-660,-291,125,133,-75
10260,3580,0,2023-03-10T14:07:27.667807,6325844,1364,497,1273,-1021,-660,-291,125,133,-75
10261,3581,0,2023-03-10T14:07:27.672451,6325850,1360,489,1276,-1020,-637,-246,125,133,-75
10262,3582,0,2023-03-10T14:07:27.678092,6325855,1360,489,1276,-1020,-637,-246,125,133,-75
10263,3583,0,2023-03-10T14:07:27.682663,6325860,1360,489,1276,-1020,-637,-246,125,133,-75
10264,3584,0,2023-03-10T14:07:27.687049,6325864,1360,489,1276,-1020,-637,-246,125,133,-75
10265,3585,0,2023-03-10T14:07:27.692040,6325869,1360,489,1276,-1020,-637,-246,125,133,-75
10266,3586,0,2023-03-10T14:07:27.696695,6325873,1343,481,1272,-1013,-626,-258,125,133,-75
10267,3587,0,2023-03-10T14:07:27.701845,6325879,1343,481,1272,-1013,-626,-258,125,133,-75
10268,3588,0,2023-03-10T14:07:27.706483,6325883,1343,481,1272,-1013,-626,-258,125,133,-75
10269,3589,0,2023-03-10T14:07:27.711653,6325889,1343,481,1272,-1013,-626,-258,125,133,-75
10270,3590,0,2023-03-10T14:07:27.716197,6325893,1369,489,1275,-1009,-677,-268,125,133,-75
10271,3591,0,2023-03-10T14:07:27.720989,6325898,1369,489,1275,-1009,-677,-268,125,133,-75
10272,3592,0,2023-03-10T14:07:27.725404,6325903,1369,489,1275,-1009,-677,-268,125,133,-75
10273,3593,0,2023-03-10T14:07:27.730010,6325907,1369,489,1275,-1009,-677,-268,125,133,-75
10274,3594,0,2023-03-10T14:07:27.735368,6325913,1359,491,1265,-1012,-614,-266,114,136,-72
10275,3595,0,2023-03-10T14:07:27.739595,6325917,1359,491,1265,-1012,-614,-266,114,136,-72
10276,3596,0,2023-03-10T14:07:27.744040,6325921,1359,491,1265,-1012,-614,-266,114,136,-72
10277,3597,0,2023-03-10T14:07:27.748357,6325925,1359,491,1265,-1012,-614,-266,114,136,-72
10278,3598,0,2023-03-10T14:07:27.753667,6325931,1359,489,1268,-1011,-655,-270,114,136,-72
10279,3599,0,2023-03-10T14:07:27.758906,6325936,1359,489,1268,-1011,-655,-270,114,136,-72
10280,3600,0,2023-03-10T14:07:27.763390,6325941,1359,489,1268,-1011,-655,-270,114,136,-72
10281,3601,0,2023-03-10T14:07:27.767892,6325945,1359,489,1268,-1011,-655,-270,114,136,-72
10282,3602,0,2023-03-10T14:07:27.772858,6325950,1361,491,1269,-1015,-628,-270,114,136,-72
10283,3603,0,2023-03-10T14:07:27.777889,6325955,1361,491,1269,-1015,-628,-270,114,136,-72
10284,3604,0,2023-03-10T14:07:27.782406,6325959,1361,491,1269,-1015,-628,-270,114,136,-72
10285,3605,0,2023-03-10T14:07:27.786880,6325964,1361,491,1269,-1015,-628,-270,114,136,-72
10286,3606,0,2023-03-10T14:07:27.792082,6325969,1361,491,1269,-1015,-628,-270,114,136,-72
10287,3607,0,2023-03-10T14:07:27.796406,6325974,1341,479,1260,-1033,-632,-262,114,136,-72
10288,3608,0,2023-03-10T14:07:27.802049,6325979,1341,479,1260,-1033,-632,-262,114,136,-72
10289,3609,0,2023-03-10T14:07:27.806796,6325984,1341,479,1260,-1033,-632,-262,114,136,-72
10290,3610,0,2023-03-10T14:07:27.811765,6325989,1341,479,1260,-1033,-632,-262,114,136,-72
10291,3611,0,2023-03-10T14:07:27.816181,6325993,1361,490,1281,-1004,-657,-270,114,136,-72
10292,3612,0,2023-03-10T14:07:27.821118,6325998,1361,490,1281,-1004,-657,-270,114,136,-72
10293,3613,0,2023-03-10T14:07:27.825486,6326003,1361,490,1281,-1004,-657,-270,114,136,-72
10294,3614,0,2023-03-10T14:07:27.830767,6326007,1361,490,1281,-1004,-657,-270,114,136,-72
10295,3615,0,2023-03-10T14:07:27.835339,6326012,1355,484,1276,-1018,-618,-252,114,136,-72
10296,3616,0,2023-03-10T14:07:27.840288,6326018,1355,484,1276,-1018,-618,-252,114,136,-72
10297,3617,0,2023-03-10T14:07:27.844783,6326022,1355,484,1276,-1018,-618,-252,114,136,-72
10298,3618,0,2023-03-10T14:07:27.849091,6326027,1355,484,1276,-1018,-618,-252,114,136,-72
10299,3619,0,2023-03-10T14:07:27.854128,6326031,1367,494,1260,-1007,-656,-277,114,136,-72
10300,3620,0,2023-03-10T14:07:27.859714,6326037,1367,494,1260,-1007,-656,-277,114,136,-72
10301,3621,0,2023-03-10T14:07:27.864328,6326041,1367,494,1260,-1007,-656,-277,114,136,-72
10302,3622,0,2023-03-10T14:07:27.868686,6326046,1367,494,1260,-1007,-656,-277,114,136,-72
10303,3623,0,2023-03-10T14:07:27.873067,6326050,1362,489,1272,-1002,-618,-238,118,136,-72
10304,3624,0,2023-03-10T14:07:27.878527,6326055,1362,489,1272,-1002,-618,-238,118,136,-72
10305,3625,0,2023-03-10T14:07:27.883786,6326061,1362,489,1272,-1002,-618,-238,118,136,-72
10306,3626,0,2023-03-10T14:07:27.888135,6326066,1362,489,1272,-1002,-618,-238,118,136,-72
10307,3627,0,2023-03-10T14:07:27.892634,6326070,1362,489,1272,-1002,-618,-238,118,136,-72
10308,3628,0,2023-03-10T14:07:27.897245,6326074,1362,489,1272,-1002,-618,-238,118,136,-72
10309,3629,0,2023-03-10T14:07:27.901684,6326079,1362,489,1272,-1002,-618,-238,118,136,-72
10310,3630,0,2023-03-10T14:07:27.906285,6326083,1362,489,1272,-1002,-618,-238,118,136,-72
10311,3631,0,2023-03-10T14:07:27.911360,6326088,1362,489,1272,-1002,-618,-238,118,136,-72
10312,3632,0,2023-03-10T14:07:27.915791,6326093,1366,495,1272,-1022,-649,-282,118,136,-72
10313,3633,0,2023-03-10T14:07:27.920947,6326097,1366,495,1272,-1022,-649,-282,118,136,-72
10314,3634,0,2023-03-10T14:07:27.925466,6326103,1366,495,1272,-1022,-649,-282,118,136,-72
10315,3635,0,2023-03-10T14:07:27.930296,6326108,1366,495,1272,-1022,-649,-282,118,136,-72
10316,3636,0,2023-03-10T14:07:27.935540,6326113,1362,489,1266,-1029,-627,-251,118,136,-72
10317,3637,0,2023-03-10T14:07:27.940507,6326118,1362,489,1266,-1029,-627,-251,118,136,-72
10318,3638,0,2023-03-10T14:07:27.945384,6326122,1362,489,1266,-1029,-627,-251,118,136,-72
10319,3639,0,2023-03-10T14:07:27.950144,6326127,1362,489,1266,-1029,-627,-251,118,136,-72
10320,3640,0,2023-03-10T14:07:27.955337,6326132,1365,495,1259,-1021,-640,-283,118,136,-72
10321,3641,0,2023-03-10T14:07:27.960599,6326137,1365,495,1259,-1021,-640,-283,118,136,-72
10322,3642,0,2023-03-10T14:07:27.965320,6326142,1365,495,1259,-1021,-640,-283,118,136,-72
10323,3643,0,2023-03-10T14:07:27.969700,6326147,1365,495,1259,-1021,-640,-283,118,136,-72
10324,3644,0,2023-03-10T14:07:27.975010,6326152,1366,484,1272,-1008,-623,-235,118,136,-72
10325,3645,0,2023-03-10T14:07:27.980191,6326157,1366,484,1272,-1008,-623,-235,118,136,-72
10326,3646,0,2023-03-10T14:07:27.984920,6326162,1366,484,1272,-1008,-623,-235,118,136,-72
10327,3647,0,2023-03-10T14:07:27.989540,6326167,1366,484,1272,-1008,-623,-235,118,136,-72
10328,3648,0,2023-03-10T14:07:27.994517,6326171,1342,485,1268,-996,-640,-263,120,138,-72
10329,3649,0,2023-03-10T14:07:27.999426,6326176,1342,485,1268,-996,-640,-263,120,138,-72
10330,3650,0,2023-03-10T14:07:28.004922,6326182,1342,485,1268,-996,-640,-263,120,138,-72
10331,3651,0,2023-03-10T14:07:28.009261,6326187,1342,485,1268,-996,-640,-263,120,138,-72
10332,3652,0,2023-03-10T14:07:28.014333,6326192,1375,496,1274,-1036,-624,-288,120,138,-72
10333,3653,0,2023-03-10T14:07:28.019555,6326197,1375,496,1274,-1036,-624,-288,120,138,-72
10334,3654,0,2023-03-10T14:07:28.024215,6326201,1375,496,1274,-1036,-624,-288,120,138,-72
10335,3655,0,2023-03-10T14:07:28.028794,6326206,1375,496,1274,-1036,-624,-288,120,138,-72
10336,3656,0,2023-03-10T14:07:28.033870,6326211,1362,494,1269,-1003,-668,-266,120,138,-72
10337,3657,0,2023-03-10T14:07:28.038754,6326216,1362,494,1269,-1003,-668,-266,120,138,-72
10338,3658,0,2023-03-10T14:07:28.043564,6326220,1362,494,1269,-1003,-668,-266,120,138,-72
10339,3659,0,2023-03-10T14:07:28.048321,6326225,1362,494,1269,-1003,-668,-266,120,138,-72
10340,3660,0,2023-03-10T14:07:28.053204,6326231,1363,484,1263,-1029,-614,-265,120,138,-72
10341,3661,0,2023-03-10T14:07:28.058513,6326236,1363,484,1263,-1029,-614,-265,120,138,-72
10342,3662,0,2023-03-10T14:07:28.063060,6326240,1363,484,1263,-1029,-614,-265,120,138,-72
10343,3663,0,2023-03-10T14:07:28.067321,6326245,1363,484,1263,-1029,-614,-265,120,138,-72
10344,3664,0,2023-03-10T14:07:28.072118,6326249,1363,484,1263,-1029,-614,-265,120,138,-72
10345,3665,0,2023-03-10T14:07:28.077187,6326254,1367,488,1270,-1003,-651,-248,120,138,-72
10346,3666,0,2023-03-10T14:07:28.082507,6326259,1367,488,1270,-1003,-651,-248,120,138,-72
10347,3667,0,2023-03-10T14:07:28.087155,6326264,1367,488,1270,-1003,-651,-248,120,138,-72
10348,3668,0,2023-03-10T14:07:28.091624,6326268,1367,488,1270,-1003,-651,-248,120,138,-72
10349,3669,0,2023-03-10T14:07:28.096062,6326274,1349,487,1275,-1016,-634,-250,120,138,-72
10350,3670,0,2023-03-10T14:07:28.101297,6326279,1349,487,1275,-1016,-634,-250,120,138,-72
10351,3671,0,2023-03-10T14:07:28.105759,6326283,1349,487,1275,-1016,-634,-250,120,138,-72
10352,3672,0,2023-03-10T14:07:28.110863,6326288,1349,487,1275,-1016,-634,-250,120,138,-72
10353,3673,0,2023-03-10T14:07:28.115444,6326292,1355,485,1260,-1038,-654,-289,120,138,-72
10354,3674,0,2023-03-10T14:07:28.120256,6326297,1355,485,1260,-1038,-654,-289,120,138,-72
10355,3675,0,2023-03-10T14:07:28.124631,6326302,1355,485,1260,-1038,-654,-289,120,138,-72
10356,3676,0,2023-03-10T14:07:28.129147,6326306,1355,485,1260,-1038,-654,-289,120,138,-72
10357,3677,0,2023-03-10T14:07:28.134355,6326311,1375,492,1271,-1020,-623,-278,124,136,-74
10358,3678,0,2023-03-10T14:07:28.140128,6326318,1375,492,1271,-1020,-623,-278,124,136,-74
