,Unnamed: 0,imu,server_time,arduino_time,ax,ay,az,gx,gy,gz,mx,my,mz
10818,4138,0,2023-03-10T14:07:30.397834,6328574,1384,479,1251,-1030,-596,-252,123,137,-77
10819,4139,0,2023-03-10T14:07:30.403020,6328581,1384,479,1251,-1030,-596,-252,123,137,-77
10820,4140,0,2023-03-10T14:07:30.407787,6328585,1384,479,1251,-1030,-596,-252,123,137,-77
10821,4141,0,2023-03-10T14:07:30.413241,6328590,1384,479,1251,-1030,-596,-252,123,137,-77
10822,4142,0,2023-03-10T14:07:30.418562,6328596,1394,485,1247,-998,-645,-255,123,137,-77
10823,4143,0,2023-03-10T14:07:30.423684,6328601,1394,485,1247,-998,-645,-255,123,137,-77
10824,4144,0,2023-03-10T14:07:30.428065,6328605,1394,485,1247,-998,-645,-255,123,137,-77
10825,4145,0,2023-03-10T14:07:30.433242,6328610,1394,485,1247,-998,-645,-255,123,137,-77
10826,4146,0,2023-03-10T14:07:30.437787,6328615,1401,485,1253,-1009,-597,-244,125,133,-69
10827,4147,0,2023-03-10T14:07:30.442954,6328621,1401,485,1253,-1009,-597,-244,125,133,-69
10828,4148,0,2023-03-10T14:07:30.447411,6328625,1401,485,1253,-1009,-597,-244,125,133,-69
10829,4149,0,2023-03-10T14:07:30.452106,6328630,1401,485,1253,-1009,-597,-244,125,133,-69
10830,4150,0,2023-03-10T14:07:30.456887,6328634,1392,489,1242,-1002,-612,-264,125,133,-69
10831,4151,0,2023-03-10T14:07:30.461933,6328639,1392,489,1242,-1002,-612,-264,125,133,-69
10832,4152,0,2023-03-10T14:07:30.466345,6328644,1392,489,1242,-1002,-612,-264,125,133,-69
10833,4153,0,2023-03-10T14:07:30.470810,6328648,1392,489,1242,-1002,-612,-264,125,133,-69
10834,4154,0,2023-03-10T14:07:30.475732,6328653,1392,489,1242,-1002,-612,-264,125,133,-69
10835,4155,0,2023-03-10T14:07:30.480951,6328657,1396,483,1247,-1020,-605,-253,125,133,-69
10836,4156,0,2023-03-10T14:07:30.486082,6328664,1396,483,1247,-1020,-605,-253,125,133,-69
10837,4157,0,2023-03-10T14:07:30.490349,6328668,1396,483,1247,-1020,-605,-253,125,133,-69
10838,4158,0,2023-03-10T14:07:30.495352,6328673,1396,483,1247,-1020,-605,-253,125,133,-69
10839,4159,0,2023-03-10T14:07:30.500193,6328678,1394,488,1237,-1012,-608,-275,125,133,-69
10840,4160,0,2023-03-10T14:07:30.505106,6328682,1394,488,1237,-1012,-608,-275,125,133,-69
10841,4161,0,2023-03-10T14:07:30.509809,6328687,1394,488,1237,-1012,-608,-275,125,133,-69
10842,4162,0,2023-03-10T14:07:30.515201,6328692,1394,488,1237,-1012,-608,-275,125,133,-69
10843,4163,0,2023-03-10T14:07:30.519605,6328697,1385,479,1228,-1005,-621,-245,125,133,-69
10844,4164,0,2023-03-10T14:07:30.524623,6328701,1385,479,1228,-1005,-621,-245,125,133,-69
10845,4165,0,2023-03-10T14:07:30.529036,6328707,1385,479,1228,-1005,-621,-245,125,133,-69
10846,4166,0,2023-03-10T14:07:30.533585,6328711,1385,479,1228,-1005,-621,-245,125,133,-69
10847,4167,0,2023-03-10T14:07:30.538634,6328716,1407,489,1245,-1009,-602,-268,125,133,-69
10848,4168,0,2023-03-10T14:07:30.543714,6328721,1407,489,1245,-1009,-602,-268,125,133,-69
10849,4169,0,2023-03-10T14:07:30.548330,6328726,1407,489,1245,-1009,-602,-268,125,133,-69
10850,4170,0,2023-03-10T14:07:30.553348,6328730,1407,489,1245,-1009,-602,-268,125,133,-69
10851,4171,0,2023-03-10T14:07:30.557805,6328735,1383,477,1229,-1017,-609,-240,125,133,-69
10852,4172,0,2023-03-10T14:07:30.562638,6328740,1383,477,1229,-1017,-609,-240,125,133,-69
10853,4173,0,2023-03-10T14:07:30.567095,6328744,1383,477,1229,-1017,-609,-240,125,133,-69
10854,4174,0,2023-03-10T14:07:30.572146,6328750,1383,477,1229,-1017,-609,-240,125,133,-69
10855,4175,0,2023-03-10T14:07:30.576744,6328754,1400,490,1251,-1012,-592,-268,119,133,-75
10856,4176,0,2023-03-10T14:07:30.581545,6328759,1400,490,1251,-1012,-592,-268,119,133,-75
10857,4177,0,2023-03-10T14:07:30.585952,6328763,1400,490,1251,-1012,-592,-268,119,133,-75
10858,4178,0,2023-03-10T14:07:30.590614,6328768,1400,490,1251,-1012,-592,-268,119,133,-75
10859,4179,0,2023-03-10T14:07:30.595507,6328773,1400,490,1251,-1012,-592,-268,119,133,-75
10860,4180,0,2023-03-10T14:07:30.600532,6328778,1400,490,1244,-1006,-658,-268,119,133,-75
10861,4181,0,2023-03-10T14:07:30.605363,6328782,1400,490,1244,-1006,-658,-268,119,133,-75
10862,4182,0,2023-03-10T14:07:30.609696,6328787,1400,490,1244,-1006,-658,-268,119,133,-75
10863,4183,0,2023-03-10T14:07:30.614754,6328792,1400,490,1244,-1006,-658,-268,119,133,-75
10864,4184,0,2023-03-10T14:07:30.619773,6328797,1391,481,1246,-1018,-606,-261,119,133,-75
10865,4185,0,2023-03-10T14:07:30.624711,6328802,1391,481,1246,-1018,-606,-261,119,133,-75
10866,4186,0,2023-03-10T14:07:30.629165,6328807,1391,481,1246,-1018,-606,-261,119,133,-75
10867,4187,0,2023-03-10T14:07:30.634002,6328811,1391,481,1246,-1018,-606,-261,119,133,-75
10868,4188,0,2023-03-10T14:07:30.639234,6328816,1396,494,1246,-1014,-611,-273,119,133,-75
10869,4189,0,2023-03-10T14:07:30.644342,6328821,1396,494,1246,-1014,-611,-273,119,133,-75
10870,4190,0,2023-03-10T14:07:30.648679,6328826,1396,494,1246,-1014,-611,-273,119,133,-75
10871,4191,0,2023-03-10T14:07:30.653704,6328832,1396,494,1246,-1014,-611,-273,119,133,-75
10872,4192,0,2023-03-10T14:07:30.658248,6328836,1390,481,1251,-1010,-587,-231,119,133,-75
10873,4193,0,2023-03-10T14:07:30.663448,6328841,1390,481,1251,-1010,-587,-231,119,133,-75
10874,4194,0,2023-03-10T14:07:30.667961,6328845,1390,481,1251,-1010,-587,-231,119,133,-75
10875,4195,0,2023-03-10T14:07:30.673171,6328851,1390,481,1251,-1010,-587,-231,119,133,-75
10876,4196,0,2023-03-10T14:07:30.677836,6328855,1401,489,1238,-1008,-630,-278,119,133,-75
10877,4197,0,2023-03-10T14:07:30.682911,6328860,1401,489,1238,-1008,-630,-278,119,133,-75
10878,4198,0,2023-03-10T14:07:30.687383,6328864,1401,489,1238,-1008,-630,-278,119,133,-75
10879,4199,0,2023-03-10T14:07:30.692402,6328869,1401,489,1238,-1008,-630,-278,119,133,-75
10880,4200,0,2023-03-10T14:07:30.696844,6328875,1391,481,1232,-1028,-624,-247,122,130,-74
10881,4201,0,2023-03-10T14:07:30.702116,6328880,1391,481,1232,-1028,-624,-247,122,130,-74
10882,4202,0,2023-03-10T14:07:30.706408,6328884,1391,481,1232,-1028,-624,-247,122,130,-74
10883,4203,0,2023-03-10T14:07:30.710799,6328888,1391,481,1232,-1028,-624,-247,122,130,-74
10884,4204,0,2023-03-10T14:07:30.715211,6328893,1391,481,1232,-1028,-624,-247,122,130,-74
10885,4205,0,2023-03-10T14:07:30.719728,6328897,1402,483,1247,-997,-608,-256,122,130,-74
10886,4206,0,2023-03-10T14:07:30.724642,6328902,1402,483,1247,-997,-608,-256,122,130,-74
10887,4207,0,2023-03-10T14:07:30.729307,6328906,1402,483,1247,-997,-608,-256,122,130,-74
10888,4208,0,2023-03-10T14:07:30.733887,6328911,1402,483,1247,-997,-608,-256,122,130,-74
10889,4209,0,2023-03-10T14:07:30.738408,6328915,1398,488,1239,-1030,-600,-271,122,130,-74
10890,4210,0,2023-03-10T14:07:30.742710,6328920,1398,488,1239,-1030,-600,-271,122,130,-74
10891,4211,0,2023-03-10T14:07:30.747304,6328925,1398,488,1239,-1030,-600,-271,122,130,-74
10892,4212,0,2023-03-10T14:07:30.752322,6328930,1398,488,1239,-1030,-600,-271,122,130,-74
10893,4213,0,2023-03-10T14:07:30.756872,6328934,1409,487,1243,-1008,-639,-265,122,130,-74
10894,4214,0,2023-03-10T14:07:30.762133,6328939,1409,487,1243,-1008,-639,-265,122,130,-74
10895,4215,0,2023-03-10T14:07:30.766719,6328944,1409,487,1243,-1008,-639,-265,122,130,-74
10896,4216,0,2023-03-10T14:07:30.771386,6328948,1409,487,1243,-1008,-639,-265,122,130,-74
10897,4217,0,2023-03-10T14:07:30.776452,6328953,1385,485,1241,-1012,-606,-264,122,130,-74
10898,4218,0,2023-03-10T14:07:30.781308,6328958,1385,485,1241,-1012,-606,-264,122,130,-74
10899,4219,0,2023-03-10T14:07:30.785725,6328963,1385,485,1241,-1012,-606,-264,122,130,-74
10900,4220,0,2023-03-10T14:07:30.790107,6328968,1385,485,1241,-1012,-606,-264,122,130,-74
10901,4221,0,2023-03-10T14:07:30.795291,6328973,1385,485,1241,-1012,-606,-264,122,130,-74
10902,4222,0,2023-03-10T14:07:30.799660,6328977,1393,480,1234,-1018,-622,-253,122,130,-74
10903,4223,0,2023-03-10T14:07:30.805145,6328982,1393,480,1234,-1018,-622,-253,122,130,-74
10904,4224,0,2023-03-10T14:07:30.809961,6328987,1393,480,1234,-1018,-622,-253,122,130,-74
10905,4225,0,2023-03-10T14:07:30.815055,6328992,1393,480,1234,-1018,-622,-253,122,130,-74
10906,4226,0,2023-03-10T14:07:30.819662,6328997,1410,490,1257,-1005,-614,-267,117,133,-69
10907,4227,0,2023-03-10T14:07:30.824817,6329003,1410,490,1257,-1005,-614,-267,117,133,-69
10908,4228,0,2023-03-10T14:07:30.829134,6329007,1410,490,1257,-1005,-614,-267,117,133,-69
10909,4229,0,2023-03-10T14:07:30.834182,6329012,1410,490,1257,-1005,-614,-267,117,133,-69
10910,4230,0,2023-03-10T14:07:30.839225,6329017,1380,479,1222,-1019,-661,-238,117,133,-69
10911,4231,0,2023-03-10T14:07:30.843950,6329021,1380,479,1222,-1019,-661,-238,117,133,-69
10912,4232,0,2023-03-10T14:07:30.848317,6329026,1380,479,1222,-1019,-661,-238,117,133,-69
10913,4233,0,2023-03-10T14:07:30.853149,6329030,1380,479,1222,-1019,-661,-238,117,133,-69
10914,4234,0,2023-03-10T14:07:30.858358,6329035,1411,494,1262,-997,-595,-250,117,133,-69
10915,4235,0,2023-03-10T14:07:30.863365,6329040,1411,494,1262,-997,-595,-250,117,133,-69
10916,4236,0,2023-03-10T14:07:30.867794,6329046,1411,494,1262,-997,-595,-250,117,133,-69
10917,4237,0,2023-03-10T14:07:30.872979,6329051,1411,494,1262,-997,-595,-250,117,133,-69
10918,4238,0,2023-03-10T14:07:30.877291,6329055,1390,478,1238,-1005,-633,-251,117,133,-69
10919,4239,0,2023-03-10T14:07:30.882369,6329060,1390,478,1238,-1005,-633,-251,117,133,-69
10920,4240,0,2023-03-10T14:07:30.886756,6329064,1390,478,1238,-1005,-633,-251,117,133,-69
10921,4241,0,2023-03-10T14:07:30.891977,6329069,1390,478,1238,-1005,-633,-251,117,133,-69
10922,4242,0,2023-03-10T14:07:30.896387,6329074,1397,490,1230,-1029,-616,-279,117,133,-69
10923,4243,0,2023-03-10T14:07:30.901654,6329079,1397,490,1230,-1029,-616,-279,117,133,-69
10924,4244,0,2023-03-10T14:07:30.906156,6329083,1397,490,1230,-1029,-616,-279,117,133,-69
10925,4245,0,2023-03-10T14:07:30.910717,6329088,1397,490,1230,-1029,-616,-279,117,133,-69
10926,4246,0,2023-03-10T14:07:30.916151,6329094,1397,490,1230,-1029,-616,-279,117,133,-69
10927,4247,0,2023-03-10T14:07:30.920822,6329098,1393,477,1252,-1011,-610,-236,117,133,-69
10928,4248,0,2023-03-10T14:07:30.925869,6329103,1393,477,1252,-1011,-610,-236,117,133,-69
10929,4249,0,2023-03-10T14:07:30.930211,6329108,1393,477,1252,-1011,-610,-236,117,133,-69
10930,4250,0,2023-03-10T14:07:30.935186,6329112,1393,477,1252,-1011,-610,-236,117,133,-69
10931,4251,0,2023-03-10T14:07:30.939550,6329117,1390,482,1235,-1023,-661,-279,117,133,-69
10932,4252,0,2023-03-10T14:07:30.944053,6329121,1390,482,1235,-1023,-661,-279,117,133,-69
10933,4253,0,2023-03-10T14:07:30.948606,6329125,1390,482,1235,-1023,-661,-279,117,133,-69
10934,4254,0,2023-03-10T14:07:30.953454,6329131,1390,482,1235,-1023,-661,-279,117,133,-69
10935,4255,0,2023-03-10T14:07:30.958114,6329136,1412,488,1245,-1037,-606,-272,117,137,-65
10936,4256,0,2023-03-10T14:07:30.963362,6329141,1412,488,1245,-1037,-606,-272,117,137,-65
10937,4257,0,2023-03-10T14:07:30.967781,6329145,1412,488,1245,-1037,-606,-272,117,137,-65
10938,4258,0,2023-03-10T14:07:30.972729,6329150,1412,488,1245,-1037,-606,-272,117,137,-65
10939,4259,0,2023-03-10T14:07:30.977124,6329154,1395,483,1250,-989,-625,-247,117,137,-65
10940,4260,0,2023-03-10T14:07:30.982153,6329159,1395,483,1250,-989,-625,-247,117,137,-65
10941,4261,0,2023-03-10T14:07:30.986523,6329164,1395,483,1250,-989,-625,-247,117,137,-65
10942,4262,0,2023-03-10T14:07:30.991316,6329168,1395,483,1250,-989,-625,-247,117,137,-65
10943,4263,0,2023-03-10T14:07:30.995641,6329174,1395,483,1250,-989,-625,-247,117,137,-65
10944,4264,0,2023-03-10T14:07:31.000174,6329178,1392,483,1235,-1039,-630,-276,117,137,-65
10945,4265,0,2023-03-10T14:07:31.005250,6329183,1392,483,1235,-1039,-630,-276,117,137,-65
10946,4266,0,2023-03-10T14:07:31.009708,6329187,1392,483,1235,-1039,-630,-276,117,137,-65
10947,4267,0,2023-03-10T14:07:31.014908,6329192,1392,483,1235,-1039,-630,-276,117,137,-65
10948,4268,0,2023-03-10T14:07:31.020173,6329197,1415,490,1240,-1015,-635,-281,117,137,-65
10949,4269,0,2023-03-10T14:07:31.024988,6329202,1415,490,1240,-1015,-635,-281,117,137,-65
10950,4270,0,2023-03-10T14:07:31.029638,6329207,1415,490,1240,-1015,-635,-281,117,137,-65
10951,4271,0,2023-03-10T14:07:31.034465,6329211,1415,490,1240,-1015,-635,-281,117,137,-65
10952,4272,0,2023-03-10T14:07:31.038909,6329217,1384,476,1238,-1020,-622,-251,117,137,-65
10953,4273,0,2023-03-10T14:07:31.044120,6329222,1384,476,1238,-1020,-622,-251,117,137,-65
10954,4274,0,2023-03-10T14:07:31.048608,6329226,1384,476,1238,-1020,-622,-251,117,137,-65
10955,4275,0,2023-03-10T14:07:31.053149,6329230,1384,476,1238,-1020,-622,-251,117,137,-65
10956,4276,0,2023-03-10T14:07:31.057583,6329235,1403,479,1234,-1020,-629,-268,117,137,-65
10957,4277,0,2023-03-10T14:07:31.062672,6329240,1403,479,1234,-1020,-629,-268,117,137,-65
10958,4278,0,2023-03-10T14:07:31.067398,6329244,1403,479,1234,-1020,-629,-268,117,137,-65
10959,4279,0,2023-03-10T14:07:31.072593,6329250,1403,479,1234,-1020,-629,-268,117,137,-65
10960,4280,0,2023-03-10T14:07:31.077131,6329254,1423,495,1245,-1016,-631,-274,124,137,-65
10961,4281,0,2023-03-10T14:07:31.082069,6329260,1423,495,1245,-1016,-631,-274,124,138,-72
10962,4282,0,2023-03-10T14:07:31.086863,6329264,1423,495,1245,-1016,-631,-274,124,138,-72
10963,4283,0,2023-03-10T14:07:31.091936,6329269,1423,495,1245,-1016,-631,-274,124,138,-72
10964,4284,0,2023-03-10T14:07:31.097221,6329274,1375,468,1226,-1009,-645,-212,124,138,-72
10965,4285,0,2023-03-10T14:07:31.102169,6329279,1375,468,1226,-1009,-645,-212,124,138,-72
10966,4286,0,2023-03-10T14:07:31.106853,6329284,1375,468,1226,-1009,-645,-212,124,138,-72
10967,4287,0,2023-03-10T14:07:31.111802,6329289,1375,468,1226,-1009,-645,-212,124,138,-72
10968,4288,0,2023-03-10T14:07:31.116300,6329293,1375,468,1226,-1009,-645,-212,124,138,-72
10969,4289,0,2023-03-10T14:07:31.121034,6329298,1416,489,1250,-1018,-612,-298,124,138,-72
10970,4290,0,2023-03-10T14:07:31.125574,6329303,1416,489,1250,-1018,-612,-298,124,138,-72
10971,4291,0,2023-03-10T14:07:31.130032,6329308,1416,489,1250,-1018,-612,-298,124,138,-72
10972,4292,0,2023-03-10T14:07:31.134525,6329312,1416,489,1250,-1018,-612,-298,124,138,-72
10973,4293,0,2023-03-10T14:07:31.138995,6329316,1406,487,1229,-1017,-657,-254,124,138,-72
10974,4294,0,2023-03-10T14:07:31.144065,6329321,1406,487,1229,-1017,-657,-254,124,138,-72
10975,4295,0,2023-03-10T14:07:31.148727,6329326,1406,487,1229,-1017,-657,-254,124,138,-72
10976,4296,0,2023-03-10T14:07:31.152990,6329330,1406,487,1229,-1017,-657,-254,124,138,-72
10977,4297,0,2023-03-10T14:07:31.157897,6329335,1391,481,1249,-986,-597,-224,124,138,-72
10978,4298,0,2023-03-10T14:07:31.163449,6329340,1391,481,1249,-986,-597,-224,124,138,-72
10979,4299,0,2023-03-10T14:07:31.167948,6329346,1391,481,1249,-986,-597,-224,124,138,-72
10980,4300,0,2023-03-10T14:07:31.172946,6329351,1391,481,1249,-986,-597,-224,124,138,-72
10981,4301,0,2023-03-10T14:07:31.177525,6329355,1410,489,1238,-1019,-652,-292,124,138,-72
10982,4302,0,2023-03-10T14:07:31.182928,6329360,1410,489,1238,-1019,-652,-292,124,138,-72
10983,4303,0,2023-03-10T14:07:31.187504,6329365,1410,489,1238,-1019,-652,-292,124,138,-72
10984,4304,0,2023-03-10T14:07:31.192585,6329370,1410,489,1238,-1019,-652,-292,124,138,-72
10985,4305,0,2023-03-10T14:07:31.197125,6329374,1401,484,1235,-1021,-618,-264,124,138,-72
10986,4306,0,2023-03-10T14:07:31.201556,6329379,1401,484,1235,-1021,-618,-264,124,138,-72
10987,4307,0,2023-03-10T14:07:31.206182,6329383,1401,484,1235,-1021,-618,-264,124,138,-72
10988,4308,0,2023-03-10T14:07:31.210953,6329389,1401,484,1235,-1021,-618,-264,124,138,-72
10989,4309,0,2023-03-10T14:07:31.216271,6329394,1401,484,1235,-1021,-618,-264,124,138,-72
10990,4310,0,2023-03-10T14:07:31.220984,6329398,1408,489,1233,-1020,-623,-287,121,135,-75
10991,4311,0,2023-03-10T14:07:31.226026,6329403,1408,489,1233,-1020,-623,-287,121,135,-75
10992,4312,0,2023-03-10T14:07:31.230481,6329408,1408,489,1233,-1020,-623,-287,121,135,-75
10993,4313,0,2023-03-10T14:07:31.235083,6329412,1408,489,1233,-1020,-623,-287,121,135,-75
10994,4314,0,2023-03-10T14:07:31.240074,6329417,1393,479,1239,-1004,-634,-229,121,135,-75
10995,4315,0,2023-03-10T14:07:31.245326,6329422,1393,479,1239,-1004,-634,-229,121,135,-75
10996,4316,0,2023-03-10T14:07:31.249670,6329427,1393,479,1239,-1004,-634,-229,121,135,-75
10997,4317,0,2023-03-10T14:07:31.254740,6329433,1393,479,1239,-1004,-634,-229,121,135,-75
10998,4318,0,2023-03-10T14:07:31.259373,6329437,1416,487,1244,-1001,-626,-285,121,135,-75
10999,4319,0,2023-03-10T14:07:31.264583,6329442,1416,487,1244,-1001,-626,-285,121,135,-75
11000,4320,0,2023-03-10T14:07:31.269024,6329446,1416,487,1244,-1001,-626,-285,121,135,-75
11001,4321,0,2023-03-10T14:07:31.274111,6329451,1416,487,1244,-1001,-626,-285,121,135,-75
11002,4322,0,2023-03-10T14:07:31.278672,6329456,1416,487,1244,-1001,-626,-285,121,135,-75
11003,4323,0,2023-03-10T14:07:31.283168,6329460,1416,487,1244,-1001,-626,-285,121,135,-75
11004,4324,0,2023-03-10T14:07:31.287608,6329465,1416,487,1244,-1001,-626,-285,121,135,-75
11005,4325,0,2023-03-10T14:07:31.292541,6329469,1416,487,1244,-1001,-626,-285,121,135,-75
11006,4326,0,2023-03-10T14:07:31.297012,6329475,1400,483,1250,-986,-636,-217,121,135,-75
11007,4327,0,2023-03-10T14:07:31.302232,6329480,1400,483,1250,-986,-636,-217,121,135,-75
11008,4328,0,2023-03-10T14:07:31.306658,6329484,1400,483,1250,-986,-636,-217,121,135,-75
11009,4329,0,2023-03-10T14:07:31.311181,6329489,1400,483,1250,-986,-636,-217,121,135,-75
11010,4330,0,2023-03-10T14:07:31.316419,6329494,1400,483,1250,-986,-636,-217,121,135,-75
11011,4331,0,2023-03-10T14:07:31.321035,6329498,1419,487,1241,-1015,-635,-280,121,135,-75
11012,4332,0,2023-03-10T14:07:31.325494,6329502,1419,487,1241,-1015,-635,-280,121,135,-75
11013,4333,0,2023-03-10T14:07:31.329933,6329507,1419,487,1241,-1015,-635,-280,121,135,-75
11014,4334,0,2023-03-10T14:07:31.334964,6329512,1419,487,1241,-1015,-635,-280,121,135,-75
11015,4335,0,2023-03-10T14:07:31.339715,6329517,1388,478,1230,-1043,-619,-282,124,136,-84
11016,4336,0,2023-03-10T14:07:31.344918,6329523,1388,478,1230,-1043,-619,-282,124,136,-84
11017,4337,0,2023-03-10T14:07:31.350033,6329527,1388,478,1230,-1043,-619,-282,124,136,-84
11018,4338,0,2023-03-10T14:07:31.355248,6329533,1388,478,1230,-1043,-619,-282,124,136,-84
11019,4339,0,2023-03-10T14:07:31.359797,6329537,1402,481,1246,-1003,-642,-269,124,136,-84
11020,4340,0,2023-03-10T14:07:31.365077,6329542,1402,481,1246,-1003,-642,-269,124,136,-84
11021,4341,0,2023-03-10T14:07:31.369766,6329547,1402,481,1246,-1003,-642,-269,124,136,-84
11022,4342,0,2023-03-10T14:07:31.374830,6329552,1402,481,1246,-1003,-642,-269,124,136,-84
11023,4343,0,2023-03-10T14:07:31.379472,6329556,1405,487,1246,-1034,-614,-285,124,136,-84
11024,4344,0,2023-03-10T14:07:31.384548,6329562,1405,487,1246,-1034,-614,-285,124,136,-84
11025,4345,0,2023-03-10T14:07:31.389007,6329567,1405,487,1246,-1034,-614,-285,124,136,-84
11026,4346,0,2023-03-10T14:07:31.393624,6329571,1405,487,1246,-1034,-614,-285,124,136,-84
11027,4347,0,2023-03-10T14:07:31.398751,6329576,1409,487,1233,-1010,-642,-251,124,136,-84
11028,4348,0,2023-03-10T14:07:31.403743,6329581,1409,487,1233,-1010,-642,-251,124,136,-84
11029,4349,0,2023-03-10T14:07:31.408050,6329585,1409,487,1233,-1010,-642,-251,124,136,-84
11030,4350,0,2023-03-10T14:07:31.413121,6329590,1409,487,1233,-1010,-642,-251,124,136,-84
11031,4351,0,2023-03-10T14:07:31.419395,6329596,1386,476,1244,-992,-623,-217,124,136,-84
11032,4352,0,2023-03-10T14:07:31.424639,6329602,1386,476,1244,-992,-623,-217,124,136,-84
11033,4353,0,2023-03-10T14:07:31.429072,6329607,1386,476,1244,-992,-623,-217,124,136,-84
11034,4354,0,2023-03-10T14:07:31.434243,6329612,1386,476,1244,-992,-623,-217,124,136,-84
11035,4355,0,2023-03-10T14:07:31.438956,6329616,1412,487,1236,-1029,-654,-289,124,136,-84
11036,4356,0,2023-03-10T14:07:31.444121,6329621,1412,487,1236,-1029,-654,-289,124,136,-84
11037,4357,0,2023-03-10T14:07:31.448708,6329626,1412,487,1236,-1029,-654,-289,124,136,-84
11038,4358,0,2023-03-10T14:07:31.453883,6329631,1412,487,1236,-1029,-654,-289,124,136,-84
11039,4359,0,2023-03-10T14:07:31.458352,6329635,1422,485,1223,-1026,-636,-272,118,126,-76
11040,4360,0,2023-03-10T14:07:31.463554,6329640,1422,485,1223,-1026,-636,-272,118,126,-76
11041,4361,0,2023-03-10T14:07:31.468224,6329646,1422,485,1223,-1026,-636,-272,118,126,-76
11042,4362,0,2023-03-10T14:07:31.472952,6329650,1422,485,1223,-1026,-636,-272,118,126,-76
11043,4363,0,2023-03-10T14:07:31.477420,6329655,1380,475,1232,-1006,-610,-244,118,126,-76
11044,4364,0,2023-03-10T14:07:31.482493,6329660,1380,475,1232,-1006,-610,-244,118,126,-76
11045,4365,0,2023-03-10T14:07:31.487132,6329665,1380,475,1232,-1006,-610,-244,118,126,-76
11046,4366,0,2023-03-10T14:07:31.491587,6329669,1380,475,1232,-1006,-610,-244,118,126,-76
11047,4367,0,2023-03-10T14:07:31.496196,6329673,1380,475,1232,-1006,-610,-244,118,126,-76
11048,4368,0,2023-03-10T14:07:31.500927,6329678,1431,500,1243,-1021,-638,-298,118,126,-76
11049,4369,0,2023-03-10T14:07:31.506073,6329683,1431,500,1243,-1021,-638,-298,118,126,-76
11050,4370,0,2023-03-10T14:07:31.510602,6329688,1431,500,1243,-1021,-638,-298,118,126,-76
11051,4371,0,2023-03-10T14:07:31.515614,6329693,1431,500,1243,-1021,-638,-298,118,126,-76
11052,4372,0,2023-03-10T14:07:31.520128,6329698,1390,479,1243,-1005,-616,-226,118,126,-76
11053,4373,0,2023-03-10T14:07:31.525162,6329702,1390,479,1243,-1005,-616,-226,118,126,-76
11054,4374,0,2023-03-10T14:07:31.529756,6329707,1390,479,1243,-1005,-616,-226,118,126,-76
11055,4375,0,2023-03-10T14:07:31.534730,6329712,1390,479,1243,-1005,-616,-226,118,126,-76
11056,4376,0,2023-03-10T14:07:31.539613,6329716,1393,480,1243,-1028,-608,-293,118,126,-76
11057,4377,0,2023-03-10T14:07:31.544985,6329722,1393,480,1243,-1028,-608,-293,118,126,-76
11058,4378,0,2023-03-10T14:07:31.549900,6329728,1393,480,1243,-1028,-608,-293,118,126,-76
11059,4379,0,2023-03-10T14:07:31.554782,6329733,1393,480,1243,-1028,-608,-293,118,126,-76
11060,4380,0,2023-03-10T14:07:31.559401,6329737,1412,483,1247,-1032,-660,-270,118,126,-76
11061,4381,0,2023-03-10T14:07:31.564325,6329742,1412,483,1247,-1032,-660,-270,118,126,-76
11062,4382,0,2023-03-10T14:07:31.568669,6329746,1412,483,1247,-1032,-660,-270,118,126,-76
11063,4383,0,2023-03-10T14:07:31.573489,6329751,1412,483,1247,-1032,-660,-270,118,126,-76
11064,4384,0,2023-03-10T14:07:31.578283,6329755,1417,488,1233,-1005,-632,-275,118,126,-76
11065,4385,0,2023-03-10T14:07:31.583312,6329760,1417,488,1233,-1005,-632,-275,118,126,-76
11066,4386,0,2023-03-10T14:07:31.587723,6329765,1417,488,1233,-1005,-632,-275,118,126,-76
11067,4387,0,2023-03-10T14:07:31.592732,6329771,1417,488,1233,-1005,-632,-275,118,126,-76
11068,4388,0,2023-03-10T14:07:31.597536,6329775,1396,475,1236,-1011,-607,-245,118,126,-76
11069,4389,0,2023-03-10T14:07:31.602412,6329780,1396,475,1236,-1011,-607,-245,116,130,-74
11070,4390,0,2023-03-10T14:07:31.606899,6329784,1396,475,1236,-1011,-607,-245,116,130,-74
11071,4391,0,2023-03-10T14:07:31.611330,6329789,1396,475,1236,-1011,-607,-245,116,130,-74
11072,4392,0,2023-03-10T14:07:31.616178,6329793,1396,475,1236,-1011,-607,-245,116,130,-74
11073,4393,0,2023-03-10T14:07:31.621422,6329799,1404,485,1230,-995,-650,-263,116,130,-74
11074,4394,0,2023-03-10T14:07:31.626428,6329803,1404,485,1230,-995,-650,-263,116,130,-74
11075,4395,0,2023-03-10T14:07:31.631132,6329808,1404,485,1230,-995,-650,-263,116,130,-74
11076,4396,0,2023-03-10T14:07:31.635445,6329812,1404,485,1230,-995,-650,-263,116,130,-74
11077,4397,0,2023-03-10T14:07:31.640117,6329818,1413,477,1243,-1013,-597,-269,116,130,-74
11078,4398,0,2023-03-10T14:07:31.645157,6329823,1413,477,1243,-1013,-597,-269,116,130,-74
11079,4399,0,2023-03-10T14:07:31.649916,6329827,1413,477,1243,-1013,-597,-269,116,130,-74
11080,4400,0,2023-03-10T14:07:31.654999,6329832,1413,477,1243,-1013,-597,-269,116,130,-74
11081,4401,0,2023-03-10T14:07:31.659538,6329837,1409,492,1226,-1013,-640,-279,116,130,-74
11082,4402,0,2023-03-10T14:07:31.668432,6329842,1409,492,1226,-1013,-640,-279,116,130,-74
11083,4403,0,2023-03-10T14:07:31.672840,6329850,1409,492,1226,-1013,-640,-279,116,130,-74
11084,4404,0,2023-03-10T14:07:31.677834,6329856,1397,480,1244,-1001,-603,-217,116,130,-74
11085,4405,0,2023-03-10T14:07:31.683055,6329861,1397,480,1244,-1001,-603,-217,116,130,-74
11086,4406,0,2023-03-10T14:07:31.687558,6329865,1397,480,1244,-1001,-603,-217,116,130,-74
11087,4407,0,2023-03-10T14:07:31.692423,6329870,1397,480,1244,-1001,-603,-217,116,130,-74
11088,4408,0,2023-03-10T14:07:31.696965,6329874,1397,480,1244,-1001,-603,-217,116,130,-74
11089,4409,0,2023-03-10T14:07:31.701431,6329879,1408,482,1244,-994,-645,-266,116,130,-74
11090,4410,0,2023-03-10T14:07:31.706217,6329883,1408,482,1244,-994,-645,-266,116,130,-74
11091,4411,0,2023-03-10T14:07:31.710814,6329888,1408,482,1244,-994,-645,-266,116,130,-74
11092,4412,0,2023-03-10T14:07:31.715996,6329893,1408,482,1244,-994,-645,-266,116,130,-74
11093,4413,0,2023-03-10T14:07:31.720958,6329899,1423,484,1232,-1030,-619,-277,122,128,-72
11094,4414,0,2023-03-10T14:07:31.725905,6329904,1423,484,1232,-1030,-619,-277,122,128,-72
11095,4415,0,2023-03-10T14:07:31.730484,6329908,1423,484,1232,-1030,-619,-277,122,128,-72
11096,4416,0,2023-03-10T14:07:31.735236,6329913,1423,484,1232,-1030,-619,-277,122,128,-72
11097,4417,0,2023-03-10T14:07:31.739506,6329917,1407,480,1236,-993,-645,-249,122,128,-72
11098,4418,0,2023-03-10T14:07:31.744506,6329922,1407,480,1236,-993,-645,-249,122,128,-72
11099,4419,0,2023-03-10T14:07:31.749101,6329926,1407,480,1236,-993,-645,-249,122,128,-72
11100,4420,0,2023-03-10T14:07:31.754301,6329931,1407,480,1236,-993,-645,-249,122,128,-72
11101,4421,0,2023-03-10T14:07:31.758894,6329936,1407,487,1229,-1007,-623,-266,122,128,-72
11102,4422,0,2023-03-10T14:07:31.763718,6329942,1407,487,1229,-1007,-623,-266,122,128,-72
11103,4423,0,2023-03-10T14:07:31.768148,6329946,1407,487,1229,-1007,-623,-266,122,128,-72
11104,4424,0,2023-03-10T14:07:31.773284,6329951,1407,487,1229,-1007,-623,-266,122,128,-72
11105,4425,0,2023-03-10T14:07:31.777805,6329955,1416,488,1238,-1014,-636,-279,122,128,-72
11106,4426,0,2023-03-10T14:07:31.782594,6329960,1416,488,1238,-1014,-636,-279,122,128,-72
11107,4427,0,2023-03-10T14:07:31.786987,6329964,1416,488,1238,-1014,-636,-279,122,128,-72
11108,4428,0,2023-03-10T14:07:31.791377,6329969,1416,488,1238,-1014,-636,-279,122,128,-72
11109,4429,0,2023-03-10T14:07:31.796545,6329973,1416,488,1238,-1014,-636,-279,122,128,-72
11110,4430,0,2023-03-10T14:07:31.800913,6329978,1405,484,1239,-1022,-617,-277,122,128,-72
11111,4431,0,2023-03-10T14:07:31.805765,6329984,1405,484,1239,-1022,-617,-277,122,128,-72
11112,4432,0,2023-03-10T14:07:31.810400,6329988,1405,484,1239,-1022,-617,-277,122,128,-72
11113,4433,0,2023-03-10T14:07:31.815365,6329993,1405,484,1239,-1022,-617,-277,122,128,-72
11114,4434,0,2023-03-10T14:07:31.819766,6329997,1390,472,1218,-1019,-638,-258,122,128,-72
11115,4435,0,2023-03-10T14:07:31.824876,6330002,1390,472,1218,-1019,-638,-258,122,128,-72
11116,4436,0,2023-03-10T14:07:31.829250,6330007,1390,472,1218,-1019,-638,-258,122,128,-72
11117,4437,0,2023-03-10T14:07:31.834334,6330012,1390,472,1218,-1019,-638,-258,122,128,-72
11118,4438,0,2023-03-10T14:07:31.838897,6330016,1426,491,1244,-990,-616,-251,122,128,-72
11119,4439,0,2023-03-10T14:07:31.844075,6330021,1426,491,1244,-990,-616,-251,122,128,-72
11120,4440,0,2023-03-10T14:07:31.848392,6330025,1426,491,1244,-990,-616,-251,122,128,-72
11121,4441,0,2023-03-10T14:07:31.853435,6330031,1426,491,1244,-990,-616,-251,122,128,-72
11122,4442,0,2023-03-10T14:07:31.857880,6330036,1407,474,1222,-993,-651,-229,119,133,-79
11123,4443,0,2023-03-10T14:07:31.863118,6330041,1407,474,1222,-993,-651,-229,119,133,-79
11124,4444,0,2023-03-10T14:07:31.867790,6330045,1407,474,1222,-993,-651,-229,119,133,-79
11125,4445,0,2023-03-10T14:07:31.872863,6330050,1407,474,1222,-993,-651,-229,119,133,-79
11126,4446,0,2023-03-10T14:07:31.877472,6330055,1407,474,1222,-993,-651,-229,119,133,-79
11127,4447,0,2023-03-10T14:07:31.882073,6330059,1405,488,1221,-1023,-649,-282,119,133,-79
11128,4448,0,2023-03-10T14:07:31.886850,6330064,1405,488,1221,-1023,-649,-282,119,133,-79
11129,4449,0,2023-03-10T14:07:31.891301,6330068,1405,488,1221,-1023,-649,-282,119,133,-79
11130,4450,0,2023-03-10T14:07:31.895774,6330074,1405,488,1221,-1023,-649,-282,119,133,-79
11131,4451,0,2023-03-10T14:07:31.900671,6330078,1415,478,1241,-1028,-613,-263,119,133,-79
11132,4452,0,2023-03-10T14:07:31.905977,6330083,1415,478,1241,-1028,-613,-263,119,133,-79
11133,4453,0,2023-03-10T14:07:31.910516,6330088,1415,478,1241,-1028,-613,-263,119,133,-79
11134,4454,0,2023-03-10T14:07:31.915461,6330093,1415,478,1241,-1028,-613,-263,119,133,-79
11135,4455,0,2023-03-10T14:07:31.920254,6330097,1401,487,1223,-1001,-691,-261,119,133,-79
11136,4456,0,2023-03-10T14:07:31.925360,6330102,1401,487,1223,-1001,-691,-261,119,133,-79
11137,4457,0,2023-03-10T14:07:31.929848,6330107,1401,487,1223,-1001,-691,-261,119,133,-79
11138,4458,0,2023-03-10T14:07:31.935224,6330113,1401,487,1223,-1001,-691,-261,119,133,-79
11139,4459,0,2023-03-10T14:07:31.939949,6330117,1418,476,1232,-1027,-615,-260,119,133,-79
11140,4460,0,2023-03-10T14:07:31.944678,6330122,1418,476,1232,-1027,-615,-260,119,133,-79
11141,4461,0,2023-03-10T14:07:31.949242,6330127,1418,476,1232,-1027,-615,-260,119,133,-79
11142,4462,0,2023-03-10T14:07:31.954502,6330132,1418,476,1232,-1027,-615,-260,119,133,-79
11143,4463,0,2023-03-10T14:07:31.959218,6330137,1401,491,1236,-1015,-573,-266,119,133,-79
11144,4464,0,2023-03-10T14:07:31.964557,6330141,1401,491,1236,-1015,-573,-266,119,133,-79
11145,4465,0,2023-03-10T14:07:31.968941,6330146,1401,491,1236,-1015,-573,-266,119,133,-79
11146,4466,0,2023-03-10T14:07:31.973793,6330151,1401,491,1236,-1015,-573,-266,119,133,-79
11147,4467,0,2023-03-10T14:07:31.978490,6330156,1414,480,1243,-1004,-658,-232,121,131,-73
11148,4468,0,2023-03-10T14:07:31.983459,6330161,1414,480,1243,-1004,-658,-232,121,131,-73
11149,4469,0,2023-03-10T14:07:31.987867,6330166,1414,480,1243,-1004,-658,-232,121,131,-73
11150,4470,0,2023-03-10T14:07:31.992236,6330170,1414,480,1243,-1004,-658,-232,121,131,-73
11151,4471,0,2023-03-10T14:07:31.997114,6330174,1414,480,1243,-1004,-658,-232,121,131,-73
11152,4472,0,2023-03-10T14:07:32.002485,6330180,1408,482,1236,-1004,-633,-269,121,131,-73
11153,4473,0,2023-03-10T14:07:32.006942,6330184,1408,482,1236,-1004,-633,-269,121,131,-73
11154,4474,0,2023-03-10T14:07:32.011408,6330189,1408,482,1236,-1004,-633,-269,121,131,-73
11155,4475,0,2023-03-10T14:07:32.016753,6330193,1408,482,1236,-1004,-633,-269,121,131,-73
11156,4476,0,2023-03-10T14:07:32.022148,6330200,1420,478,1223,-1033,-635,-264,121,131,-73
11157,4477,0,2023-03-10T14:07:32.027159,6330205,1420,478,1223,-1033,-635,-264,121,131,-73
11158,4478,0,2023-03-10T14:07:32.032296,6330210,1420,478,1223,-1033,-635,-264,121,131,-73
11159,4479,0,2023-03-10T14:07:32.036988,6330214,1420,478,1223,-1033,-635,-264,121,131,-73
11160,4480,0,2023-03-10T14:07:32.041371,6330219,1412,485,1234,-1003,-630,-271,121,131,-73
11161,4481,0,2023-03-10T14:07:32.046587,6330224,1412,485,1234,-1003,-630,-271,121,131,-73
11162,4482,0,2023-03-10T14:07:32.051228,6330228,1412,485,1234,-1003,-630,-271,121,131,-73
11163,4483,0,2023-03-10T14:07:32.055942,6330233,1412,485,1234,-1003,-630,-271,121,131,-73
11164,4484,0,2023-03-10T14:07:32.060562,6330237,1430,485,1231,-1015,-621,-261,121,131,-73
11165,4485,0,2023-03-10T14:07:32.065242,6330243,1430,485,1231,-1015,-621,-261,121,131,-73
11166,4486,0,2023-03-10T14:07:32.069618,6330247,1430,485,1231,-1015,-621,-261,121,131,-73
11167,4487,0,2023-03-10T14:07:32.074258,6330252,1430,485,1231,-1015,-621,-261,121,131,-73
11168,4488,0,2023-03-10T14:07:32.079195,6330257,1395,482,1234,-986,-624,-254,121,131,-73
11169,4489,0,2023-03-10T14:07:32.084323,6330262,1395,482,1234,-986,-624,-254,121,131,-73
11170,4490,0,2023-03-10T14:07:32.089019,6330266,1395,482,1234,-986,-624,-254,121,131,-73
11171,4491,0,2023-03-10T14:07:32.093492,6330271,1395,482,1234,-986,-624,-254,121,131,-73
11172,4492,0,2023-03-10T14:07:32.098201,6330275,1395,482,1234,-986,-624,-254,121,131,-73
11173,4493,0,2023-03-10T14:07:32.102746,6330280,1415,482,1226,-1045,-624,-290,121,131,-73
11174,4494,0,2023-03-10T14:07:32.107916,6330286,1415,482,1226,-1045,-624,-290,121,131,-73
11175,4495,0,2023-03-10T14:07:32.112859,6330291,1415,482,1226,-1045,-624,-290,121,131,-73
11176,4496,0,2023-03-10T14:07:32.117264,6330295,1415,482,1226,-1045,-624,-290,121,131,-73
11177,4497,0,2023-03-10T14:07:32.121977,6330299,1432,488,1239,-997,-677,-280,122,134,-80
11178,4498,0,2023-03-10T14:07:32.127468,6330305,1432,488,1239,-997,-677,-280,122,134,-80
11179,4499,0,2023-03-10T14:07:32.132338,6330309,1432,488,1239,-997,-677,-280,122,134,-80
11180,4500,0,2023-03-10T14:07:32.136797,6330314,1432,488,1239,-997,-677,-280,122,134,-80
11181,4501,0,2023-03-10T14:07:32.141351,6330318,1409,481,1218,-1017,-623,-257,122,134,-80
11182,4502,0,2023-03-10T14:07:32.146468,6330323,1409,481,1218,-1017,-623,-257,122,134,-80
11183,4503,0,2023-03-10T14:07:32.150987,6330329,1409,481,1218,-1017,-623,-257,122,134,-80
11184,4504,0,2023-03-10T14:07:32.156193,6330334,1409,481,1218,-1017,-623,-257,122,134,-80
11185,4505,0,2023-03-10T14:07:32.161391,6330339,1423,479,1228,-996,-626,-253,122,134,-80
11186,4506,0,2023-03-10T14:07:32.166256,6330344,1423,479,1228,-996,-626,-253,122,134,-80
11187,4507,0,2023-03-10T14:07:32.170697,6330348,1423,479,1228,-996,-626,-253,122,134,-80
11188,4508,0,2023-03-10T14:07:32.175212,6330352,1423,479,1228,-996,-626,-253,122,134,-80
11189,4509,0,2023-03-10T14:07:32.180215,6330357,1409,489,1228,-1004,-625,-265,122,134,-80
11190,4510,0,2023-03-10T14:07:32.185361,6330362,1409,489,1228,-1004,-625,-265,122,134,-80
11191,4511,0,2023-03-10T14:07:32.190033,6330368,1409,489,1228,-1004,-625,-265,122,134,-80
11192,4512,0,2023-03-10T14:07:32.194829,6330373,1409,489,1228,-1004,-625,-265,122,134,-80
11193,4513,0,2023-03-10T14:07:32.199342,6330377,1426,484,1221,-1030,-638,-270,122,134,-80
11194,4514,0,2023-03-10T14:07:32.205680,6330383,1426,484,1221,-1030,-638,-270,122,134,-80
11195,4515,0,2023-03-10T14:07:32.210290,6330387,1426,484,1221,-1030,-638,-270,122,134,-80
11196,4516,0,2023-03-10T14:07:32.214708,6330392,1426,484,1221,-1030,-638,-270,122,134,-80
11197,4517,0,2023-03-10T14:07:32.219261,6330396,1408,483,1228,-1014,-623,-257,122,134,-80
11198,4518,0,2023-03-10T14:07:32.224329,6330401,1408,483,1228,-1014,-623,-257,122,134,-80
11199,4519,0,2023-03-10T14:07:32.228780,6330406,1408,483,1228,-1014,-623,-257,122,134,-80
11200,4520,0,2023-03-10T14:07:32.233442,6330411,1408,483,1228,-1014,-623,-257,122,134,-80
11201,4521,0,2023-03-10T14:07:32.238108,6330416,1408,483,1228,-1014,-623,-257,122,134,-80
11202,4522,0,2023-03-10T14:07:32.242467,6330420,1423,474,1224,-1033,-627,-270,118,134,-78
11203,4523,0,2023-03-10T14:07:32.247537,6330425,1423,474,1224,-1033,-627,-270,118,134,-78
11204,4524,0,2023-03-10T14:07:32.252336,6330430,1423,474,1224,-1033,-627,-270,118,134,-78
11205,4525,0,2023-03-10T14:07:32.257073,6330434,1423,474,1224,-1033,-627,-270,118,134,-78
11206,4526,0,2023-03-10T14:07:32.261522,6330439,1413,487,1228,-994,-635,-248,118,134,-78
11207,4527,0,2023-03-10T14:07:32.266445,6330444,1413,487,1228,-994,-635,-248,118,134,-78
11208,4528,0,2023-03-10T14:07:32.271236,6330448,1413,487,1228,-994,-635,-248,118,134,-78
11209,4529,0,2023-03-10T14:07:32.276183,6330454,1413,487,1228,-994,-635,-248,118,134,-78
11210,4530,0,2023-03-10T14:07:32.280532,6330458,1426,481,1230,-1004,-634,-227,118,134,-78
11211,4531,0,2023-03-10T14:07:32.285838,6330463,1426,481,1230,-1004,-634,-227,118,134,-78
11212,4532,0,2023-03-10T14:07:32.290238,6330468,1426,481,1230,-1004,-634,-227,118,134,-78
11213,4533,0,2023-03-10T14:07:32.295116,6330473,1426,481,1230,-1004,-634,-227,118,134,-78
11214,4534,0,2023-03-10T14:07:32.299698,6330477,1402,478,1225,-1018,-618,-280,118,134,-78
11215,4535,0,2023-03-10T14:07:32.304810,6330482,1402,478,1225,-1018,-618,-280,118,134,-78
11216,4536,0,2023-03-10T14:07:32.309609,6330486,1402,478,1225,-1018,-618,-280,118,134,-78
11217,4537,0,2023-03-10T14:07:32.314565,6330492,1402,478,1225,-1018,-618,-280,118,134,-78
11218,4538,0,2023-03-10T14:07:32.319018,6330497,1431,480,1224,-1036,-659,-266,118,134,-78
11219,4539,0,2023-03-10T14:07:32.324055,6330502,1431,480,1224,-1036,-659,-266,118,134,-78
11220,4540,0,2023-03-10T14:07:32.328448,6330506,1431,480,1224,-1036,-659,-266,118,134,-78
11221,4541,0,2023-03-10T14:07:32.333091,6330510,1431,480,1224,-1036,-659,-266,118,134,-78
11222,4542,0,2023-03-10T14:07:32.337506,6330515,1431,480,1224,-1036,-659,-266,118,134,-78
11223,4543,0,2023-03-10T14:07:32.342298,6330519,1433,489,1234,-1005,-620,-289,118,134,-78
11224,4544,0,2023-03-10T14:07:32.347223,6330525,1433,489,1234,-1005,-620,-289,118,134,-78
11225,4545,0,2023-03-10T14:07:32.352165,6330529,1433,489,1234,-1005,-620,-289,118,134,-78
11226,4546,0,2023-03-10T14:07:32.357045,6330534,1433,489,1234,-1005,-620,-289,118,134,-78
11227,4547,0,2023-03-10T14:07:32.361535,6330539,1399,469,1218,-1026,-615,-221,121,133,-71
11228,4548,0,2023-03-10T14:07:32.366216,6330544,1399,469,1218,-1026,-615,-221,121,133,-71
11229,4549,0,2023-03-10T14:07:32.370626,6330548,1399,469,1218,-1026,-615,-221,121,133,-71
11230,4550,0,2023-03-10T14:07:32.375662,6330553,1399,469,1218,-1026,-615,-221,121,133,-71
11231,4551,0,2023-03-10T14:07:32.380028,6330558,1402,478,1246,-983,-634,-253,121,133,-71
11232,4552,0,2023-03-10T14:07:32.385276,6330563,1402,478,1246,-983,-634,-253,121,133,-71
11233,4553,0,2023-03-10T14:07:32.389655,6330567,1402,478,1246,-983,-634,-253,121,133,-71
11234,4554,0,2023-03-10T14:07:32.394501,6330572,1402,478,1246,-983,-634,-253,121,133,-71
11235,4555,0,2023-03-10T14:07:32.398889,6330576,1425,482,1229,-1047,-629,-296,121,133,-71
11236,4556,0,2023-03-10T14:07:32.404030,6330582,1425,482,1229,-1047,-629,-296,121,133,-71
11237,4557,0,2023-03-10T14:07:32.408558,6330586,1425,482,1229,-1047,-629,-296,121,133,-71
11238,4558,0,2023-03-10T14:07:32.413551,6330591,1425,482,1229,-1047,-629,-296,121,133,-71
11239,4559,0,2023-03-10T14:07:32.418270,6330596,1425,482,1229,-1047,-629,-296,121,133,-71
11240,4560,0,2023-03-10T14:07:32.422816,6330600,1424,486,1218,-1004,-653,-260,121,133,-71
11241,4561,0,2023-03-10T14:07:32.427356,6330605,1424,486,1218,-1004,-653,-260,121,133,-71
11242,4562,0,2023-03-10T14:07:32.432146,6330609,1424,486,1218,-1004,-653,-260,121,133,-71
11243,4563,0,2023-03-10T14:07:32.436549,6330614,1424,486,1218,-1004,-653,-260,121,133,-71
11244,4564,0,2023-03-10T14:07:32.441841,6330619,1408,474,1223,-1012,-623,-245,121,133,-71
11245,4565,0,2023-03-10T14:07:32.446992,6330625,1408,474,1223,-1012,-623,-245,121,133,-71
11246,4566,0,2023-03-10T14:07:32.451903,6330629,1408,474,1223,-1012,-623,-245,121,133,-71
11247,4567,0,2023-03-10T14:07:32.456355,6330634,1408,474,1223,-1012,-623,-245,121,133,-71
11248,4568,0,2023-03-10T14:07:32.461150,6330639,1430,491,1223,-1012,-606,-272,121,133,-71
11249,4569,0,2023-03-10T14:07:32.466084,6330644,1430,491,1223,-1012,-606,-272,121,133,-71
11250,4570,0,2023-03-10T14:07:32.470418,6330648,1430,491,1223,-1012,-606,-272,121,133,-71
11251,4571,0,2023-03-10T14:07:32.474699,6330652,1430,491,1223,-1012,-606,-272,121,133,-71
11252,4572,0,2023-03-10T14:07:32.479235,6330656,1427,486,1231,-981,-649,-236,121,133,-71
11253,4573,0,2023-03-10T14:07:32.484407,6330661,1427,486,1231,-981,-649,-236,121,133,-71
11254,4574,0,2023-03-10T14:07:32.488851,6330667,1427,486,1231,-981,-649,-236,121,133,-71
11255,4575,0,2023-03-10T14:07:32.493768,6330672,1427,486,1231,-981,-649,-236,121,133,-71
11256,4576,0,2023-03-10T14:07:32.498385,6330676,1427,486,1231,-981,-649,-236,121,133,-71
11257,4577,0,2023-03-10T14:07:32.503281,6330681,1401,481,1219,-1032,-642,-277,126,136,-70
11258,4578,0,2023-03-10T14:07:32.508505,6330686,1401,481,1219,-1032,-642,-277,126,136,-70
11259,4579,0,2023-03-10T14:07:32.513371,6330691,1401,481,1219,-1032,-642,-277,126,136,-70
11260,4580,0,2023-03-10T14:07:32.517684,6330695,1401,481,1219,-1032,-642,-277,126,136,-70
11261,4581,0,2023-03-10T14:07:32.522510,6330699,1425,477,1235,-1028,-609,-278,126,136,-70
11262,4582,0,2023-03-10T14:07:32.527470,6330705,1425,477,1235,-1028,-609,-278,126,136,-70
11263,4583,0,2023-03-10T14:07:32.532120,6330710,1425,477,1235,-1028,-609,-278,126,136,-70
11264,4584,0,2023-03-10T14:07:32.536802,6330714,1425,477,1235,-1028,-609,-278,126,136,-70
11265,4585,0,2023-03-10T14:07:32.541101,6330719,1418,480,1232,-1006,-641,-266,126,136,-70
11266,4586,0,2023-03-10T14:07:32.545705,6330723,1418,480,1232,-1006,-641,-266,126,136,-70
11267,4587,0,2023-03-10T14:07:32.550238,6330728,1418,480,1232,-1006,-641,-266,126,136,-70
11268,4588,0,2023-03-10T14:07:32.555215,6330732,1418,480,1232,-1006,-641,-266,126,136,-70
11269,4589,0,2023-03-10T14:07:32.559775,6330737,1431,483,1222,-1020,-631,-265,126,136,-70
11270,4590,0,2023-03-10T14:07:32.564140,6330741,1431,483,1222,-1020,-631,-265,126,136,-70
11271,4591,0,2023-03-10T14:07:32.568576,6330746,1431,483,1222,-1020,-631,-265,126,136,-70
11272,4592,0,2023-03-10T14:07:32.573550,6330752,1431,483,1222,-1020,-631,-265,126,136,-70
11273,4593,0,2023-03-10T14:07:32.578261,6330756,1431,483,1222,-1020,-631,-265,126,136,-70
11274,4594,0,2023-03-10T14:07:32.582798,6330760,1407,483,1221,-1004,-619,-265,126,136,-70
11275,4595,0,2023-03-10T14:07:32.587482,6330765,1407,483,1221,-1004,-619,-265,126,136,-70
11276,4596,0,2023-03-10T14:07:32.592508,6330770,1407,483,1221,-1004,-619,-265,126,136,-70
11277,4597,0,2023-03-10T14:07:32.597063,6330774,1407,483,1221,-1004,-619,-265,126,136,-70
11278,4598,0,2023-03-10T14:07:32.601698,6330779,1426,480,1234,-1020,-612,-249,126,136,-70
11279,4599,0,2023-03-10T14:07:32.606618,6330784,1426,480,1234,-1020,-612,-249,126,136,-70
11280,4600,0,2023-03-10T14:07:32.611229,6330788,1426,480,1234,-1020,-612,-249,126,136,-70
11281,4601,0,2023-03-10T14:07:32.616378,6330793,1426,480,1234,-1020,-612,-249,126,136,-70
11282,4602,0,2023-03-10T14:07:32.621610,6330799,1438,490,1231,-1000,-657,-273,123,131,-77
11283,4603,0,2023-03-10T14:07:32.626401,6330804,1438,490,1231,-1000,-657,-273,123,131,-77
11284,4604,0,2023-03-10T14:07:32.630935,6330808,1438,490,1231,-1000,-657,-273,123,131,-77
11285,4605,0,2023-03-10T14:07:32.635918,6330813,1438,490,1231,-1000,-657,-273,123,131,-77
11286,4606,0,2023-03-10T14:07:32.640362,6330818,1413,475,1214,-1034,-633,-246,123,131,-77
11287,4607,0,2023-03-10T14:07:32.645523,6330823,1413,475,1214,-1034,-633,-246,123,131,-77
11288,4608,0,2023-03-10T14:07:32.650187,6330827,1413,475,1214,-1034,-633,-246,123,131,-77
11289,4609,0,2023-03-10T14:07:32.655175,6330832,1413,475,1214,-1034,-633,-246,123,131,-77
11290,4610,0,2023-03-10T14:07:32.660899,6330839,1433,485,1229,-997,-627,-274,123,131,-77
11291,4611,0,2023-03-10T14:07:32.665661,6330844,1433,485,1229,-997,-627,-274,123,131,-77
11292,4612,0,2023-03-10T14:07:32.670177,6330848,1433,485,1229,-997,-627,-274,123,131,-77
11293,4613,0,2023-03-10T14:07:32.675359,6330853,1433,485,1229,-997,-627,-274,123,131,-77
11294,4614,0,2023-03-10T14:07:32.679975,6330857,1410,476,1221,-1010,-653,-246,123,131,-77
11295,4615,0,2023-03-10T14:07:32.685055,6330862,1410,476,1221,-1010,-653,-246,123,131,-77
11296,4616,0,2023-03-10T14:07:32.689418,6330867,1410,476,1221,-1010,-653,-246,123,131,-77
11297,4617,0,2023-03-10T14:07:32.694429,6330872,1410,476,1221,-1010,-653,-246,123,131,-77
11298,4618,0,2023-03-10T14:07:32.698849,6330876,1446,492,1220,-1011,-630,-286,123,131,-77
11299,4619,0,2023-03-10T14:07:32.703894,6330882,1446,492,1220,-1011,-630,-286,123,131,-77
11300,4620,0,2023-03-10T14:07:32.708328,6330886,1446,492,1220,-1011,-630,-286,123,131,-77
11301,4621,0,2023-03-10T14:07:32.713345,6330891,1446,492,1220,-1011,-630,-286,123,131,-77
11302,4622,0,2023-03-10T14:07:32.717803,6330895,1446,492,1220,-1011,-630,-286,123,131,-77
11303,4623,0,2023-03-10T14:07:32.722803,6330900,1403,474,1222,-999,-623,-217,123,131,-77
11304,4624,0,2023-03-10T14:07:32.727776,6330905,1403,474,1222,-999,-623,-217,123,131,-77
11305,4625,0,2023-03-10T14:07:32.733409,6330911,1403,474,1222,-999,-623,-217,123,131,-77
11306,4626,0,2023-03-10T14:07:32.737764,6330915,1403,474,1222,-999,-623,-217,123,131,-77
11307,4627,0,2023-03-10T14:07:32.742241,6330919,1427,482,1222,-1035,-627,-289,123,131,-77
11308,4628,0,2023-03-10T14:07:32.746651,6330925,1427,482,1222,-1035,-627,-289,123,131,-77
11309,4629,0,2023-03-10T14:07:32.751126,6330929,1427,482,1222,-1035,-627,-289,123,131,-77
11310,4630,0,2023-03-10T14:07:32.755784,6330933,1427,482,1222,-1035,-627,-289,123,131,-77
11311,4631,0,2023-03-10T14:07:32.760848,6330938,1422,479,1218,-1024,-666,-256,123,139,-75
11312,4632,0,2023-03-10T14:07:32.765367,6330943,1422,479,1218,-1024,-666,-256,123,139,-75
11313,4633,0,2023-03-10T14:07:32.769574,6330947,1422,479,1218,-1024,-666,-256,123,139,-75
11314,4634,0,2023-03-10T14:07:32.774800,6330952,1422,479,1218,-1024,-666,-256,123,139,-75
11315,4635,0,2023-03-10T14:07:32.779749,6330956,1436,485,1227,-1013,-622,-262,123,139,-75
11316,4636,0,2023-03-10T14:07:32.784706,6330962,1436,485,1227,-1013,-622,-262,123,139,-75
11317,4637,0,2023-03-10T14:07:32.789278,6330967,1436,485,1227,-1013,-622,-262,123,139,-75
11318,4638,0,2023-03-10T14:07:32.794111,6330972,1436,485,1227,-1013,-622,-262,123,139,-75
11319,4639,0,2023-03-10T14:07:32.798815,6330976,1436,485,1227,-1013,-622,-262,123,139,-75
11320,4640,0,2023-03-10T14:07:32.803652,6330981,1405,474,1225,-1030,-613,-250,123,139,-75
11321,4641,0,2023-03-10T14:07:32.808790,6330986,1405,474,1225,-1030,-613,-250,123,139,-75
11322,4642,0,2023-03-10T14:07:32.813785,6330991,1405,474,1225,-1030,-613,-250,123,139,-75
11323,4643,0,2023-03-10T14:07:32.818057,6330995,1405,474,1225,-1030,-613,-250,123,139,-75
11324,4644,0,2023-03-10T14:07:32.822742,6331000,1421,481,1218,-1015,-659,-271,123,139,-75
11325,4645,0,2023-03-10T14:07:32.827925,6331005,1421,481,1218,-1015,-659,-271,123,139,-75
11326,4646,0,2023-03-10T14:07:32.832330,6331010,1421,481,1218,-1015,-659,-271,123,139,-75
11327,4647,0,2023-03-10T14:07:32.836947,6331015,1421,481,1218,-1015,-659,-271,123,139,-75
11328,4648,0,2023-03-10T14:07:32.841445,6331019,1421,481,1218,-1015,-659,-271,123,139,-75
11329,4649,0,2023-03-10T14:07:32.845983,6331023,1421,481,1218,-1015,-659,-271,123,139,-75
11330,4650,0,2023-03-10T14:07:32.850415,6331028,1421,481,1218,-1015,-659,-271,123,139,-75
11331,4651,0,2023-03-10T14:07:32.855363,6331033,1421,481,1218,-1015,-659,-271,123,139,-75
11332,4652,0,2023-03-10T14:07:32.860473,6331038,1425,480,1220,-991,-708,-241,123,139,-75
11333,4653,0,2023-03-10T14:07:32.865561,6331042,1425,480,1220,-991,-708,-241,123,139,-75
11334,4654,0,2023-03-10T14:07:32.870102,6331047,1425,480,1220,-991,-708,-241,123,139,-75
11335,4655,0,2023-03-10T14:07:32.875028,6331053,1425,480,1220,-991,-708,-241,123,139,-75
11336,4656,0,2023-03-10T14:07:32.879447,6331057,1427,479,1216,-1029,-649,-274,123,139,-75
11337,4657,0,2023-03-10T14:07:32.884505,6331062,1427,479,1216,-1029,-649,-274,126,134,-78
11338,4658,0,2023-03-10T14:07:32.888946,6331067,1427,479,1216,-1029,-649,-274,126,134,-78
11339,4659,0,2023-03-10T14:07:32.894063,6331071,1427,479,1216,-1029,-649,-274,126,134,-78
11340,4660,0,2023-03-10T14:07:32.898530,6331076,1427,479,1216,-1029,-649,-274,126,134,-78
11341,4661,0,2023-03-10T14:07:32.903317,6331080,1421,477,1220,-1014,-595,-260,126,134,-78
11342,4662,0,2023-03-10T14:07:32.908129,6331085,1421,477,1220,-1014,-595,-260,126,134,-78
11343,4663,0,2023-03-10T14:07:32.913374,6331090,1421,477,1220,-1014,-595,-260,126,134,-78
11344,4664,0,2023-03-10T14:07:32.917888,6331096,1421,477,1220,-1014,-595,-260,126,134,-78
11345,4665,0,2023-03-10T14:07:32.922554,6331100,1450,485,1232,-1007,-642,-283,126,134,-78
11346,4666,0,2023-03-10T14:07:32.927374,6331105,1450,485,1232,-1007,-642,-283,126,134,-78
11347,4667,0,2023-03-10T14:07:32.931785,6331109,1450,485,1232,-1007,-642,-283,126,134,-78
11348,4668,0,2023-03-10T14:07:32.936628,6331114,1450,485,1232,-1007,-642,-283,126,134,-78
11349,4669,0,2023-03-10T14:07:32.941460,6331119,1401,473,1197,-1029,-652,-241,126,134,-78
11350,4670,0,2023-03-10T14:07:32.946481,6331124,1401,473,1197,-1029,-652,-241,126,134,-78
11351,4671,0,2023-03-10T14:07:32.951034,6331128,1401,473,1197,-1029,-652,-241,126,134,-78
11352,4672,0,2023-03-10T14:07:32.955761,6331132,1401,473,1197,-1029,-652,-241,126,134,-78
11353,4673,0,2023-03-10T14:07:32.960308,6331138,1416,483,1238,-1000,-591,-246,126,134,-78
11354,4674,0,2023-03-10T14:07:32.965077,6331143,1416,483,1238,-1000,-591,-246,126,134,-78
11355,4675,0,2023-03-10T14:07:32.969512,6331147,1416,483,1238,-1000,-591,-246,126,134,-78
11356,4676,0,2023-03-10T14:07:32.974620,6331152,1416,483,1238,-1000,-591,-246,126,134,-78
11357,4677,0,2023-03-10T14:07:32.979092,6331157,1416,483,1238,-1000,-591,-246,126,134,-78
11358,4678,0,2023-03-10T14:07:32.984101,6331161,1432,485,1232,-1038,-644,-283,126,134,-78
11359,4679,0,2023-03-10T14:07:32.988868,6331166,1432,485,1232,-1038,-644,-283,126,134,-78
11360,4680,0,2023-03-10T14:07:32.993594,6331171,1432,485,1232,-1038,-644,-283,126,134,-78
11361,4681,0,2023-03-10T14:07:32.997949,6331175,1432,485,1232,-1038,-644,-283,126,134,-78
11362,4682,0,2023-03-10T14:07:33.002410,6331180,1427,478,1202,-1029,-635,-249,125,125,-75
11363,4683,0,2023-03-10T14:07:33.007250,6331185,1427,478,1202,-1029,-635,-249,125,125,-75
11364,4684,0,2023-03-10T14:07:33.011773,6331189,1427,478,1202,-1029,-635,-249,125,125,-75
11365,4685,0,2023-03-10T14:07:33.016573,6331194,1427,478,1202,-1029,-635,-249,125,125,-75
11366,4686,0,2023-03-10T14:07:33.021065,6331198,1414,474,1231,-995,-611,-246,125,125,-75
11367,4687,0,2023-03-10T14:07:33.025860,6331203,1414,474,1231,-995,-611,-246,125,125,-75
11368,4688,0,2023-03-10T14:07:33.030292,6331207,1414,474,1231,-995,-611,-246,125,125,-75
11369,4689,0,2023-03-10T14:07:33.035267,6331212,1414,474,1231,-995,-611,-246,125,125,-75
11370,4690,0,2023-03-10T14:07:33.040268,6331217,1430,481,1217,-1019,-670,-272,125,125,-75
11371,4691,0,2023-03-10T14:07:33.045494,6331223,1430,481,1217,-1019,-670,-272,125,125,-75
11372,4692,0,2023-03-10T14:07:33.050006,6331228,1430,481,1217,-1019,-670,-272,125,125,-75
11373,4693,0,2023-03-10T14:07:33.055116,6331233,1430,481,1217,-1019,-670,-272,125,125,-75
11374,4694,0,2023-03-10T14:07:33.060028,6331238,1426,478,1233,-1005,-603,-253,125,125,-75
11375,4695,0,2023-03-10T14:07:33.065051,6331242,1426,478,1233,-1005,-603,-253,125,125,-75
11376,4696,0,2023-03-10T14:07:33.069464,6331247,1426,478,1233,-1005,-603,-253,125,125,-75
11377,4697,0,2023-03-10T14:07:33.074123,6331251,1426,478,1233,-1005,-603,-253,125,125,-75
11378,4698,0,2023-03-10T14:07:33.078912,6331256,1426,478,1233,-1005,-603,-253,125,125,-75
11379,4699,0,2023-03-10T14:07:33.084083,6331261,1430,490,1217,-1016,-702,-290,125,125,-75
11380,4700,0,2023-03-10T14:07:33.089075,6331267,1430,490,1217,-1016,-702,-290,125,125,-75
11381,4701,0,2023-03-10T14:07:33.094292,6331272,1430,490,1217,-1016,-702,-290,125,125,-75
11382,4702,0,2023-03-10T14:07:33.098584,6331276,1430,490,1217,-1016,-702,-290,125,125,-75
11383,4703,0,2023-03-10T14:07:33.103425,6331281,1425,480,1215,-1015,-636,-228,125,125,-75
11384,4704,0,2023-03-10T14:07:33.107942,6331285,1425,480,1215,-1015,-636,-228,125,125,-75
11385,4705,0,2023-03-10T14:07:33.112939,6331290,1425,480,1215,-1015,-636,-228,125,125,-75
11386,4706,0,2023-03-10T14:07:33.117337,6331295,1425,480,1215,-1015,-636,-228,125,125,-75
11387,4707,0,2023-03-10T14:07:33.121704,6331299,1412,475,1223,-987,-584,-236,125,125,-75
11388,4708,0,2023-03-10T14:07:33.126298,6331303,1412,475,1223,-987,-584,-236,125,125,-75
11389,4709,0,2023-03-10T14:07:33.130500,6331309,1412,475,1223,-987,-584,-236,125,125,-75
11390,4710,0,2023-03-10T14:07:33.134955,6331313,1412,475,1223,-987,-584,-236,125,125,-75
11391,4711,0,2023-03-10T14:07:33.139585,6331317,1456,487,1229,-1032,-644,-299,125,125,-75
11392,4712,0,2023-03-10T14:07:33.144416,6331322,1456,487,1229,-1032,-644,-299,113,135,-73
11393,4713,0,2023-03-10T14:07:33.148862,6331326,1456,487,1229,-1032,-644,-299,113,135,-73
11394,4714,0,2023-03-10T14:07:33.153896,6331331,1456,487,1229,-1032,-644,-299,113,135,-73
11395,4715,0,2023-03-10T14:07:33.158419,6331336,1456,487,1229,-1032,-644,-299,113,135,-73
11396,4716,0,2023-03-10T14:07:33.162898,6331340,1414,477,1200,-1009,-634,-248,113,135,-73
11397,4717,0,2023-03-10T14:07:33.167856,6331345,1414,477,1200,-1009,-634,-248,113,135,-73
11398,4718,0,2023-03-10T14:07:33.173383,6331351,1414,477,1200,-1009,-634,-248,113,135,-73
11399,4719,0,2023-03-10T14:07:33.178067,6331356,1414,477,1200,-1009,-634,-248,113,135,-73
11400,4720,0,2023-03-10T14:07:33.182770,6331360,1434,473,1222,-1007,-607,-274,113,135,-73
11401,4721,0,2023-03-10T14:07:33.188039,6331365,1434,473,1222,-1007,-607,-274,113,135,-73
11402,4722,0,2023-03-10T14:07:33.193394,6331371,1434,473,1222,-1007,-607,-274,113,135,-73
11403,4723,0,2023-03-10T14:07:33.198070,6331375,1434,473,1222,-1007,-607,-274,113,135,-73
11404,4724,0,2023-03-10T14:07:33.202648,6331380,1430,489,1212,-1012,-622,-286,113,135,-73
11405,4725,0,2023-03-10T14:07:33.207716,6331385,1430,489,1212,-1012,-622,-286,113,135,-73
11406,4726,0,2023-03-10T14:07:33.212278,6331389,1430,489,1212,-1012,-622,-286,113,135,-73
11407,4727,0,2023-03-10T14:07:33.216757,6331395,1430,489,1212,-1012,-622,-286,113,135,-73
11408,4728,0,2023-03-10T14:07:33.221210,6331399,1434,483,1218,-997,-636,-239,113,135,-73
11409,4729,0,2023-03-10T14:07:33.226388,6331404,1434,483,1218,-997,-636,-239,113,135,-73
11410,4730,0,2023-03-10T14:07:33.230697,6331408,1434,483,1218,-997,-636,-239,113,135,-73
11411,4731,0,2023-03-10T14:07:33.235402,6331413,1434,483,1218,-997,-636,-239,113,135,-73
11412,4732,0,2023-03-10T14:07:33.240010,6331417,1417,481,1219,-1008,-630,-265,113,135,-73
11413,4733,0,2023-03-10T14:07:33.245333,6331422,1417,481,1219,-1008,-630,-265,113,135,-73
11414,4734,0,2023-03-10T14:07:33.249825,6331427,1417,481,1219,-1008,-630,-265,113,135,-73
11415,4735,0,2023-03-10T14:07:33.254558,6331432,1417,481,1219,-1008,-630,-265,113,135,-73
11416,4736,0,2023-03-10T14:07:33.258700,6331437,1417,481,1219,-1008,-630,-265,113,135,-73
11417,4737,0,2023-03-10T14:07:33.263987,6331442,1438,475,1211,-1041,-636,-284,123,137,-69
11418,4738,0,2023-03-10T14:07:33.269270,6331447,1438,475,1211,-1041,-636,-284,123,137,-69
11419,4739,0,2023-03-10T14:07:33.274178,6331452,1438,475,1211,-1041,-636,-284,123,137,-69
11420,4740,0,2023-03-10T14:07:33.278577,6331456,1438,475,1211,-1041,-636,-284,123,137,-69
11421,4741,0,2023-03-10T14:07:33.283352,6331461,1429,478,1212,-990,-650,-261,123,137,-69
11422,4742,0,2023-03-10T14:07:33.288230,6331466,1429,478,1212,-990,-650,-261,123,137,-69
11423,4743,0,2023-03-10T14:07:33.292754,6331470,1429,478,1212,-990,-650,-261,123,137,-69
11424,4744,0,2023-03-10T14:07:33.297090,6331474,1429,478,1212,-990,-650,-261,123,137,-69
11425,4745,0,2023-03-10T14:07:33.301648,6331480,1447,481,1209,-1022,-642,-275,123,137,-69
11426,4746,0,2023-03-10T14:07:33.306778,6331484,1447,481,1209,-1022,-642,-275,123,137,-69
11427,4747,0,2023-03-10T14:07:33.311031,6331489,1447,481,1209,-1022,-642,-275,123,137,-69
11428,4748,0,2023-03-10T14:07:33.315996,6331493,1447,481,1209,-1022,-642,-275,123,137,-69
11429,4749,0,2023-03-10T14:07:33.320565,6331498,1420,484,1210,-999,-627,-247,123,137,-69
11430,4750,0,2023-03-10T14:07:33.324972,6331502,1420,484,1210,-999,-627,-247,123,137,-69
11431,4751,0,2023-03-10T14:07:33.329294,6331507,1420,484,1210,-999,-627,-247,123,137,-69
11432,4752,0,2023-03-10T14:07:33.334066,6331511,1420,484,1210,-999,-627,-247,123,137,-69
11433,4753,0,2023-03-10T14:07:33.338680,6331516,1420,484,1210,-999,-627,-247,123,137,-69
11434,4754,0,2023-03-10T14:07:33.343236,6331521,1428,475,1224,-1003,-601,-238,123,137,-69
11435,4755,0,2023-03-10T14:07:33.348005,6331526,1428,475,1224,-1003,-601,-238,123,137,-69
11436,4756,0,2023-03-10T14:07:33.352831,6331531,1428,475,1224,-1003,-601,-238,123,137,-69
11437,4757,0,2023-03-10T14:07:33.357193,6331535,1428,475,1224,-1003,-601,-238,123,137,-69
11438,4758,0,2023-03-10T14:07:33.361605,6331539,1426,486,1225,-1022,-646,-287,123,137,-69
11439,4759,0,2023-03-10T14:07:33.366876,6331544,1426,486,1225,-1022,-646,-287,123,137,-69
11440,4760,0,2023-03-10T14:07:33.371492,6331549,1426,486,1225,-1022,-646,-287,123,137,-69
11441,4761,0,2023-03-10T14:07:33.376300,6331553,1426,486,1225,-1022,-646,-287,123,137,-69
11442,4762,0,2023-03-10T14:07:33.380883,6331558,1442,476,1209,-1044,-636,-266,123,137,-69
11443,4763,0,2023-03-10T14:07:33.386065,6331564,1442,476,1209,-1044,-636,-266,123,137,-69
11444,4764,0,2023-03-10T14:07:33.390580,6331568,1442,476,1209,-1044,-636,-266,123,137,-69
11445,4765,0,2023-03-10T14:07:33.395557,6331573,1442,476,1209,-1044,-636,-266,123,137,-69
11446,4766,0,2023-03-10T14:07:33.400047,6331578,1415,477,1218,-1007,-616,-263,120,130,-78
11447,4767,0,2023-03-10T14:07:33.405278,6331582,1415,477,1218,-1007,-616,-263,120,130,-78
11448,4768,0,2023-03-10T14:07:33.409797,6331587,1415,477,1218,-1007,-616,-263,120,130,-78
11449,4769,0,2023-03-10T14:07:33.414432,6331591,1415,477,1218,-1007,-616,-263,120,130,-78
11450,4770,0,2023-03-10T14:07:33.418998,6331596,1415,477,1218,-1007,-616,-263,120,130,-78
11451,4771,0,2023-03-10T14:07:33.423619,6331601,1438,480,1218,-1000,-627,-234,120,130,-78
11452,4772,0,2023-03-10T14:07:33.428503,6331607,1438,480,1218,-1000,-627,-234,120,130,-78
11453,4773,0,2023-03-10T14:07:33.433294,6331611,1438,480,1218,-1000,-627,-234,120,130,-78
11454,4774,0,2023-03-10T14:07:33.437809,6331616,1438,480,1218,-1000,-627,-234,120,130,-78
11455,4775,0,2023-03-10T14:07:33.442990,6331620,1442,486,1229,-982,-638,-267,120,130,-78
11456,4776,0,2023-03-10T14:07:33.447597,6331625,1442,486,1229,-982,-638,-267,120,130,-78
11457,4777,0,2023-03-10T14:07:33.451966,6331629,1442,486,1229,-982,-638,-267,120,130,-78
11458,4778,0,2023-03-10T14:07:33.456995,6331634,1442,486,1229,-982,-638,-267,120,130,-78
11459,4779,0,2023-03-10T14:07:33.461495,6331639,1426,479,1200,-1057,-630,-275,120,130,-78
11460,4780,0,2023-03-10T14:07:33.465825,6331643,1426,479,1200,-1057,-630,-275,120,130,-78
11461,4781,0,2023-03-10T14:07:33.471466,6331649,1426,479,1200,-1057,-630,-275,120,130,-78
11462,4782,0,2023-03-10T14:07:33.476857,6331655,1426,479,1200,-1057,-630,-275,120,130,-78
11463,4783,0,2023-03-10T14:07:33.481974,6331659,1430,480,1231,-1011,-606,-261,120,130,-78
11464,4784,0,2023-03-10T14:07:33.487020,6331665,1430,480,1231,-1011,-606,-261,120,130,-78
11465,4785,0,2023-03-10T14:07:33.491580,6331669,1430,480,1231,-1011,-606,-261,120,130,-78
11466,4786,0,2023-03-10T14:07:33.497083,6331674,1430,480,1231,-1011,-606,-261,120,130,-78
11467,4787,0,2023-03-10T14:07:33.501523,6331679,1444,493,1212,-1022,-647,-282,120,130,-78
11468,4788,0,2023-03-10T14:07:33.506499,6331684,1444,493,1212,-1022,-647,-282,120,130,-78
11469,4789,0,2023-03-10T14:07:33.511044,6331688,1444,493,1212,-1022,-647,-282,120,130,-78
11470,4790,0,2023-03-10T14:07:33.515515,6331693,1444,493,1212,-1022,-647,-282,120,130,-78
11471,4791,0,2023-03-10T14:07:33.520158,6331698,1416,472,1219,-993,-605,-202,119,129,-73
11472,4792,0,2023-03-10T14:07:33.525193,6331703,1416,472,1219,-993,-605,-202,119,129,-73
11473,4793,0,2023-03-10T14:07:33.529523,6331707,1416,472,1219,-993,-605,-202,119,129,-73
11474,4794,0,2023-03-10T14:07:33.534066,6331712,1416,472,1219,-993,-605,-202,119,129,-73
11475,4795,0,2023-03-10T14:07:33.538545,6331716,1416,472,1219,-993,-605,-202,119,129,-73
11476,4796,0,2023-03-10T14:07:33.543284,6331720,1442,484,1230,-1000,-637,-271,119,129,-73
11477,4797,0,2023-03-10T14:07:33.548621,6331726,1442,484,1230,-1000,-637,-271,119,129,-73
11478,4798,0,2023-03-10T14:07:33.553026,6331730,1442,484,1230,-1000,-637,-271,119,129,-73
11479,4799,0,2023-03-10T14:07:33.557267,6331735,1442,484,1230,-1000,-637,-271,119,129,-73
11480,4800,0,2023-03-10T14:07:33.561474,6331739,1427,479,1208,-1038,-639,-273,119,129,-73
11481,4801,0,2023-03-10T14:07:33.566553,6331744,1427,479,1208,-1038,-639,-273,119,129,-73
11482,4802,0,2023-03-10T14:07:33.571104,6331749,1427,479,1208,-1038,-639,-273,119,129,-73
11483,4803,0,2023-03-10T14:07:33.576079,6331753,1427,479,1208,-1038,-639,-273,119,129,-73
11484,4804,0,2023-03-10T14:07:33.581196,6331758,1441,486,1214,-990,-638,-257,119,129,-73
11485,4805,0,2023-03-10T14:07:33.586346,6331764,1441,486,1214,-990,-638,-257,119,129,-73
11486,4806,0,2023-03-10T14:07:33.590789,6331768,1441,486,1214,-990,-638,-257,119,129,-73
11487,4807,0,2023-03-10T14:07:33.595527,6331773,1441,486,1214,-990,-638,-257,119,129,-73
11488,4808,0,2023-03-10T14:07:33.599804,6331778,1441,486,1214,-990,-638,-257,119,129,-73
11489,4809,0,2023-03-10T14:07:33.604306,6331782,1441,479,1217,-1015,-621,-270,119,129,-73
11490,4810,0,2023-03-10T14:07:33.609952,6331788,1441,479,1217,-1015,-621,-270,119,129,-73
11491,4811,0,2023-03-10T14:07:33.614563,6331792,1441,479,1217,-1015,-621,-270,119,129,-73
11492,4812,0,2023-03-10T14:07:33.619503,6331797,1441,479,1217,-1015,-621,-270,119,129,-73
11493,4813,0,2023-03-10T14:07:33.624328,6331802,1420,473,1212,-1011,-590,-249,119,129,-73
11494,4814,0,2023-03-10T14:07:33.629196,6331806,1420,473,1212,-1011,-590,-249,119,129,-73
11495,4815,0,2023-03-10T14:07:33.634215,6331811,1420,473,1212,-1011,-590,-249,119,129,-73
11496,4816,0,2023-03-10T14:07:33.638610,6331816,1420,473,1212,-1011,-590,-249,119,129,-73
11497,4817,0,2023-03-10T14:07:33.643529,6331822,1430,477,1226,-981,-674,-229,119,129,-73
11498,4818,0,2023-03-10T14:07:33.648387,6331826,1430,477,1226,-981,-674,-229,119,129,-73
11499,4819,0,2023-03-10T14:07:33.653496,6331831,1430,477,1226,-981,-674,-229,119,129,-73
11500,4820,0,2023-03-10T14:07:33.657803,6331835,1430,477,1226,-981,-674,-229,119,129,-73
11501,4821,0,2023-03-10T14:07:33.662234,6331840,1433,476,1220,-1031,-618,-286,123,133,-79
11502,4822,0,2023-03-10T14:07:33.667138,6331845,1433,476,1220,-1031,-618,-286,123,133,-79
11503,4823,0,2023-03-10T14:07:33.671759,6331849,1433,476,1220,-1031,-618,-286,123,133,-79
11504,4824,0,2023-03-10T14:07:33.677044,6331854,1433,476,1220,-1031,-618,-286,123,133,-79
11505,4825,0,2023-03-10T14:07:33.681491,6331858,1448,484,1200,-1035,-650,-283,123,133,-79
11506,4826,0,2023-03-10T14:07:33.686529,6331864,1448,484,1200,-1035,-650,-283,123,133,-79
11507,4827,0,2023-03-10T14:07:33.690828,6331869,1448,484,1200,-1035,-650,-283,123,133,-79
11508,4828,0,2023-03-10T14:07:33.696353,6331874,1448,484,1200,-1035,-650,-283,123,133,-79
11509,4829,0,2023-03-10T14:07:33.701582,6331879,1420,467,1220,-1007,-612,-238,123,133,-79
11510,4830,0,2023-03-10T14:07:33.706141,6331883,1420,467,1220,-1007,-612,-238,123,133,-79
11511,4831,0,2023-03-10T14:07:33.710658,6331888,1420,467,1220,-1007,-612,-238,123,133,-79
11512,4832,0,2023-03-10T14:07:33.715261,6331892,1420,467,1220,-1007,-612,-238,123,133,-79
11513,4833,0,2023-03-10T14:07:33.719941,6331897,1420,467,1220,-1007,-612,-238,123,133,-79
11514,4834,0,2023-03-10T14:07:33.724236,6331901,1442,484,1212,-1019,-637,-295,123,133,-79
11515,4835,0,2023-03-10T14:07:33.729147,6331907,1442,484,1212,-1019,-637,-295,123,133,-79
11516,4836,0,2023-03-10T14:07:33.734271,6331912,1442,484,1212,-1019,-637,-295,123,133,-79
11517,4837,0,2023-03-10T14:07:33.738866,6331916,1442,484,1212,-1019,-637,-295,123,133,-79
11518,4838,0,2023-03-10T14:07:33.744028,6331922,1431,480,1226,-996,-604,-232,123,133,-79
11519,4839,0,2023-03-10T14:07:33.749153,6331927,1431,480,1226,-996,-604,-232,123,133,-79
11520,4840,0,2023-03-10T14:07:33.754211,6331931,1431,480,1226,-996,-604,-232,123,133,-79
11521,4841,0,2023-03-10T14:07:33.758800,6331936,1431,480,1226,-996,-604,-232,123,133,-79
11522,4842,0,2023-03-10T14:07:33.763236,6331940,1430,477,1214,-993,-638,-257,123,133,-79
11523,4843,0,2023-03-10T14:07:33.768238,6331945,1430,477,1214,-993,-638,-257,123,133,-79
11524,4844,0,2023-03-10T14:07:33.772434,6331950,1430,477,1214,-993,-638,-257,123,133,-79
11525,4845,0,2023-03-10T14:07:33.776818,6331955,1430,477,1214,-993,-638,-257,123,133,-79
11526,4846,0,2023-03-10T14:07:33.782033,6331960,1435,477,1216,-1048,-626,-289,128,134,-84
11527,4847,0,2023-03-10T14:07:33.786257,6331964,1435,477,1216,-1048,-626,-289,128,134,-84
11528,4848,0,2023-03-10T14:07:33.790543,6331968,1435,477,1216,-1048,-626,-289,128,134,-84
11529,4849,0,2023-03-10T14:07:33.795194,6331972,1435,477,1216,-1048,-626,-289,128,134,-84
11530,4850,0,2023-03-10T14:07:33.799552,6331977,1435,477,1216,-1048,-626,-289,128,134,-84
11531,4851,0,2023-03-10T14:07:33.804710,6331982,1446,482,1214,-1012,-655,-271,128,134,-84
11532,4852,0,2023-03-10T14:07:33.809733,6331987,1446,482,1214,-1012,-655,-271,128,134,-84
11533,4853,0,2023-03-10T14:07:33.814649,6331993,1446,482,1214,-1012,-655,-271,128,134,-84
11534,4854,0,2023-03-10T14:07:33.819103,6331997,1446,482,1214,-1012,-655,-271,128,134,-84
11535,4855,0,2023-03-10T14:07:33.823632,6332001,1434,477,1211,-992,-607,-266,128,134,-84
11536,4856,0,2023-03-10T14:07:33.828527,6332006,1434,477,1211,-992,-607,-266,128,134,-84
11537,4857,0,2023-03-10T14:07:33.833589,6332011,1434,477,1211,-992,-607,-266,128,134,-84
11538,4858,0,2023-03-10T14:07:33.838026,6332015,1434,477,1211,-992,-607,-266,128,134,-84
11539,4859,0,2023-03-10T14:07:33.842400,6332020,1446,483,1201,-1014,-610,-282,128,134,-84
11540,4860,0,2023-03-10T14:07:33.847656,6332025,1446,483,1201,-1014,-610,-282,128,134,-84
11541,4861,0,2023-03-10T14:07:33.852274,6332029,1446,483,1201,-1014,-610,-282,128,134,-84
11542,4862,0,2023-03-10T14:07:33.857425,6332035,1446,483,1201,-1014,-610,-282,128,134,-84
11543,4863,0,2023-03-10T14:07:33.861772,6332040,1419,480,1220,-974,-622,-212,128,134,-84
11544,4864,0,2023-03-10T14:07:33.866896,6332045,1419,480,1220,-974,-622,-212,128,134,-84
11545,4865,0,2023-03-10T14:07:33.871575,6332049,1419,480,1220,-974,-622,-212,128,134,-84
11546,4866,0,2023-03-10T14:07:33.876747,6332054,1419,480,1220,-974,-622,-212,128,134,-84
11547,4867,0,2023-03-10T14:07:33.881046,6332058,1447,486,1218,-1014,-653,-281,128,134,-84
11548,4868,0,2023-03-10T14:07:33.886259,6332063,1447,486,1218,-1014,-653,-281,128,134,-84
11549,4869,0,2023-03-10T14:07:33.890801,6332068,1447,486,1218,-1014,-653,-281,128,134,-84
11550,4870,0,2023-03-10T14:07:33.895291,6332072,1447,486,1218,-1014,-653,-281,128,134,-84
11551,4871,0,2023-03-10T14:07:33.899867,6332078,1447,486,1218,-1014,-653,-281,128,134,-84
11552,4872,0,2023-03-10T14:07:33.904658,6332082,1446,485,1204,-1037,-632,-287,111,125,-71
11553,4873,0,2023-03-10T14:07:33.909875,6332087,1446,485,1204,-1037,-632,-287,111,125,-71
11554,4874,0,2023-03-10T14:07:33.914676,6332092,1446,485,1204,-1037,-632,-287,111,125,-71
11555,4875,0,2023-03-10T14:07:33.919345,6332097,1446,485,1204,-1037,-632,-287,111,125,-71
11556,4876,0,2023-03-10T14:07:33.924529,6332102,1438,472,1219,-1017,-625,-254,111,125,-71
11557,4877,0,2023-03-10T14:07:33.929686,6332107,1438,472,1219,-1017,-625,-254,111,125,-71
11558,4878,0,2023-03-10T14:07:33.934453,6332111,1438,472,1219,-1017,-625,-254,111,125,-71
11559,4879,0,2023-03-10T14:07:33.939076,6332116,1438,472,1219,-1017,-625,-254,111,125,-71
11560,4880,0,2023-03-10T14:07:33.943429,6332121,1441,483,1209,-1015,-631,-281,111,125,-71
11561,4881,0,2023-03-10T14:07:33.948430,6332126,1441,483,1209,-1015,-631,-281,111,125,-71
11562,4882,0,2023-03-10T14:07:33.953487,6332131,1441,483,1209,-1015,-631,-281,111,125,-71
11563,4883,0,2023-03-10T14:07:33.957939,6332135,1441,483,1209,-1015,-631,-281,111,125,-71
11564,4884,0,2023-03-10T14:07:33.962407,6332140,1452,482,1216,-1007,-625,-248,111,125,-71
11565,4885,0,2023-03-10T14:07:33.967327,6332145,1452,482,1216,-1007,-625,-248,111,125,-71
11566,4886,0,2023-03-10T14:07:33.971798,6332149,1452,482,1216,-1007,-625,-248,111,125,-71
11567,4887,0,2023-03-10T14:07:33.976907,6332154,1452,482,1216,-1007,-625,-248,111,125,-71
11568,4888,0,2023-03-10T14:07:33.981434,6332160,1419,479,1214,-985,-620,-238,111,125,-71
11569,4889,0,2023-03-10T14:07:33.986610,6332164,1419,479,1214,-985,-620,-238,111,125,-71
11570,4890,0,2023-03-10T14:07:33.991296,6332169,1419,479,1214,-985,-620,-238,111,125,-71
11571,4891,0,2023-03-10T14:07:33.995594,6332173,1419,479,1214,-985,-620,-238,111,125,-71
11572,4892,0,2023-03-10T14:07:34.000132,6332178,1419,479,1214,-985,-620,-238,111,125,-71
11573,4893,0,2023-03-10T14:07:34.004536,6332182,1446,479,1214,-1051,-634,-296,111,125,-71
11574,4894,0,2023-03-10T14:07:34.009708,6332187,1446,479,1214,-1051,-634,-296,111,125,-71
11575,4895,0,2023-03-10T14:07:34.014496,6332192,1446,479,1214,-1051,-634,-296,111,125,-71
11576,4896,0,2023-03-10T14:07:34.019222,6332196,1446,479,1214,-1051,-634,-296,111,125,-71
11577,4897,0,2023-03-10T14:07:34.024327,6332201,1441,481,1200,-1010,-645,-258,111,125,-71
11578,4898,0,2023-03-10T14:07:34.029422,6332207,1441,481,1200,-1010,-645,-258,111,125,-71
11579,4899,0,2023-03-10T14:07:34.034316,6332212,1441,481,1200,-1010,-645,-258,111,125,-71
11580,4900,0,2023-03-10T14:07:34.038758,6332216,1441,481,1200,-1010,-645,-258,111,125,-71
11581,4901,0,2023-03-10T14:07:34.043848,6332221,1449,475,1207,-1006,-629,-253,124,132,-80
11582,4902,0,2023-03-10T14:07:34.049520,6332227,1449,475,1207,-1006,-629,-253,124,132,-80
11583,4903,0,2023-03-10T14:07:34.053856,6332231,1449,475,1207,-1006,-629,-253,124,132,-80
11584,4904,0,2023-03-10T14:07:34.058162,6332236,1449,475,1207,-1006,-629,-253,124,132,-80
11585,4905,0,2023-03-10T14:07:34.062810,6332240,1440,484,1205,-1010,-607,-281,124,132,-80
11586,4906,0,2023-03-10T14:07:34.068144,6332246,1440,484,1205,-1010,-607,-281,124,132,-80
11587,4907,0,2023-03-10T14:07:34.073518,6332251,1440,484,1205,-1010,-607,-281,124,132,-80
11588,4908,0,2023-03-10T14:07:34.078340,6332256,1440,484,1205,-1010,-607,-281,124,132,-80
11589,4909,0,2023-03-10T14:07:34.082927,6332260,1427,477,1217,-993,-619,-215,124,132,-80
11590,4910,0,2023-03-10T14:07:34.088207,6332266,1427,477,1217,-993,-619,-215,124,132,-80
11591,4911,0,2023-03-10T14:07:34.093165,6332271,1427,477,1217,-993,-619,-215,124,132,-80
11592,4912,0,2023-03-10T14:07:34.097843,6332275,1427,477,1217,-993,-619,-215,124,132,-80
11593,4913,0,2023-03-10T14:07:34.102232,6332280,1447,489,1229,-995,-644,-280,124,132,-80
11594,4914,0,2023-03-10T14:07:34.107135,6332284,1447,489,1229,-995,-644,-280,124,132,-80
11595,4915,0,2023-03-10T14:07:34.111436,6332289,1447,489,1229,-995,-644,-280,124,132,-80
11596,4916,0,2023-03-10T14:07:34.116334,6332294,1447,489,1229,-995,-644,-280,124,132,-80
11597,4917,0,2023-03-10T14:07:34.121801,6332299,1438,481,1191,-1053,-642,-287,124,132,-80
11598,4918,0,2023-03-10T14:07:34.127325,6332305,1438,481,1191,-1053,-642,-287,124,132,-80
11599,4919,0,2023-03-10T14:07:34.131863,6332309,1438,481,1191,-1053,-642,-287,124,132,-80
11600,4920,0,2023-03-10T14:07:34.136612,6332314,1438,481,1191,-1053,-642,-287,124,132,-80
11601,4921,0,2023-03-10T14:07:34.141063,6332318,1430,467,1207,-1003,-614,-245,124,132,-80
11602,4922,0,2023-03-10T14:07:34.146047,6332323,1430,467,1207,-1003,-614,-245,124,132,-80
11603,4923,0,2023-03-10T14:07:34.150376,6332328,1430,467,1207,-1003,-614,-245,124,132,-80
11604,4924,0,2023-03-10T14:07:34.155627,6332333,1430,467,1207,-1003,-614,-245,124,132,-80
11605,4925,0,2023-03-10T14:07:34.160414,6332338,1430,467,1207,-1003,-614,-245,124,132,-80
11606,4926,0,2023-03-10T14:07:34.165568,6332343,1441,476,1217,-1018,-642,-277,124,134,-82
11607,4927,0,2023-03-10T14:07:34.170500,6332348,1441,476,1217,-1018,-642,-277,124,134,-82
11608,4928,0,2023-03-10T14:07:34.175628,6332353,1441,476,1217,-1018,-642,-277,124,134,-82
11609,4929,0,2023-03-10T14:07:34.179939,6332357,1441,476,1217,-1018,-642,-277,124,134,-82
11610,4930,0,2023-03-10T14:07:34.184598,6332362,1443,482,1215,-1010,-607,-254,124,134,-82
11611,4931,0,2023-03-10T14:07:34.189647,6332367,1443,482,1215,-1010,-607,-254,124,134,-82
11612,4932,0,2023-03-10T14:07:34.194381,6332371,1443,482,1215,-1010,-607,-254,124,134,-82
11613,4933,0,2023-03-10T14:07:34.198926,6332377,1443,482,1215,-1010,-607,-254,124,134,-82
11614,4934,0,2023-03-10T14:07:34.203300,6332381,1428,472,1213,-982,-625,-216,124,134,-82
11615,4935,0,2023-03-10T14:07:34.208151,6332386,1428,472,1213,-982,-625,-216,124,134,-82
11616,4936,0,2023-03-10T14:07:34.212514,6332390,1428,472,1213,-982,-625,-216,124,134,-82
11617,4937,0,2023-03-10T14:07:34.217021,6332394,1428,472,1213,-982,-625,-216,124,134,-82
11618,4938,0,2023-03-10T14:07:34.222644,6332400,1430,471,1208,-1030,-642,-284,124,134,-82
11619,4939,0,2023-03-10T14:07:34.227990,6332405,1430,471,1208,-1030,-642,-284,124,134,-82
11620,4940,0,2023-03-10T14:07:34.233116,6332410,1430,471,1208,-1030,-642,-284,124,134,-82
11621,4941,0,2023-03-10T14:07:34.238620,6332416,1430,471,1208,-1030,-642,-284,124,134,-82
11622,4942,0,2023-03-10T14:07:34.243283,6332421,1452,482,1204,-1036,-622,-291,124,134,-82
11623,4943,0,2023-03-10T14:07:34.248157,6332426,1452,482,1204,-1036,-622,-291,124,134,-82
11624,4944,0,2023-03-10T14:07:34.253586,6332431,1452,482,1204,-1036,-622,-291,124,134,-82
11625,4945,0,2023-03-10T14:07:34.258358,6332436,1452,482,1204,-1036,-622,-291,124,134,-82
11626,4946,0,2023-03-10T14:07:34.262961,6332440,1438,479,1212,-993,-649,-245,124,134,-82
11627,4947,0,2023-03-10T14:07:34.267522,6332445,1438,479,1212,-993,-649,-245,124,134,-82
11628,4948,0,2023-03-10T14:07:34.271837,6332449,1438,479,1212,-993,-649,-245,124,134,-82
11629,4949,0,2023-03-10T14:07:34.276769,6332454,1438,479,1212,-993,-649,-245,124,134,-82
11630,4950,0,2023-03-10T14:07:34.282021,6332460,1446,481,1203,-1029,-610,-281,124,134,-82
11631,4951,0,2023-03-10T14:07:34.287128,6332465,1446,481,1203,-1029,-610,-281,124,134,-82
11632,4952,0,2023-03-10T14:07:34.291769,6332469,1446,481,1203,-1029,-610,-281,124,134,-82
11633,4953,0,2023-03-10T14:07:34.296314,6332474,1446,481,1203,-1029,-610,-281,124,134,-82
11634,4954,0,2023-03-10T14:07:34.300915,6332478,1446,481,1203,-1029,-610,-281,124,134,-82
11635,4955,0,2023-03-10T14:07:34.305803,6332483,1428,475,1205,-1000,-640,-221,115,145,-77
11636,4956,0,2023-03-10T14:07:34.310694,6332488,1428,475,1205,-1000,-640,-221,115,145,-77
11637,4957,0,2023-03-10T14:07:34.315704,6332493,1428,475,1205,-1000,-640,-221,115,145,-77
11638,4958,0,2023-03-10T14:07:34.320497,6332497,1428,475,1205,-1000,-640,-221,115,145,-77
11639,4959,0,2023-03-10T14:07:34.325670,6332503,1444,479,1237,-990,-593,-243,115,145,-77
11640,4960,0,2023-03-10T14:07:34.330853,6332508,1444,479,1237,-990,-593,-243,115,145,-77
11641,4961,0,2023-03-10T14:07:34.335955,6332514,1444,479,1237,-990,-593,-243,115,145,-77
11642,4962,0,2023-03-10T14:07:34.340313,6332518,1444,479,1237,-990,-593,-243,115,145,-77
11643,4963,0,2023-03-10T14:07:34.345433,6332523,1443,480,1206,-1026,-701,-284,115,145,-77
11644,4964,0,2023-03-10T14:07:34.350571,6332528,1443,480,1206,-1026,-701,-284,115,145,-77
11645,4965,0,2023-03-10T14:07:34.355570,6332533,1443,480,1206,-1026,-701,-284,115,145,-77
11646,4966,0,2023-03-10T14:07:34.359862,6332537,1443,480,1206,-1026,-701,-284,115,145,-77
11647,4967,0,2023-03-10T14:07:34.364680,6332541,1454,477,1204,-1019,-636,-261,115,145,-77
11648,4968,0,2023-03-10T14:07:34.369617,6332548,1454,477,1204,-1019,-636,-261,115,145,-77
11649,4969,0,2023-03-10T14:07:34.374316,6332552,1454,477,1204,-1019,-636,-261,115,145,-77
11650,4970,0,2023-03-10T14:07:34.378733,6332557,1454,477,1204,-1019,-636,-261,115,145,-77
11651,4971,0,2023-03-10T14:07:34.383125,6332561,1431,472,1209,-1014,-588,-253,115,145,-77
11652,4972,0,2023-03-10T14:07:34.388038,6332565,1431,472,1209,-1014,-588,-253,115,145,-77
11653,4973,0,2023-03-10T14:07:34.392391,6332570,1431,472,1209,-1014,-588,-253,115,145,-77
11654,4974,0,2023-03-10T14:07:34.397610,6332575,1431,472,1209,-1014,-588,-253,115,145,-77
11655,4975,0,2023-03-10T14:07:34.402158,6332579,1469,492,1206,-1019,-633,-287,115,145,-77
11656,4976,0,2023-03-10T14:07:34.407298,6332584,1469,492,1206,-1019,-633,-287,115,145,-77
11657,4977,0,2023-03-10T14:07:34.411814,6332590,1469,492,1206,-1019,-633,-287,115,145,-77
11658,4978,0,2023-03-10T14:07:34.416213,6332594,1469,492,1206,-1019,-633,-287,115,145,-77
11659,4979,0,2023-03-10T14:07:34.421324,6332599,1469,492,1206,-1019,-633,-287,115,145,-77
11660,4980,0,2023-03-10T14:07:34.426143,6332604,1419,469,1213,-986,-617,-200,121,123,-65
11661,4981,0,2023-03-10T14:07:34.431230,6332609,1419,469,1213,-986,-617,-200,121,123,-65
11662,4982,0,2023-03-10T14:07:34.436024,6332613,1419,469,1213,-986,-617,-200,121,123,-65
11663,4983,0,2023-03-10T14:07:34.440595,6332618,1419,469,1213,-986,-617,-200,121,123,-65
11664,4984,0,2023-03-10T14:07:34.445335,6332622,1448,480,1219,-1017,-630,-279,121,123,-65
11665,4985,0,2023-03-10T14:07:34.450133,6332627,1448,480,1219,-1017,-630,-279,121,123,-65
11666,4986,0,2023-03-10T14:07:34.454855,6332632,1448,480,1219,-1017,-630,-279,121,123,-65
11667,4987,0,2023-03-10T14:07:34.459520,6332637,1448,480,1219,-1017,-630,-279,121,123,-65
11668,4988,0,2023-03-10T14:07:34.463865,6332642,1441,479,1198,-1040,-654,-277,121,123,-65
11669,4989,0,2023-03-10T14:07:34.469157,6332647,1441,479,1198,-1040,-654,-277,121,123,-65
11670,4990,0,2023-03-10T14:07:34.473718,6332651,1441,479,1198,-1040,-654,-277,121,123,-65
11671,4991,0,2023-03-10T14:07:34.478148,6332655,1441,479,1198,-1040,-654,-277,121,123,-65
11672,4992,0,2023-03-10T14:07:34.482518,6332660,1457,477,1211,-1009,-626,-257,121,123,-65
11673,4993,0,2023-03-10T14:07:34.487727,6332665,1457,477,1211,-1009,-626,-257,121,123,-65
11674,4994,0,2023-03-10T14:07:34.492193,6332669,1457,477,1211,-1009,-626,-257,121,123,-65
11675,4995,0,2023-03-10T14:07:34.497415,6332675,1457,477,1211,-1009,-626,-257,121,123,-65
11676,4996,0,2023-03-10T14:07:34.503554,6332681,1439,478,1199,-1024,-617,-274,121,123,-65
11677,4997,0,2023-03-10T14:07:34.508635,6332686,1439,478,1199,-1024,-617,-274,121,123,-65
11678,4998,0,2023-03-10T14:07:34.513941,6332691,1439,478,1199,-1024,-617,-274,121,123,-65
11679,4999,0,2023-03-10T14:07:34.518542,6332696,1439,478,1199,-1024,-617,-274,121,123,-65
11680,5000,0,2023-03-10T14:07:34.523094,6332700,1435,478,1210,-1009,-614,-244,121,123,-65
11681,5001,0,2023-03-10T14:07:34.528001,6332705,1435,478,1210,-1009,-614,-244,121,123,-65
11682,5002,0,2023-03-10T14:07:34.533087,6332710,1435,478,1210,-1009,-614,-244,121,123,-65
11683,5003,0,2023-03-10T14:07:34.538611,6332716,1435,478,1210,-1009,-614,-244,121,123,-65
11684,5004,0,2023-03-10T14:07:34.543107,6332721,1450,484,1221,-972,-639,-247,121,123,-65
11685,5005,0,2023-03-10T14:07:34.548816,6332726,1450,484,1221,-972,-639,-247,121,123,-65
11686,5006,0,2023-03-10T14:07:34.553680,6332731,1450,484,1221,-972,-639,-247,121,123,-65
11687,5007,0,2023-03-10T14:07:34.558060,6332736,1450,484,1221,-972,-639,-247,121,123,-65
11688,5008,0,2023-03-10T14:07:34.562653,6332740,1448,479,1200,-1039,-654,-284,120,134,-74
11689,5009,0,2023-03-10T14:07:34.567556,6332745,1448,479,1200,-1039,-654,-284,120,134,-74
11690,5010,0,2023-03-10T14:07:34.572001,6332749,1448,479,1200,-1039,-654,-284,120,134,-74
11691,5011,0,2023-03-10T14:07:34.576757,6332754,1448,479,1200,-1039,-654,-284,120,134,-74
11692,5012,0,2023-03-10T14:07:34.581442,6332759,1438,476,1192,-1020,-628,-265,120,134,-74
11693,5013,0,2023-03-10T14:07:34.586609,6332764,1438,476,1192,-1020,-628,-265,120,134,-74
11694,5014,0,2023-03-10T14:07:34.590776,6332769,1438,476,1192,-1020,-628,-265,120,134,-74
11695,5015,0,2023-03-10T14:07:34.595058,6332773,1438,476,1192,-1020,-628,-265,120,134,-74
11696,5016,0,2023-03-10T14:07:34.599622,6332777,1438,476,1192,-1020,-628,-265,120,134,-74
11697,5017,0,2023-03-10T14:07:34.604160,6332782,1445,471,1217,-994,-628,-255,120,134,-74
11698,5018,0,2023-03-10T14:07:34.609282,6332787,1445,471,1217,-994,-628,-255,120,134,-74
11699,5019,0,2023-03-10T14:07:34.614575,6332792,1445,471,1217,-994,-628,-255,120,134,-74
11700,5020,0,2023-03-10T14:07:34.619229,6332796,1445,471,1217,-994,-628,-255,120,134,-74
11701,5021,0,2023-03-10T14:07:34.623906,6332802,1468,492,1201,-1020,-646,-292,120,134,-74
11702,5022,0,2023-03-10T14:07:34.628705,6332807,1468,492,1201,-1020,-646,-292,120,134,-74
11703,5023,0,2023-03-10T14:07:34.633895,6332811,1468,492,1201,-1020,-646,-292,120,134,-74
11704,5024,0,2023-03-10T14:07:34.638428,6332816,1468,492,1201,-1020,-646,-292,120,134,-74
11705,5025,0,2023-03-10T14:07:34.643446,6332821,1431,474,1206,-993,-603,-213,120,134,-74
11706,5026,0,2023-03-10T14:07:34.648448,6332826,1431,474,1206,-993,-603,-213,120,134,-74
11707,5027,0,2023-03-10T14:07:34.653388,6332831,1431,474,1206,-993,-603,-213,120,134,-74
11708,5028,0,2023-03-10T14:07:34.657932,6332835,1431,474,1206,-993,-603,-213,120,134,-74
11709,5029,0,2023-03-10T14:07:34.662344,6332839,1454,481,1213,-1000,-636,-269,120,134,-74
11710,5030,0,2023-03-10T14:07:34.667546,6332845,1454,481,1213,-1000,-636,-269,120,134,-74
11711,5031,0,2023-03-10T14:07:34.671789,6332850,1454,481,1213,-1000,-636,-269,120,134,-74
11712,5032,0,2023-03-10T14:07:34.676636,6332854,1454,481,1213,-1000,-636,-269,120,134,-74
11713,5033,0,2023-03-10T14:07:34.681288,6332859,1454,481,1213,-1000,-636,-269,120,134,-74
11714,5034,0,2023-03-10T14:07:34.686359,6332864,1433,475,1188,-1044,-689,-268,128,128,-84
11715,5035,0,2023-03-10T14:07:34.691402,6332869,1433,475,1188,-1044,-689,-268,128,128,-84
11716,5036,0,2023-03-10T14:07:34.696127,6332873,1433,475,1188,-1044,-689,-268,128,128,-84
11717,5037,0,2023-03-10T14:07:34.700740,6332878,1433,475,1188,-1044,-689,-268,128,128,-84
11718,5038,0,2023-03-10T14:07:34.705221,6332882,1457,477,1208,-1006,-607,-258,128,128,-84
11719,5039,0,2023-03-10T14:07:34.710076,6332888,1457,477,1208,-1006,-607,-258,128,128,-84
11720,5040,0,2023-03-10T14:07:34.715094,6332893,1457,477,1208,-1006,-607,-258,128,128,-84
11721,5041,0,2023-03-10T14:07:34.719672,6332897,1457,477,1208,-1006,-607,-258,128,128,-84
11722,5042,0,2023-03-10T14:07:34.724076,6332902,1449,471,1203,-1009,-597,-268,128,128,-84
11723,5043,0,2023-03-10T14:07:34.729022,6332907,1449,471,1203,-1009,-597,-268,128,128,-84
11724,5044,0,2023-03-10T14:07:34.734231,6332911,1449,471,1203,-1009,-597,-268,128,128,-84
11725,5045,0,2023-03-10T14:07:34.739116,6332916,1449,471,1203,-1009,-597,-268,128,128,-84
11726,5046,0,2023-03-10T14:07:34.743488,6332921,1439,477,1193,-1013,-628,-251,128,128,-84
11727,5047,0,2023-03-10T14:07:34.748600,6332926,1439,477,1193,-1013,-628,-251,128,128,-84
11728,5048,0,2023-03-10T14:07:34.753878,6332932,1439,477,1193,-1013,-628,-251,128,128,-84
11729,5049,0,2023-03-10T14:07:34.758440,6332936,1439,477,1193,-1013,-628,-251,128,128,-84
11730,5050,0,2023-03-10T14:07:34.762859,6332941,1449,478,1228,-989,-599,-230,128,128,-84
11731,5051,0,2023-03-10T14:07:34.767972,6332945,1449,478,1228,-989,-599,-230,128,128,-84
11732,5052,0,2023-03-10T14:07:34.772455,6332950,1449,478,1228,-989,-599,-230,128,128,-84
11733,5053,0,2023-03-10T14:07:34.777375,6332955,1449,478,1228,-989,-599,-230,128,128,-84
11734,5054,0,2023-03-10T14:07:34.782346,6332960,1439,480,1203,-1019,-696,-281,128,128,-84
11735,5055,0,2023-03-10T14:07:34.787601,6332965,1439,480,1203,-1019,-696,-281,128,128,-84
11736,5056,0,2023-03-10T14:07:34.792410,6332969,1439,480,1203,-1019,-696,-281,128,128,-84
11737,5057,0,2023-03-10T14:07:34.797535,6332975,1439,480,1203,-1019,-696,-281,128,128,-84
11738,5058,0,2023-03-10T14:07:34.802081,6332980,1460,477,1191,-1034,-642,-267,123,125,-81
11739,5059,0,2023-03-10T14:07:34.807281,6332985,1460,477,1191,-1034,-642,-267,123,125,-81
11740,5060,0,2023-03-10T14:07:34.811444,6332989,1460,477,1191,-1034,-642,-267,123,125,-81
11741,5061,0,2023-03-10T14:07:34.815906,6332993,1460,477,1191,-1034,-642,-267,123,125,-81
11742,5062,0,2023-03-10T14:07:34.820366,6332998,1460,477,1191,-1034,-642,-267,123,125,-81
11743,5063,0,2023-03-10T14:07:34.824821,6333002,1435,473,1210,-1004,-578,-244,123,125,-81
11744,5064,0,2023-03-10T14:07:34.829616,6333007,1435,473,1210,-1004,-578,-244,123,125,-81
11745,5065,0,2023-03-10T14:07:34.834653,6333012,1435,473,1210,-1004,-578,-244,123,125,-81
11746,5066,0,2023-03-10T14:07:34.838991,6333017,1435,473,1210,-1004,-578,-244,123,125,-81
11747,5067,0,2023-03-10T14:07:34.843470,6333021,1469,489,1203,-1017,-637,-289,123,125,-81
11748,5068,0,2023-03-10T14:07:34.848455,6333026,1469,489,1203,-1017,-637,-289,123,125,-81
11749,5069,0,2023-03-10T14:07:34.853004,6333031,1469,489,1203,-1017,-637,-289,123,125,-81
11750,5070,0,2023-03-10T14:07:34.858207,6333035,1469,489,1203,-1017,-637,-289,123,125,-81
11751,5071,0,2023-03-10T14:07:34.863006,6333040,1428,470,1205,-997,-616,-213,123,125,-81
11752,5072,0,2023-03-10T14:07:34.867390,6333045,1428,470,1205,-997,-616,-213,123,125,-81
11753,5073,0,2023-03-10T14:07:34.871868,6333049,1428,470,1205,-997,-616,-213,123,125,-81
11754,5074,0,2023-03-10T14:07:34.876377,6333053,1428,470,1205,-997,-616,-213,123,125,-81
11755,5075,0,2023-03-10T14:07:34.881008,6333059,1428,470,1205,-997,-616,-213,123,125,-81
11756,5076,0,2023-03-10T14:07:34.886108,6333064,1450,476,1211,-1010,-630,-274,123,125,-81
11757,5077,0,2023-03-10T14:07:34.891278,6333069,1450,476,1211,-1010,-630,-274,123,125,-81
11758,5078,0,2023-03-10T14:07:34.896716,6333074,1450,476,1211,-1010,-630,-274,123,125,-81
11759,5079,0,2023-03-10T14:07:34.901120,6333079,1450,476,1211,-1010,-630,-274,123,125,-81
11760,5080,0,2023-03-10T14:07:34.905632,6333083,1447,479,1199,-1026,-642,-276,123,125,-81
11761,5081,0,2023-03-10T14:07:34.911412,6333088,1447,479,1199,-1026,-642,-276,123,125,-81
11762,5082,0,2023-03-10T14:07:34.915793,6333093,1447,479,1199,-1026,-642,-276,123,125,-81
11763,5083,0,2023-03-10T14:07:34.920225,6333097,1447,479,1199,-1026,-642,-276,123,125,-81
11764,5084,0,2023-03-10T14:07:34.924645,6333103,1463,477,1202,-997,-637,-262,123,125,-81
11765,5085,0,2023-03-10T14:07:34.929728,6333108,1463,477,1202,-997,-637,-262,123,125,-81
11766,5086,0,2023-03-10T14:07:34.934189,6333112,1463,477,1202,-997,-637,-262,123,125,-81
11767,5087,0,2023-03-10T14:07:34.938810,6333116,1463,477,1202,-997,-637,-262,123,125,-81
11768,5088,0,2023-03-10T14:07:34.943266,6333121,1458,484,1201,-1003,-610,-270,122,130,-72
11769,5089,0,2023-03-10T14:07:34.948468,6333126,1458,484,1201,-1003,-610,-270,122,130,-72
11770,5090,0,2023-03-10T14:07:34.953319,6333131,1458,484,1201,-1003,-610,-270,122,130,-72
11771,5091,0,2023-03-10T14:07:34.958008,6333135,1458,484,1201,-1003,-610,-270,122,130,-72
11772,5092,0,2023-03-10T14:07:34.962475,6333140,1422,457,1208,-995,-616,-204,122,130,-72
11773,5093,0,2023-03-10T14:07:34.967318,6333145,1422,457,1208,-995,-616,-204,122,130,-72
11774,5094,0,2023-03-10T14:07:34.971668,6333150,1422,457,1208,-995,-616,-204,122,130,-72
11775,5095,0,2023-03-10T14:07:34.976651,6333154,1422,457,1208,-995,-616,-204,122,130,-72
11776,5096,0,2023-03-10T14:07:34.981152,6333159,1422,457,1208,-995,-616,-204,122,130,-72
11777,5097,0,2023-03-10T14:07:34.986020,6333163,1461,482,1221,-1003,-626,-297,122,130,-72
11778,5098,0,2023-03-10T14:07:34.991281,6333169,1461,482,1221,-1003,-626,-297,122,130,-72
11779,5099,0,2023-03-10T14:07:34.996133,6333173,1461,482,1221,-1003,-626,-297,122,130,-72
11780,5100,0,2023-03-10T14:07:35.000622,6333178,1461,482,1221,-1003,-626,-297,122,130,-72
11781,5101,0,2023-03-10T14:07:35.005190,6333182,1456,475,1193,-1030,-642,-267,122,130,-72
11782,5102,0,2023-03-10T14:07:35.010265,6333188,1456,475,1193,-1030,-642,-267,122,130,-72
11783,5103,0,2023-03-10T14:07:35.015451,6333193,1456,475,1193,-1030,-642,-267,122,130,-72
11784,5104,0,2023-03-10T14:07:35.019829,6333198,1456,475,1193,-1030,-642,-267,122,130,-72
11785,5105,0,2023-03-10T14:07:35.024461,6333202,1440,475,1198,-999,-622,-259,122,130,-72
11786,5106,0,2023-03-10T14:07:35.029648,6333207,1440,475,1198,-999,-622,-259,122,130,-72
11787,5107,0,2023-03-10T14:07:35.034612,6333212,1440,475,1198,-999,-622,-259,122,130,-72
11788,5108,0,2023-03-10T14:07:35.039030,6333216,1440,475,1198,-999,-622,-259,122,130,-72
11789,5109,0,2023-03-10T14:07:35.043382,6333221,1448,471,1202,-1009,-633,-253,122,130,-72
11790,5110,0,2023-03-10T14:07:35.048162,6333225,1448,471,1202,-1009,-633,-253,122,130,-72
11791,5111,0,2023-03-10T14:07:35.052678,6333231,1448,471,1202,-1009,-633,-253,122,130,-72
11792,5112,0,2023-03-10T14:07:35.057662,6333235,1448,471,1202,-1009,-633,-253,122,130,-72
11793,5113,0,2023-03-10T14:07:35.062101,6333240,1455,481,1208,-994,-625,-270,120,130,-72
11794,5114,0,2023-03-10T14:07:35.067279,6333245,1455,481,1208,-994,-625,-270,120,126,-76
11795,5115,0,2023-03-10T14:07:35.071661,6333249,1455,481,1208,-994,-625,-270,120,126,-76
11796,5116,0,2023-03-10T14:07:35.076885,6333254,1455,481,1208,-994,-625,-270,120,126,-76
11797,5117,0,2023-03-10T14:07:35.081437,6333259,1455,481,1208,-994,-625,-270,120,126,-76
11798,5118,0,2023-03-10T14:07:35.086020,6333263,1456,481,1205,-1028,-637,-270,120,126,-76
11799,5119,0,2023-03-10T14:07:35.091142,6333268,1456,481,1205,-1028,-637,-270,120,126,-76
11800,5120,0,2023-03-10T14:07:35.096324,6333274,1456,481,1205,-1028,-637,-270,120,126,-76
11801,5121,0,2023-03-10T14:07:35.100922,6333279,1456,481,1205,-1028,-637,-270,120,126,-76
11802,5122,0,2023-03-10T14:07:35.105531,6333283,1443,479,1187,-1024,-638,-266,120,126,-76
11803,5123,0,2023-03-10T14:07:35.110486,6333288,1443,479,1187,-1024,-638,-266,120,126,-76
11804,5124,0,2023-03-10T14:07:35.115445,6333293,1443,479,1187,-1024,-638,-266,120,126,-76
11805,5125,0,2023-03-10T14:07:35.119869,6333297,1443,479,1187,-1024,-638,-266,120,126,-76
11806,5126,0,2023-03-10T14:07:35.124297,6333302,1459,472,1213,-1006,-615,-234,120,126,-76
11807,5127,0,2023-03-10T14:07:35.129436,6333307,1459,472,1213,-1006,-615,-234,120,126,-76
11808,5128,0,2023-03-10T14:07:35.134492,6333312,1459,472,1213,-1006,-615,-234,120,126,-76
11809,5129,0,2023-03-10T14:07:35.139196,6333317,1459,472,1213,-1006,-615,-234,120,126,-76
11810,5130,0,2023-03-10T14:07:35.143976,6333322,1434,473,1197,-987,-647,-234,120,126,-76
11811,5131,0,2023-03-10T14:07:35.149190,6333327,1434,473,1197,-987,-647,-234,120,126,-76
11812,5132,0,2023-03-10T14:07:35.154099,6333332,1434,473,1197,-987,-647,-234,120,126,-76
11813,5133,0,2023-03-10T14:07:35.159276,6333336,1434,473,1197,-987,-647,-234,120,126,-76
11814,5134,0,2023-03-10T14:07:35.163994,6333341,1474,484,1199,-1045,-627,-295,120,126,-76
11815,5135,0,2023-03-10T14:07:35.169084,6333346,1474,484,1199,-1045,-627,-295,120,126,-76
11816,5136,0,2023-03-10T14:07:35.174359,6333351,1474,484,1199,-1045,-627,-295,120,126,-76
11817,5137,0,2023-03-10T14:07:35.178886,6333357,1474,484,1199,-1045,-627,-295,120,126,-76
11818,5138,0,2023-03-10T14:07:35.183545,6333361,1443,475,1184,-1015,-632,-263,120,126,-76
11819,5139,0,2023-03-10T14:07:35.188552,6333366,1443,475,1184,-1015,-632,-263,120,126,-76
11820,5140,0,2023-03-10T14:07:35.193446,6333371,1443,475,1184,-1015,-632,-263,120,126,-76
11821,5141,0,2023-03-10T14:07:35.198010,6333375,1443,475,1184,-1015,-632,-263,120,126,-76
11822,5142,0,2023-03-10T14:07:35.202318,6333380,1456,475,1206,-1020,-613,-272,113,127,-79
11823,5143,0,2023-03-10T14:07:35.207318,6333385,1456,475,1206,-1020,-613,-272,113,127,-79
11824,5144,0,2023-03-10T14:07:35.211996,6333389,1456,475,1206,-1020,-613,-272,113,127,-79
11825,5145,0,2023-03-10T14:07:35.216520,6333394,1456,475,1206,-1020,-613,-272,113,127,-79
11826,5146,0,2023-03-10T14:07:35.220875,6333399,1456,475,1206,-1020,-613,-272,113,127,-79
11827,5147,0,2023-03-10T14:07:35.225458,6333403,1463,487,1197,-1021,-644,-279,113,127,-79
11828,5148,0,2023-03-10T14:07:35.230316,6333408,1463,487,1197,-1021,-644,-279,113,127,-79
11829,5149,0,2023-03-10T14:07:35.235145,6333413,1463,487,1197,-1021,-644,-279,113,127,-79
11830,5150,0,2023-03-10T14:07:35.239748,6333417,1463,487,1197,-1021,-644,-279,113,127,-79
11831,5151,0,2023-03-10T14:07:35.244310,6333422,1450,473,1201,-993,-617,-221,113,127,-79
11832,5152,0,2023-03-10T14:07:35.249225,6333427,1450,473,1201,-993,-617,-221,113,127,-79
11833,5153,0,2023-03-10T14:07:35.254337,6333432,1450,473,1201,-993,-617,-221,113,127,-79
11834,5154,0,2023-03-10T14:07:35.259104,6333436,1450,473,1201,-993,-617,-221,113,127,-79
11835,5155,0,2023-03-10T14:07:35.263528,6333441,1437,471,1199,-1022,-630,-266,113,127,-79
11836,5156,0,2023-03-10T14:07:35.268892,6333446,1437,471,1199,-1022,-630,-266,113,127,-79
11837,5157,0,2023-03-10T14:07:35.274217,6333452,1437,471,1199,-1022,-630,-266,113,127,-79
11838,5158,0,2023-03-10T14:07:35.279018,6333457,1437,471,1199,-1022,-630,-266,113,127,-79
11839,5159,0,2023-03-10T14:07:35.284329,6333462,1462,477,1200,-1039,-647,-283,113,127,-79
11840,5160,0,2023-03-10T14:07:35.289119,6333467,1462,477,1200,-1039,-647,-283,113,127,-79
11841,5161,0,2023-03-10T14:07:35.294419,6333472,1462,477,1200,-1039,-647,-283,113,127,-79
11842,5162,0,2023-03-10T14:07:35.298825,6333476,1462,477,1200,-1039,-647,-283,113,127,-79
11843,5163,0,2023-03-10T14:07:35.303595,6333480,1463,481,1197,-1006,-641,-266,113,127,-79
11844,5164,0,2023-03-10T14:07:35.308697,6333487,1463,481,1197,-1006,-641,-266,113,127,-79
11845,5165,0,2023-03-10T14:07:35.313339,6333491,1463,481,1197,-1006,-641,-266,113,127,-79
11846,5166,0,2023-03-10T14:07:35.317962,6333496,1463,481,1197,-1006,-641,-266,113,127,-79
11847,5167,0,2023-03-10T14:07:35.322774,6333500,1454,474,1189,-1023,-621,-262,115,125,-75
11848,5168,0,2023-03-10T14:07:35.327561,6333505,1454,474,1189,-1023,-621,-262,115,125,-75
11849,5169,0,2023-03-10T14:07:35.332033,6333509,1454,474,1189,-1023,-621,-262,115,125,-75
11850,5170,0,2023-03-10T14:07:35.337612,6333514,1454,474,1189,-1023,-621,-262,115,125,-75
11851,5171,0,2023-03-10T14:07:35.342043,6333519,1454,474,1189,-1023,-621,-262,115,125,-75
11852,5172,0,2023-03-10T14:07:35.346681,6333524,1443,470,1200,-1007,-608,-266,115,125,-75
11853,5173,0,2023-03-10T14:07:35.351687,6333530,1443,470,1200,-1007,-608,-266,115,125,-75
11854,5174,0,2023-03-10T14:07:35.356273,6333534,1443,470,1200,-1007,-608,-266,115,125,-75
11855,5175,0,2023-03-10T14:07:35.360663,6333538,1443,470,1200,-1007,-608,-266,115,125,-75
11856,5176,0,2023-03-10T14:07:35.365514,6333543,1460,482,1209,-1024,-637,-284,115,125,-75
11857,5177,0,2023-03-10T14:07:35.370763,6333548,1460,482,1209,-1024,-637,-284,115,125,-75
11858,5178,0,2023-03-10T14:07:35.375521,6333553,1460,482,1209,-1024,-637,-284,115,125,-75
11859,5179,0,2023-03-10T14:07:35.380291,6333557,1460,482,1209,-1024,-637,-284,115,125,-75
11860,5180,0,2023-03-10T14:07:35.384907,6333562,1459,483,1192,-1009,-639,-273,115,125,-75
11861,5181,0,2023-03-10T14:07:35.389821,6333568,1459,483,1192,-1009,-639,-273,115,125,-75
11862,5182,0,2023-03-10T14:07:35.394748,6333573,1459,483,1192,-1009,-639,-273,115,125,-75
11863,5183,0,2023-03-10T14:07:35.399014,6333577,1459,483,1192,-1009,-639,-273,115,125,-75
11864,5184,0,2023-03-10T14:07:35.403545,6333581,1453,472,1194,-993,-613,-233,115,125,-75
11865,5185,0,2023-03-10T14:07:35.408325,6333586,1453,472,1194,-993,-613,-233,115,125,-75
11866,5186,0,2023-03-10T14:07:35.412758,6333590,1453,472,1194,-993,-613,-233,115,125,-75
11867,5187,0,2023-03-10T14:07:35.418181,6333595,1453,472,1194,-993,-613,-233,115,125,-75
11868,5188,0,2023-03-10T14:07:35.423215,6333601,1441,469,1194,-986,-656,-224,115,125,-75
11869,5189,0,2023-03-10T14:07:35.428266,6333605,1441,469,1194,-986,-656,-224,115,125,-75
11870,5190,0,2023-03-10T14:07:35.432610,6333611,1441,469,1194,-986,-656,-224,115,125,-75
11871,5191,0,2023-03-10T14:07:35.437796,6333615,1441,469,1194,-986,-656,-224,115,125,-75
11872,5192,0,2023-03-10T14:07:35.442649,6333621,1469,483,1195,-1025,-615,-295,123,131,-75
11873,5193,0,2023-03-10T14:07:35.447228,6333625,1469,483,1195,-1025,-615,-295,123,131,-71
11874,5194,0,2023-03-10T14:07:35.451771,6333629,1469,483,1195,-1025,-615,-295,123,131,-71
11875,5195,0,2023-03-10T14:07:35.456027,6333634,1469,483,1195,-1025,-615,-295,123,131,-71
11876,5196,0,2023-03-10T14:07:35.460505,6333638,1469,483,1195,-1025,-615,-295,123,131,-71
11877,5197,0,2023-03-10T14:07:35.465208,6333643,1452,473,1192,-1007,-665,-259,123,131,-71
11878,5198,0,2023-03-10T14:07:35.469901,6333647,1452,473,1192,-1007,-665,-259,123,131,-71
11879,5199,0,2023-03-10T14:07:35.475033,6333652,1452,473,1192,-1007,-665,-259,123,131,-71
11880,5200,0,2023-03-10T14:07:35.479487,6333657,1452,473,1192,-1007,-665,-259,123,131,-71
11881,5201,0,2023-03-10T14:07:35.484143,6333662,1472,486,1200,-1015,-604,-297,123,131,-71
11882,5202,0,2023-03-10T14:07:35.489273,6333667,1472,486,1200,-1015,-604,-297,123,131,-71
11883,5203,0,2023-03-10T14:07:35.494172,6333672,1472,486,1200,-1015,-604,-297,123,131,-71
11884,5204,0,2023-03-10T14:07:35.498592,6333676,1472,486,1200,-1015,-604,-297,123,131,-71
11885,5205,0,2023-03-10T14:07:35.503185,6333680,1433,468,1198,-991,-595,-218,123,131,-71
11886,5206,0,2023-03-10T14:07:35.508277,6333686,1433,468,1198,-991,-595,-218,123,131,-71
11887,5207,0,2023-03-10T14:07:35.512764,6333690,1433,468,1198,-991,-595,-218,123,131,-71
11888,5208,0,2023-03-10T14:07:35.518363,6333696,1433,468,1198,-991,-595,-218,123,131,-71
11889,5209,0,2023-03-10T14:07:35.522932,6333701,1459,479,1213,-986,-649,-270,123,131,-71
11890,5210,0,2023-03-10T14:07:35.527999,6333706,1459,479,1213,-986,-649,-270,123,131,-71
11891,5211,0,2023-03-10T14:07:35.532541,6333710,1459,479,1213,-986,-649,-270,123,131,-71
11892,5212,0,2023-03-10T14:07:35.537951,6333715,1459,479,1213,-986,-649,-270,123,131,-71
11893,5213,0,2023-03-10T14:07:35.542790,6333720,1450,474,1194,-1048,-627,-283,123,131,-71
11894,5214,0,2023-03-10T14:07:35.547945,6333725,1450,474,1194,-1048,-627,-283,123,131,-71
11895,5215,0,2023-03-10T14:07:35.552369,6333730,1450,474,1194,-1048,-627,-283,123,131,-71
11896,5216,0,2023-03-10T14:07:35.557411,6333734,1450,474,1194,-1048,-627,-283,123,131,-71
11897,5217,0,2023-03-10T14:07:35.562144,6333740,1450,474,1194,-1048,-627,-283,123,131,-71
11898,5218,0,2023-03-10T14:07:35.566427,6333744,1468,476,1187,-1004,-644,-262,123,131,-71
11899,5219,0,2023-03-10T14:07:35.571782,6333749,1468,476,1187,-1004,-644,-262,123,131,-71
11900,5220,0,2023-03-10T14:07:35.577240,6333755,1468,476,1187,-1004,-644,-262,123,131,-71
11901,5221,0,2023-03-10T14:07:35.581692,6333759,1468,476,1187,-1004,-644,-262,123,131,-71
11902,5222,0,2023-03-10T14:07:35.587012,6333764,1457,474,1199,-1009,-619,-259,126,122,-76
11903,5223,0,2023-03-10T14:07:35.592052,6333769,1457,474,1199,-1009,-619,-259,126,122,-76
11904,5224,0,2023-03-10T14:07:35.596800,6333774,1457,474,1199,-1009,-619,-259,126,122,-76
11905,5225,0,2023-03-10T14:07:35.601429,6333778,1457,474,1199,-1009,-619,-259,126,122,-76
11906,5226,0,2023-03-10T14:07:35.606361,6333784,1467,486,1193,-997,-645,-279,126,122,-76
11907,5227,0,2023-03-10T14:07:35.611225,6333789,1467,486,1193,-997,-645,-279,126,122,-76
11908,5228,0,2023-03-10T14:07:35.616497,6333794,1467,486,1193,-997,-645,-279,126,122,-76
11909,5229,0,2023-03-10T14:07:35.621141,6333799,1467,486,1193,-997,-645,-279,126,122,-76
11910,5230,0,2023-03-10T14:07:35.625921,6333803,1441,476,1211,-982,-613,-214,126,122,-76
11911,5231,0,2023-03-10T14:07:35.630886,6333808,1441,476,1211,-982,-613,-214,126,122,-76
11912,5232,0,2023-03-10T14:07:35.636344,6333814,1441,476,1211,-982,-613,-214,126,122,-76
11913,5233,0,2023-03-10T14:07:35.641245,6333818,1441,476,1211,-982,-613,-214,126,122,-76
11914,5234,0,2023-03-10T14:07:35.646461,6333824,1453,475,1196,-1031,-620,-283,126,122,-76
11915,5235,0,2023-03-10T14:07:35.651750,6333830,1453,475,1196,-1031,-620,-283,126,122,-76
11916,5236,0,2023-03-10T14:07:35.656441,6333834,1453,475,1196,-1031,-620,-283,126,122,-76
11917,5237,0,2023-03-10T14:07:35.661241,6333839,1453,475,1196,-1031,-620,-283,126,122,-76
11918,5238,0,2023-03-10T14:07:35.665766,6333843,1456,478,1191,-1031,-643,-280,126,122,-76
11919,5239,0,2023-03-10T14:07:35.671048,6333848,1456,478,1191,-1031,-643,-280,126,122,-76
11920,5240,0,2023-03-10T14:07:35.676360,6333853,1456,478,1191,-1031,-643,-280,126,122,-76
11921,5241,0,2023-03-10T14:07:35.680786,6333858,1456,478,1191,-1031,-643,-280,126,122,-76
11922,5242,0,2023-03-10T14:07:35.685549,6333863,1468,476,1200,-1006,-642,-258,126,122,-76
11923,5243,0,2023-03-10T14:07:35.690466,6333869,1468,476,1200,-1006,-642,-258,126,122,-76
11924,5244,0,2023-03-10T14:07:35.695376,6333873,1468,476,1200,-1006,-642,-258,126,122,-76
11925,5245,0,2023-03-10T14:07:35.699785,6333878,1468,476,1200,-1006,-642,-258,126,122,-76
11926,5246,0,2023-03-10T14:07:35.704424,6333882,1472,485,1190,-1020,-627,-293,120,128,-78
11927,5247,0,2023-03-10T14:07:35.709399,6333887,1472,485,1190,-1020,-627,-293,120,128,-78
11928,5248,0,2023-03-10T14:07:35.714422,6333892,1472,485,1190,-1020,-627,-293,120,128,-78
11929,5249,0,2023-03-10T14:07:35.718980,6333896,1472,485,1190,-1020,-627,-293,120,128,-78
11930,5250,0,2023-03-10T14:07:35.723769,6333901,1445,472,1188,-1015,-616,-229,120,128,-78
11931,5251,0,2023-03-10T14:07:35.728893,6333906,1445,472,1188,-1015,-616,-229,120,128,-78
11932,5252,0,2023-03-10T14:07:35.734230,6333912,1445,472,1188,-1015,-616,-229,120,128,-78
11933,5253,0,2023-03-10T14:07:35.738728,6333917,1445,472,1188,-1015,-616,-229,120,128,-78
11934,5254,0,2023-03-10T14:07:35.744127,6333922,1451,485,1206,-984,-628,-257,120,128,-78
11935,5255,0,2023-03-10T14:07:35.749229,6333927,1451,485,1206,-984,-628,-257,120,128,-78
11936,5256,0,2023-03-10T14:07:35.754448,6333932,1451,485,1206,-984,-628,-257,120,128,-78
11937,5257,0,2023-03-10T14:07:35.758900,6333936,1451,485,1206,-984,-628,-257,120,128,-78
11938,5258,0,2023-03-10T14:07:35.763607,6333941,1471,479,1196,-1037,-642,-294,120,128,-78
11939,5259,0,2023-03-10T14:07:35.768891,6333946,1471,479,1196,-1037,-642,-294,120,128,-78
11940,5260,0,2023-03-10T14:07:35.773926,6333952,1471,479,1196,-1037,-642,-294,120,128,-78
11941,5261,0,2023-03-10T14:07:35.778469,6333957,1471,479,1196,-1037,-642,-294,120,128,-78
11942,5262,0,2023-03-10T14:07:35.783178,6333961,1466,477,1178,-1015,-637,-271,120,128,-78
11943,5263,0,2023-03-10T14:07:35.788495,6333966,1466,477,1178,-1015,-637,-271,120,128,-78
11944,5264,0,2023-03-10T14:07:35.793224,6333971,1466,477,1178,-1015,-637,-271,120,128,-78
11945,5265,0,2023-03-10T14:07:35.798361,6333976,1466,477,1178,-1015,-637,-271,120,128,-78
11946,5266,0,2023-03-10T14:07:35.802849,6333980,1466,477,1178,-1015,-637,-271,120,128,-78
11947,5267,0,2023-03-10T14:07:35.807287,6333985,1455,468,1186,-1011,-629,-260,120,128,-78
11948,5268,0,2023-03-10T14:07:35.812227,6333989,1455,468,1186,-1011,-629,-260,120,128,-78
11949,5269,0,2023-03-10T14:07:35.816759,6333995,1455,468,1186,-1011,-629,-260,120,128,-78
11950,5270,0,2023-03-10T14:07:35.821018,6333999,1455,468,1186,-1011,-629,-260,120,128,-78
11951,5271,0,2023-03-10T14:07:35.825466,6334003,1478,487,1189,-1024,-614,-284,120,128,-78
11952,5272,0,2023-03-10T14:07:35.830487,6334008,1478,487,1189,-1024,-614,-284,120,128,-78
11953,5273,0,2023-03-10T14:07:35.835178,6334013,1478,487,1189,-1024,-614,-284,120,128,-78
11954,5274,0,2023-03-10T14:07:35.839865,6334017,1478,487,1189,-1024,-614,-284,120,128,-78
11955,5275,0,2023-03-10T14:07:35.844639,6334022,1450,473,1192,-989,-645,-218,117,127,-75
11956,5276,0,2023-03-10T14:07:35.849502,6334027,1450,473,1192,-989,-645,-218,117,127,-75
11957,5277,0,2023-03-10T14:07:35.854650,6334032,1450,473,1192,-989,-645,-218,117,127,-75
11958,5278,0,2023-03-10T14:07:35.859383,6334036,1450,473,1192,-989,-645,-218,117,127,-75
11959,5279,0,2023-03-10T14:07:35.863979,6334042,1471,478,1199,-1023,-629,-281,117,127,-75
11960,5280,0,2023-03-10T14:07:35.868280,6334046,1471,478,1199,-1023,-629,-281,117,127,-75
11961,5281,0,2023-03-10T14:07:35.872857,6334051,1471,478,1199,-1023,-629,-281,117,127,-75
11962,5282,0,2023-03-10T14:07:35.878038,6334055,1471,478,1199,-1023,-629,-281,117,127,-75
11963,5283,0,2023-03-10T14:07:35.882665,6334060,1471,478,1199,-1023,-629,-281,117,127,-75
11964,5284,0,2023-03-10T14:07:35.887280,6334065,1454,475,1181,-1048,-643,-272,117,127,-75
11965,5285,0,2023-03-10T14:07:35.892308,6334070,1454,475,1181,-1048,-643,-272,117,127,-75
11966,5286,0,2023-03-10T14:07:35.897338,6334075,1454,475,1181,-1048,-643,-272,117,127,-75
11967,5287,0,2023-03-10T14:07:35.901939,6334080,1454,475,1181,-1048,-643,-272,117,127,-75
11968,5288,0,2023-03-10T14:07:35.906559,6334084,1472,477,1199,-1014,-613,-257,117,127,-75
11969,5289,0,2023-03-10T14:07:35.911454,6334089,1472,477,1199,-1014,-613,-257,117,127,-75
11970,5290,0,2023-03-10T14:07:35.916396,6334094,1472,477,1199,-1014,-613,-257,117,127,-75
11971,5291,0,2023-03-10T14:07:35.921061,6334099,1472,477,1199,-1014,-613,-257,117,127,-75
11972,5292,0,2023-03-10T14:07:35.925657,6334103,1453,473,1185,-1011,-645,-270,117,127,-75
11973,5293,0,2023-03-10T14:07:35.930557,6334108,1453,473,1185,-1011,-645,-270,117,127,-75
11974,5294,0,2023-03-10T14:07:35.935341,6334113,1453,473,1185,-1011,-645,-270,117,127,-75
11975,5295,0,2023-03-10T14:07:35.939918,6334117,1453,473,1185,-1011,-645,-270,117,127,-75
11976,5296,0,2023-03-10T14:07:35.944556,6334123,1472,474,1187,-1018,-614,-253,117,127,-75
11977,5297,0,2023-03-10T14:07:35.949324,6334127,1472,474,1187,-1018,-614,-253,117,127,-75
11978,5298,0,2023-03-10T14:07:35.954505,6334132,1472,474,1187,-1018,-614,-253,117,127,-75
11979,5299,0,2023-03-10T14:07:35.958872,6334137,1472,474,1187,-1018,-614,-253,117,127,-75
11980,5300,0,2023-03-10T14:07:35.963234,6334141,1437,467,1194,-992,-612,-237,117,127,-75
11981,5301,0,2023-03-10T14:07:35.967506,6334145,1437,467,1194,-992,-612,-237,119,127,-69
11982,5302,0,2023-03-10T14:07:35.972176,6334149,1437,467,1194,-992,-612,-237,119,127,-69
11983,5303,0,2023-03-10T14:07:35.977326,6334155,1437,467,1194,-992,-612,-237,119,127,-69
11984,5304,0,2023-03-10T14:07:35.981773,6334159,1437,467,1194,-992,-612,-237,119,127,-69
11985,5305,0,2023-03-10T14:07:35.986239,6334163,1472,480,1203,-1021,-635,-297,119,127,-69
11986,5306,0,2023-03-10T14:07:35.991087,6334169,1472,480,1203,-1021,-635,-297,119,127,-69
11987,5307,0,2023-03-10T14:07:35.996442,6334174,1472,480,1203,-1021,-635,-297,119,127,-69
11988,5308,0,2023-03-10T14:07:36.000803,6334179,1472,480,1203,-1021,-635,-297,119,127,-69
11989,5309,0,2023-03-10T14:07:36.005310,6334183,1473,476,1191,-1009,-647,-270,119,127,-69
11990,5310,0,2023-03-10T14:07:36.010186,6334188,1473,476,1191,-1009,-647,-270,119,127,-69
11991,5311,0,2023-03-10T14:07:36.015024,6334193,1473,476,1191,-1009,-647,-270,119,127,-69
11992,5312,0,2023-03-10T14:07:36.019404,6334197,1473,476,1191,-1009,-647,-270,119,127,-69
11993,5313,0,2023-03-10T14:07:36.024310,6334202,1459,475,1177,-1019,-614,-265,119,127,-69
11994,5314,0,2023-03-10T14:07:36.029081,6334206,1459,475,1177,-1019,-614,-265,119,127,-69
11995,5315,0,2023-03-10T14:07:36.034033,6334212,1459,475,1177,-1019,-614,-265,119,127,-69
11996,5316,0,2023-03-10T14:07:36.038773,6334216,1459,475,1177,-1019,-614,-265,119,127,-69
11997,5317,0,2023-03-10T14:07:36.043815,6334222,1451,464,1198,-993,-610,-231,119,127,-69
11998,5318,0,2023-03-10T14:07:36.048934,6334226,1451,464,1198,-993,-610,-231,119,127,-69
11999,5319,0,2023-03-10T14:07:36.053864,6334231,1451,464,1198,-993,-610,-231,119,127,-69
12000,5320,0,2023-03-10T14:07:36.058260,6334236,1451,464,1198,-993,-610,-231,119,127,-69
12001,5321,0,2023-03-10T14:07:36.063044,6334240,1451,464,1198,-993,-610,-231,119,127,-69
12002,5322,0,2023-03-10T14:07:36.067401,6334245,1469,477,1198,-1005,-650,-280,119,127,-69
12003,5323,0,2023-03-10T14:07:36.072029,6334249,1469,477,1198,-1005,-650,-280,119,127,-69
12004,5324,0,2023-03-10T14:07:36.077339,6334255,1469,477,1198,-1005,-650,-280,119,127,-69
12005,5325,0,2023-03-10T14:07:36.082019,6334260,1469,477,1198,-1005,-650,-280,119,127,-69
12006,5326,0,2023-03-10T14:07:36.086591,6334264,1474,475,1184,-1045,-642,-281,119,127,-69
12007,5327,0,2023-03-10T14:07:36.091672,6334269,1474,475,1184,-1045,-642,-281,119,127,-69
12008,5328,0,2023-03-10T14:07:36.096209,6334274,1474,475,1184,-1045,-642,-281,119,127,-69
12009,5329,0,2023-03-10T14:07:36.100827,6334278,1474,475,1184,-1045,-642,-281,119,127,-69
12010,5330,0,2023-03-10T14:07:36.105106,6334283,1454,468,1185,-1008,-617,-260,117,131,-81
12011,5331,0,2023-03-10T14:07:36.110053,6334287,1454,468,1185,-1008,-617,-260,117,131,-81
12012,5332,0,2023-03-10T14:07:36.114396,6334292,1454,468,1185,-1008,-617,-260,117,131,-81
12013,5333,0,2023-03-10T14:07:36.119332,6334297,1454,468,1185,-1008,-617,-260,117,131,-81
12014,5334,0,2023-03-10T14:07:36.123782,6334302,1464,477,1191,-1025,-631,-279,117,131,-81
12015,5335,0,2023-03-10T14:07:36.128664,6334306,1464,477,1191,-1025,-631,-279,117,131,-81
12016,5336,0,2023-03-10T14:07:36.133092,6334311,1464,477,1191,-1025,-631,-279,117,131,-81
12017,5337,0,2023-03-10T14:07:36.138152,6334316,1464,477,1191,-1025,-631,-279,117,131,-81
12018,5338,0,2023-03-10T14:07:36.142605,6334320,1464,477,1191,-1025,-631,-279,117,131,-81
12019,5339,0,2023-03-10T14:07:36.146742,6334324,1465,475,1188,-1017,-613,-280,117,131,-81
12020,5340,0,2023-03-10T14:07:36.151991,6334329,1465,475,1188,-1017,-613,-280,117,131,-81
12021,5341,0,2023-03-10T14:07:36.156846,6334334,1465,475,1188,-1017,-613,-280,117,131,-81
12022,5342,0,2023-03-10T14:07:36.161381,6334339,1465,475,1188,-1017,-613,-280,117,131,-81
12023,5343,0,2023-03-10T14:07:36.165774,6334344,1466,481,1185,-1016,-626,-271,117,131,-81
12024,5344,0,2023-03-10T14:07:36.170719,6334348,1466,481,1185,-1016,-626,-271,117,131,-81
12025,5345,0,2023-03-10T14:07:36.175606,6334353,1466,481,1185,-1016,-626,-271,117,131,-81
12026,5346,0,2023-03-10T14:07:36.179946,6334358,1466,481,1185,-1016,-626,-271,117,131,-81
12027,5347,0,2023-03-10T14:07:36.184399,6334362,1457,472,1194,-1005,-624,-236,117,131,-81
12028,5348,0,2023-03-10T14:07:36.189472,6334367,1457,472,1194,-1005,-624,-236,117,131,-81
12029,5349,0,2023-03-10T14:07:36.194093,6334371,1457,472,1194,-1005,-624,-236,117,131,-81
12030,5350,0,2023-03-10T14:07:36.198527,6334376,1457,472,1194,-1005,-624,-236,117,131,-81
12031,5351,0,2023-03-10T14:07:36.203092,6334381,1457,472,1194,-1005,-624,-236,117,131,-81
12032,5352,0,2023-03-10T14:07:36.207347,6334385,1457,476,1182,-1028,-644,-287,117,131,-81
12033,5353,0,2023-03-10T14:07:36.211869,6334390,1457,476,1182,-1028,-644,-287,117,131,-81
12034,5354,0,2023-03-10T14:07:36.216297,6334394,1457,476,1182,-1028,-644,-287,117,131,-81
12035,5355,0,2023-03-10T14:07:36.220720,6334398,1457,476,1182,-1028,-644,-287,117,131,-81
12036,5356,0,2023-03-10T14:07:36.225067,6334403,1477,476,1193,-1034,-620,-278,115,125,-75
12037,5357,0,2023-03-10T14:07:36.229868,6334407,1477,476,1193,-1034,-620,-278,115,125,-75
12038,5358,0,2023-03-10T14:07:36.234781,6334412,1477,476,1193,-1034,-620,-278,115,125,-75
12039,5359,0,2023-03-10T14:07:36.239357,6334416,1477,476,1193,-1034,-620,-278,115,125,-75
12040,5360,0,2023-03-10T14:07:36.244348,6334423,1459,478,1185,-1008,-649,-270,115,125,-75
12041,5361,0,2023-03-10T14:07:36.249469,6334427,1459,478,1185,-1008,-649,-270,115,125,-75
12042,5362,0,2023-03-10T14:07:36.254414,6334432,1459,478,1185,-1008,-649,-270,115,125,-75
12043,5363,0,2023-03-10T14:07:36.258948,6334437,1459,478,1185,-1008,-649,-270,115,125,-75
12044,5364,0,2023-03-10T14:07:36.263800,6334441,1459,478,1185,-1008,-649,-270,115,125,-75
12045,5365,0,2023-03-10T14:07:36.268633,6334446,1468,475,1186,-1026,-608,-245,115,125,-75
12046,5366,0,2023-03-10T14:07:36.273213,6334450,1468,475,1186,-1026,-608,-245,115,125,-75
12047,5367,0,2023-03-10T14:07:36.277695,6334455,1468,475,1186,-1026,-608,-245,115,125,-75
12048,5368,0,2023-03-10T14:07:36.282396,6334459,1468,475,1186,-1026,-608,-245,115,125,-75
12049,5369,0,2023-03-10T14:07:36.287276,6334465,1447,475,1200,-985,-616,-250,115,125,-75
12050,5370,0,2023-03-10T14:07:36.292181,6334470,1447,475,1200,-985,-616,-250,115,125,-75
12051,5371,0,2023-03-10T14:07:36.297652,6334475,1447,475,1200,-985,-616,-250,115,125,-75
12052,5372,0,2023-03-10T14:07:36.302370,6334480,1447,475,1200,-985,-616,-250,115,125,-75
12053,5373,0,2023-03-10T14:07:36.306706,6334484,1484,479,1191,-1038,-633,-293,115,125,-75
12054,5374,0,2023-03-10T14:07:36.311736,6334489,1484,479,1191,-1038,-633,-293,115,125,-75
12055,5375,0,2023-03-10T14:07:36.316303,6334494,1484,479,1191,-1038,-633,-293,115,125,-75
12056,5376,0,2023-03-10T14:07:36.320624,6334498,1484,479,1191,-1038,-633,-293,115,125,-75
12057,5377,0,2023-03-10T14:07:36.325004,6334502,1468,473,1183,-1014,-651,-262,115,125,-75
12058,5378,0,2023-03-10T14:07:36.329818,6334508,1468,473,1183,-1014,-651,-262,115,125,-75
12059,5379,0,2023-03-10T14:07:36.334668,6334513,1468,473,1183,-1014,-651,-262,115,125,-75
12060,5380,0,2023-03-10T14:07:36.339213,6334517,1468,473,1183,-1014,-651,-262,115,125,-75
12061,5381,0,2023-03-10T14:07:36.343570,6334521,1463,478,1175,-1022,-637,-270,115,125,-75
12062,5382,0,2023-03-10T14:07:36.348342,6334526,1463,478,1175,-1022,-637,-270,124,132,-80
12063,5383,0,2023-03-10T14:07:36.352940,6334530,1463,478,1175,-1022,-637,-270,124,132,-80
12064,5384,0,2023-03-10T14:07:36.357271,6334535,1463,478,1175,-1022,-637,-270,124,132,-80
12065,5385,0,2023-03-10T14:07:36.361645,6334539,1463,478,1175,-1022,-637,-270,124,132,-80
12066,5386,0,2023-03-10T14:07:36.366018,6334543,1472,473,1199,-1000,-617,-234,124,132,-80
12067,5387,0,2023-03-10T14:07:36.370860,6334548,1472,473,1199,-1000,-617,-234,124,132,-80
12068,5388,0,2023-03-10T14:07:36.375925,6334554,1472,473,1199,-1000,-617,-234,124,132,-80
12069,5389,0,2023-03-10T14:07:36.380586,6334558,1472,473,1199,-1000,-617,-234,124,132,-80
12070,5390,0,2023-03-10T14:07:36.385745,6334563,1455,476,1184,-1005,-641,-268,124,132,-80
12071,5391,0,2023-03-10T14:07:36.390635,6334568,1455,476,1184,-1005,-641,-268,124,132,-80
12072,5392,0,2023-03-10T14:07:36.395121,6334573,1455,476,1184,-1005,-641,-268,124,132,-80
12073,5393,0,2023-03-10T14:07:36.399604,6334577,1455,476,1184,-1005,-641,-268,124,132,-80
12074,5394,0,2023-03-10T14:07:36.404689,6334582,1482,474,1186,-1041,-633,-283,124,132,-80
12075,5395,0,2023-03-10T14:07:36.409517,6334587,1482,474,1186,-1041,-633,-283,124,132,-80
12076,5396,0,2023-03-10T14:07:36.414458,6334593,1482,474,1186,-1041,-633,-283,124,132,-80
12077,5397,0,2023-03-10T14:07:36.419282,6334597,1482,474,1186,-1041,-633,-283,124,132,-80
12078,5398,0,2023-03-10T14:07:36.423738,6334602,1452,471,1181,-1008,-647,-264,124,132,-80
12079,5399,0,2023-03-10T14:07:36.428741,6334607,1452,471,1181,-1008,-647,-264,124,132,-80
12080,5400,0,2023-03-10T14:07:36.433150,6334611,1452,471,1181,-1008,-647,-264,124,132,-80
12081,5401,0,2023-03-10T14:07:36.438105,6334616,1452,471,1181,-1008,-647,-264,124,132,-80
12082,5402,0,2023-03-10T14:07:36.442534,6334620,1452,471,1181,-1008,-647,-264,124,132,-80
12083,5403,0,2023-03-10T14:07:36.448253,6334625,1475,475,1191,-1035,-599,-275,124,132,-80
12084,5404,0,2023-03-10T14:07:36.453469,6334630,1475,475,1191,-1035,-599,-275,124,132,-80
12085,5405,0,2023-03-10T14:07:36.458624,6334637,1475,475,1191,-1035,-599,-275,124,132,-80
12086,5406,0,2023-03-10T14:07:36.462974,6334641,1475,475,1191,-1035,-599,-275,124,132,-80
12087,5407,0,2023-03-10T14:07:36.467382,6334645,1466,477,1180,-992,-636,-274,124,132,-80
12088,5408,0,2023-03-10T14:07:36.472084,6334650,1466,477,1180,-992,-636,-274,124,132,-80
12089,5409,0,2023-03-10T14:07:36.476923,6334655,1466,477,1180,-992,-636,-274,124,132,-80
12090,5410,0,2023-03-10T14:07:36.481329,6334659,1466,477,1180,-992,-636,-274,124,132,-80
12091,5411,0,2023-03-10T14:07:36.485688,6334663,1472,470,1182,-1031,-618,-272,119,129,-75
12092,5412,0,2023-03-10T14:07:36.490654,6334668,1472,470,1182,-1031,-618,-272,119,129,-75
12093,5413,0,2023-03-10T14:07:36.495160,6334672,1472,470,1182,-1031,-618,-272,119,129,-75
12094,5414,0,2023-03-10T14:07:36.500200,6334678,1472,470,1182,-1031,-618,-272,119,129,-75
12095,5415,0,2023-03-10T14:07:36.504632,6334683,1457,470,1190,-1001,-604,-258,119,129,-75
12096,5416,0,2023-03-10T14:07:36.509272,6334687,1457,470,1190,-1001,-604,-258,119,129,-75
12097,5417,0,2023-03-10T14:07:36.514790,6334692,1457,470,1190,-1001,-604,-258,119,129,-75
12098,5418,0,2023-03-10T14:07:36.519189,6334697,1457,470,1190,-1001,-604,-258,119,129,-75
12099,5419,0,2023-03-10T14:07:36.523649,6334701,1457,470,1190,-1001,-604,-258,119,129,-75
12100,5420,0,2023-03-10T14:07:36.527744,6334705,1468,471,1194,-1004,-656,-255,119,129,-75
12101,5421,0,2023-03-10T14:07:36.532804,6334710,1468,471,1194,-1004,-656,-255,119,129,-75
12102,5422,0,2023-03-10T14:07:36.538048,6334715,1468,471,1194,-1004,-656,-255,119,129,-75
12103,5423,0,2023-03-10T14:07:36.542410,6334721,1468,471,1194,-1004,-656,-255,119,129,-75
12104,5424,0,2023-03-10T14:07:36.546781,6334725,1471,479,1185,-1028,-608,-290,119,129,-75
12105,5425,0,2023-03-10T14:07:36.551676,6334730,1471,479,1185,-1028,-608,-290,119,129,-75
12106,5426,0,2023-03-10T14:07:36.556756,6334734,1471,479,1185,-1028,-608,-290,119,129,-75
12107,5427,0,2023-03-10T14:07:36.561244,6334739,1471,479,1185,-1028,-608,-290,119,129,-75
12108,5428,0,2023-03-10T14:07:36.565581,6334743,1471,479,1185,-1028,-608,-290,119,129,-75
12109,5429,0,2023-03-10T14:07:36.569815,6334747,1471,479,1185,-1028,-608,-290,119,129,-75
12110,5430,0,2023-03-10T14:07:36.574975,6334751,1471,479,1185,-1028,-608,-290,119,129,-75
12111,5431,0,2023-03-10T14:07:36.579859,6334757,1471,479,1185,-1028,-608,-290,119,129,-75
12112,5432,0,2023-03-10T14:07:36.584921,6334763,1465,471,1188,-1006,-609,-268,119,129,-75
12113,5433,0,2023-03-10T14:07:36.590146,6334768,1465,471,1188,-1006,-609,-268,119,129,-75
12114,5434,0,2023-03-10T14:07:36.595224,6334773,1465,471,1188,-1006,-609,-268,119,129,-75
12115,5435,0,2023-03-10T14:07:36.600000,6334778,1465,471,1188,-1006,-609,-268,119,129,-75
12116,5436,0,2023-03-10T14:07:36.604405,6334782,1469,470,1184,-1025,-629,-282,125,127,-75
12117,5437,0,2023-03-10T14:07:36.609192,6334787,1469,470,1184,-1025,-629,-282,125,127,-75
12118,5438,0,2023-03-10T14:07:36.614310,6334792,1469,470,1184,-1025,-629,-282,125,127,-75
12119,5439,0,2023-03-10T14:07:36.618760,6334796,1469,470,1184,-1025,-629,-282,125,127,-75
12120,5440,0,2023-03-10T14:07:36.623106,6334800,1469,470,1184,-1025,-629,-282,125,127,-75
12121,5441,0,2023-03-10T14:07:36.627488,6334806,1480,479,1196,-1008,-619,-286,125,127,-75
12122,5442,0,2023-03-10T14:07:36.632231,6334810,1480,479,1196,-1008,-619,-286,125,127,-75
12123,5443,0,2023-03-10T14:07:36.637557,6334815,1480,479,1196,-1008,-619,-286,125,127,-75
12124,5444,0,2023-03-10T14:07:36.641922,6334820,1480,479,1196,-1008,-619,-286,125,127,-75
12125,5445,0,2023-03-10T14:07:36.646215,6334824,1480,479,1196,-1008,-619,-286,125,127,-75
12126,5446,0,2023-03-10T14:07:36.650564,6334828,1480,479,1196,-1008,-619,-286,125,127,-75
12127,5447,0,2023-03-10T14:07:36.655448,6334833,1480,479,1196,-1008,-619,-286,125,127,-75
12128,5448,0,2023-03-10T14:07:36.659973,6334837,1480,479,1196,-1008,-619,-286,125,127,-75
12129,5449,0,2023-03-10T14:07:36.664483,6334842,1468,476,1186,-1007,-643,-273,125,127,-75
12130,5450,0,2023-03-10T14:07:36.669398,6334848,1468,476,1186,-1007,-643,-273,125,127,-75
12131,5451,0,2023-03-10T14:07:36.674510,6334853,1468,476,1186,-1007,-643,-273,125,127,-75
12132,5452,0,2023-03-10T14:07:36.679288,6334857,1468,476,1186,-1007,-643,-273,125,127,-75
12133,5453,0,2023-03-10T14:07:36.683994,6334861,1468,476,1186,-1007,-643,-273,125,127,-75
12134,5454,0,2023-03-10T14:07:36.688298,6334866,1478,478,1189,-1018,-619,-268,125,127,-75
12135,5455,0,2023-03-10T14:07:36.693484,6334871,1478,478,1189,-1018,-619,-268,125,127,-75
12136,5456,0,2023-03-10T14:07:36.698471,6334876,1478,478,1189,-1018,-619,-268,125,127,-75
12137,5457,0,2023-03-10T14:07:36.702775,6334880,1478,478,1189,-1018,-619,-268,125,127,-75
12138,5458,0,2023-03-10T14:07:36.707227,6334884,1467,471,1176,-1003,-645,-265,125,127,-75
12139,5459,0,2023-03-10T14:07:36.712108,6334889,1467,471,1176,-1003,-645,-265,125,127,-75
12140,5460,0,2023-03-10T14:07:36.716681,6334895,1467,471,1176,-1003,-645,-265,125,127,-75
12141,5461,0,2023-03-10T14:07:36.721078,6334899,1467,471,1176,-1003,-645,-265,125,127,-75
12142,5462,0,2023-03-10T14:07:36.726359,6334904,1479,475,1187,-1011,-605,-267,125,127,-75
12143,5463,0,2023-03-10T14:07:36.731813,6334909,1479,475,1187,-1011,-605,-267,125,127,-75
12144,5464,0,2023-03-10T14:07:36.737199,6334915,1479,475,1187,-1011,-605,-267,125,127,-75
12145,5465,0,2023-03-10T14:07:36.741813,6334919,1479,475,1187,-1011,-605,-267,125,127,-75
12146,5466,0,2023-03-10T14:07:36.746945,6334924,1456,472,1188,-985,-656,-234,120,124,-80
12147,5467,0,2023-03-10T14:07:36.751667,6334929,1456,472,1188,-985,-656,-234,120,124,-80
12148,5468,0,2023-03-10T14:07:36.756647,6334935,1456,472,1188,-985,-656,-234,120,124,-80
12149,5469,0,2023-03-10T14:07:36.761358,6334939,1456,472,1188,-985,-656,-234,120,124,-80
12150,5470,0,2023-03-10T14:07:36.765778,6334944,1479,478,1195,-1030,-609,-281,120,124,-80
12151,5471,0,2023-03-10T14:07:36.770691,6334949,1479,478,1195,-1030,-609,-281,120,124,-80
12152,5472,0,2023-03-10T14:07:36.775055,6334953,1479,478,1195,-1030,-609,-281,120,124,-80
