,Unnamed: 0,imu,server_time,arduino_time,ax,ay,az,gx,gy,gz,mx,my,mz
12621,5941,0,2023-03-10T14:07:38.983783,6337162,1493,467,1156,-1048,-632,-288,119,125,-73
12622,5942,0,2023-03-10T14:07:38.988264,6337166,1496,469,1174,-1003,-646,-277,119,125,-73
12623,5943,0,2023-03-10T14:07:38.993232,6337171,1496,469,1174,-1003,-646,-277,119,125,-73
12624,5944,0,2023-03-10T14:07:38.998218,6337176,1496,469,1174,-1003,-646,-277,119,125,-73
12625,5945,0,2023-03-10T14:07:39.002764,6337180,1496,469,1174,-1003,-646,-277,119,125,-73
12626,5946,0,2023-03-10T14:07:39.007852,6337185,1499,468,1153,-1021,-602,-283,119,125,-73
12627,5947,0,2023-03-10T14:07:39.012875,6337190,1499,468,1153,-1021,-602,-283,119,125,-73
12628,5948,0,2023-03-10T14:07:39.018009,6337196,1499,468,1153,-1021,-602,-283,119,125,-73
12629,5949,0,2023-03-10T14:07:39.022459,6337201,1499,468,1153,-1021,-602,-283,119,125,-73
12630,5950,0,2023-03-10T14:07:39.026810,6337205,1499,468,1153,-1021,-602,-283,119,125,-73
12631,5951,0,2023-03-10T14:07:39.031266,6337209,1499,477,1163,-1007,-627,-269,119,125,-73
12632,5952,0,2023-03-10T14:07:39.036569,6337215,1499,477,1163,-1007,-627,-269,119,125,-73
12633,5953,0,2023-03-10T14:07:39.041150,6337219,1499,477,1163,-1007,-627,-269,119,125,-73
12634,5954,0,2023-03-10T14:07:39.045479,6337223,1499,477,1163,-1007,-627,-269,119,125,-73
12635,5955,0,2023-03-10T14:07:39.049860,6337227,1479,464,1179,-1001,-607,-233,117,127,-75
12636,5956,0,2023-03-10T14:07:39.055144,6337232,1479,464,1179,-1001,-607,-233,117,127,-75
12637,5957,0,2023-03-10T14:07:39.059612,6337238,1479,464,1179,-1001,-607,-233,117,127,-75
12638,5958,0,2023-03-10T14:07:39.064034,6337242,1479,464,1179,-1001,-607,-233,117,127,-75
12639,5959,0,2023-03-10T14:07:39.068472,6337247,1493,470,1174,-1027,-665,-288,117,127,-75
12640,5960,0,2023-03-10T14:07:39.073797,6337252,1493,470,1174,-1027,-665,-288,117,127,-75
12641,5961,0,2023-03-10T14:07:39.078684,6337256,1493,470,1174,-1027,-665,-288,117,127,-75
12642,5962,0,2023-03-10T14:07:39.083024,6337261,1493,470,1174,-1027,-665,-288,117,127,-75
12643,5963,0,2023-03-10T14:07:39.087402,6337265,1510,469,1165,-1039,-628,-284,117,127,-75
12644,5964,0,2023-03-10T14:07:39.092640,6337270,1510,469,1165,-1039,-628,-284,117,127,-75
12645,5965,0,2023-03-10T14:07:39.097814,6337275,1510,469,1165,-1039,-628,-284,117,127,-75
12646,5966,0,2023-03-10T14:07:39.102259,6337281,1510,469,1165,-1039,-628,-284,117,127,-75
12647,5967,0,2023-03-10T14:07:39.106757,6337285,1510,469,1165,-1039,-628,-284,117,127,-75
12648,5968,0,2023-03-10T14:07:39.111284,6337289,1497,466,1158,-999,-645,-260,117,127,-75
12649,5969,0,2023-03-10T14:07:39.116591,6337295,1497,466,1158,-999,-645,-260,117,127,-75
12650,5970,0,2023-03-10T14:07:39.121065,6337299,1497,466,1158,-999,-645,-260,117,127,-75
12651,5971,0,2023-03-10T14:07:39.125498,6337303,1497,466,1158,-999,-645,-260,117,127,-75
12652,5972,0,2023-03-10T14:07:39.129949,6337308,1504,468,1159,-1022,-615,-276,117,127,-75
12653,5973,0,2023-03-10T14:07:39.134434,6337312,1504,468,1159,-1022,-615,-276,117,127,-75
12654,5974,0,2023-03-10T14:07:39.138934,6337316,1504,468,1159,-1022,-615,-276,117,127,-75
12655,5975,0,2023-03-10T14:07:39.143357,6337321,1504,468,1159,-1022,-615,-276,117,127,-75
12656,5976,0,2023-03-10T14:07:39.147704,6337326,1504,468,1159,-1022,-615,-276,117,127,-75
12657,5977,0,2023-03-10T14:07:39.152027,6337330,1504,468,1159,-1022,-615,-276,117,127,-75
12658,5978,0,2023-03-10T14:07:39.157121,6337335,1504,468,1159,-1022,-615,-276,117,127,-75
12659,5979,0,2023-03-10T14:07:39.161598,6337340,1504,468,1159,-1022,-615,-276,117,127,-75
12660,5980,0,2023-03-10T14:07:39.166337,6337344,1504,468,1159,-1022,-615,-276,117,127,-75
12661,5981,0,2023-03-10T14:07:39.170719,6337348,1512,475,1178,-1000,-633,-276,117,127,-75
12662,5982,0,2023-03-10T14:07:39.175953,6337354,1512,475,1178,-1000,-633,-276,117,127,-75
12663,5983,0,2023-03-10T14:07:39.180586,6337358,1512,475,1178,-1000,-633,-276,117,127,-75
12664,5984,0,2023-03-10T14:07:39.185162,6337363,1512,475,1178,-1000,-633,-276,117,127,-75
12665,5985,0,2023-03-10T14:07:39.189366,6337368,1494,467,1152,-1036,-633,-277,124,124,-78
12666,5986,0,2023-03-10T14:07:39.194047,6337372,1494,467,1152,-1036,-633,-277,124,124,-78
12667,5987,0,2023-03-10T14:07:39.198997,6337377,1494,467,1152,-1036,-633,-277,124,124,-78
12668,5988,0,2023-03-10T14:07:39.203558,6337381,1494,467,1152,-1036,-633,-277,124,124,-78
12669,5989,0,2023-03-10T14:07:39.207973,6337386,1491,466,1168,-1009,-606,-265,124,124,-78
12670,5990,0,2023-03-10T14:07:39.212400,6337390,1491,466,1168,-1009,-606,-265,124,124,-78
12671,5991,0,2023-03-10T14:07:39.217662,6337395,1491,466,1168,-1009,-606,-265,124,124,-78
12672,5992,0,2023-03-10T14:07:39.222291,6337400,1491,466,1168,-1009,-606,-265,124,124,-78
12673,5993,0,2023-03-10T14:07:39.227137,6337405,1491,466,1168,-1009,-606,-265,124,124,-78
12674,5994,0,2023-03-10T14:07:39.231583,6337410,1508,468,1167,-1006,-650,-262,124,124,-78
12675,5995,0,2023-03-10T14:07:39.237368,6337415,1508,468,1167,-1006,-650,-262,124,124,-78
12676,5996,0,2023-03-10T14:07:39.241971,6337420,1508,468,1167,-1006,-650,-262,124,124,-78
12677,5997,0,2023-03-10T14:07:39.246642,6337424,1508,468,1167,-1006,-650,-262,124,124,-78
12678,5998,0,2023-03-10T14:07:39.251009,6337429,1496,469,1158,-1011,-596,-261,124,124,-78
12679,5999,0,2023-03-10T14:07:39.255257,6337433,1496,469,1158,-1011,-596,-261,124,124,-78
12680,6000,0,2023-03-10T14:07:39.260344,6337438,1496,469,1158,-1011,-596,-261,124,124,-78
12681,6001,0,2023-03-10T14:07:39.264725,6337442,1496,469,1158,-1011,-596,-261,124,124,-78
12682,6002,0,2023-03-10T14:07:39.269459,6337447,1500,471,1159,-1016,-654,-278,124,124,-78
12683,6003,0,2023-03-10T14:07:39.274604,6337453,1500,471,1159,-1016,-654,-278,124,124,-78
12684,6004,0,2023-03-10T14:07:39.279429,6337458,1500,471,1159,-1016,-654,-278,124,124,-78
12685,6005,0,2023-03-10T14:07:39.284157,6337462,1500,471,1159,-1016,-654,-278,124,124,-78
12686,6006,0,2023-03-10T14:07:39.288823,6337467,1498,473,1159,-1024,-613,-260,124,124,-78
12687,6007,0,2023-03-10T14:07:39.294142,6337472,1498,473,1159,-1024,-613,-260,124,124,-78
12688,6008,0,2023-03-10T14:07:39.299249,6337477,1498,473,1159,-1024,-613,-260,124,124,-78
12689,6009,0,2023-03-10T14:07:39.303619,6337481,1498,473,1159,-1024,-613,-260,124,124,-78
12690,6010,0,2023-03-10T14:07:39.308094,6337486,1489,465,1166,-996,-633,-230,130,130,-76
12691,6011,0,2023-03-10T14:07:39.313045,6337490,1489,465,1166,-996,-633,-230,130,130,-76
12692,6012,0,2023-03-10T14:07:39.318114,6337496,1489,465,1166,-996,-633,-230,130,130,-76
12693,6013,0,2023-03-10T14:07:39.322828,6337501,1489,465,1166,-996,-633,-230,130,130,-76
12694,6014,0,2023-03-10T14:07:39.327517,6337505,1489,465,1166,-996,-633,-230,130,130,-76
12695,6015,0,2023-03-10T14:07:39.331911,6337510,1521,472,1169,-1016,-648,-291,130,130,-76
12696,6016,0,2023-03-10T14:07:39.337384,6337515,1521,472,1169,-1016,-648,-291,130,130,-76
12697,6017,0,2023-03-10T14:07:39.342381,6337520,1521,472,1169,-1016,-648,-291,130,130,-76
12698,6018,0,2023-03-10T14:07:39.347125,6337524,1521,472,1169,-1016,-648,-291,130,130,-76
12699,6019,0,2023-03-10T14:07:39.351674,6337529,1494,468,1142,-1037,-645,-264,130,130,-76
12700,6020,0,2023-03-10T14:07:39.356037,6337533,1494,468,1142,-1037,-645,-264,130,130,-76
12701,6021,0,2023-03-10T14:07:39.360814,6337539,1494,468,1142,-1037,-645,-264,130,130,-76
12702,6022,0,2023-03-10T14:07:39.365146,6337543,1494,468,1142,-1037,-645,-264,130,130,-76
12703,6023,0,2023-03-10T14:07:39.369775,6337548,1509,467,1170,-1007,-620,-271,130,130,-76
12704,6024,0,2023-03-10T14:07:39.374725,6337553,1509,467,1170,-1007,-620,-271,130,130,-76
12705,6025,0,2023-03-10T14:07:39.379680,6337557,1509,467,1170,-1007,-620,-271,130,130,-76
12706,6026,0,2023-03-10T14:07:39.384303,6337562,1509,467,1170,-1007,-620,-271,130,130,-76
12707,6027,0,2023-03-10T14:07:39.388985,6337566,1488,472,1145,-1022,-691,-268,130,130,-76
12708,6028,0,2023-03-10T14:07:39.394175,6337572,1488,472,1145,-1022,-691,-268,130,130,-76
12709,6029,0,2023-03-10T14:07:39.399173,6337576,1488,472,1145,-1022,-691,-268,130,130,-76
12710,6030,0,2023-03-10T14:07:39.403977,6337582,1488,472,1145,-1022,-691,-268,130,130,-76
12711,6031,0,2023-03-10T14:07:39.408845,6337587,1510,480,1166,-1008,-591,-262,130,130,-76
12712,6032,0,2023-03-10T14:07:39.414233,6337592,1510,480,1166,-1008,-591,-262,130,130,-76
12713,6033,0,2023-03-10T14:07:39.419236,6337597,1510,480,1166,-1008,-591,-262,130,130,-76
12714,6034,0,2023-03-10T14:07:39.424256,6337602,1510,480,1166,-1008,-591,-262,130,130,-76
12715,6035,0,2023-03-10T14:07:39.428626,6337606,1486,466,1165,-1010,-597,-254,135,123,-79
12716,6036,0,2023-03-10T14:07:39.433914,6337611,1486,466,1165,-1010,-597,-254,135,123,-79
12717,6037,0,2023-03-10T14:07:39.438350,6337616,1486,466,1165,-1010,-597,-254,135,123,-79
12718,6038,0,2023-03-10T14:07:39.442694,6337620,1486,466,1165,-1010,-597,-254,135,123,-79
12719,6039,0,2023-03-10T14:07:39.447515,6337625,1486,466,1165,-1010,-597,-254,135,123,-79
12720,6040,0,2023-03-10T14:07:39.452123,6337630,1500,467,1154,-1032,-638,-289,135,123,-79
12721,6041,0,2023-03-10T14:07:39.457389,6337635,1500,467,1154,-1032,-638,-289,135,123,-79
12722,6042,0,2023-03-10T14:07:39.461836,6337640,1500,467,1154,-1032,-638,-289,135,123,-79
12723,6043,0,2023-03-10T14:07:39.466153,6337644,1500,467,1154,-1032,-638,-289,135,123,-79
12724,6044,0,2023-03-10T14:07:39.470739,6337648,1518,468,1161,-1015,-622,-271,135,123,-79
12725,6045,0,2023-03-10T14:07:39.476366,6337654,1518,468,1161,-1015,-622,-271,135,123,-79
12726,6046,0,2023-03-10T14:07:39.481260,6337658,1518,468,1161,-1015,-622,-271,135,123,-79
12727,6047,0,2023-03-10T14:07:39.485557,6337664,1518,468,1161,-1015,-622,-271,135,123,-79
12728,6048,0,2023-03-10T14:07:39.490015,6337668,1499,465,1151,-1000,-651,-257,135,123,-79
12729,6049,0,2023-03-10T14:07:39.495255,6337673,1499,465,1151,-1000,-651,-257,135,123,-79
12730,6050,0,2023-03-10T14:07:39.500051,6337678,1499,465,1151,-1000,-651,-257,135,123,-79
12731,6051,0,2023-03-10T14:07:39.504565,6337682,1499,465,1151,-1000,-651,-257,135,123,-79
12732,6052,0,2023-03-10T14:07:39.509029,6337687,1512,478,1157,-1021,-612,-280,135,123,-79
12733,6053,0,2023-03-10T14:07:39.514243,6337692,1512,478,1157,-1021,-612,-280,135,123,-79
12734,6054,0,2023-03-10T14:07:39.519341,6337697,1512,478,1157,-1021,-612,-280,135,123,-79
12735,6055,0,2023-03-10T14:07:39.523904,6337701,1512,478,1157,-1021,-612,-280,135,123,-79
12736,6056,0,2023-03-10T14:07:39.528332,6337705,1487,470,1166,-996,-617,-234,135,123,-79
12737,6057,0,2023-03-10T14:07:39.533175,6337711,1487,470,1166,-996,-617,-234,135,123,-79
12738,6058,0,2023-03-10T14:07:39.538379,6337716,1487,470,1166,-996,-617,-234,135,123,-79
12739,6059,0,2023-03-10T14:07:39.543002,6337721,1487,470,1166,-996,-617,-234,135,123,-79
12740,6060,0,2023-03-10T14:07:39.547377,6337725,1487,470,1166,-996,-617,-234,135,123,-79
12741,6061,0,2023-03-10T14:07:39.551765,6337730,1514,478,1172,-1016,-631,-282,135,123,-79
12742,6062,0,2023-03-10T14:07:39.557123,6337734,1514,478,1172,-1016,-631,-282,135,123,-79
12743,6063,0,2023-03-10T14:07:39.561594,6337739,1514,478,1172,-1016,-631,-282,135,123,-79
12744,6064,0,2023-03-10T14:07:39.566230,6337743,1514,478,1172,-1016,-631,-282,135,123,-79
12745,6065,0,2023-03-10T14:07:39.570940,6337748,1504,469,1154,-1034,-645,-277,117,119,-71
12746,6066,0,2023-03-10T14:07:39.576519,6337755,1504,469,1154,-1034,-645,-277,117,119,-71
12747,6067,0,2023-03-10T14:07:39.581247,6337759,1504,469,1154,-1034,-645,-277,117,119,-71
12748,6068,0,2023-03-10T14:07:39.585804,6337764,1504,469,1154,-1034,-645,-277,117,119,-71
12749,6069,0,2023-03-10T14:07:39.590328,6337768,1497,460,1153,-1007,-624,-254,117,119,-71
12750,6070,0,2023-03-10T14:07:39.595946,6337774,1497,460,1153,-1007,-624,-254,117,119,-71
12751,6071,0,2023-03-10T14:07:39.600247,6337778,1497,460,1153,-1007,-624,-254,117,119,-71
12752,6072,0,2023-03-10T14:07:39.604892,6337782,1497,460,1153,-1007,-624,-254,117,119,-71
12753,6073,0,2023-03-10T14:07:39.609430,6337787,1515,470,1162,-1010,-629,-276,117,119,-71
12754,6074,0,2023-03-10T14:07:39.615138,6337793,1515,470,1162,-1010,-629,-276,117,119,-71
12755,6075,0,2023-03-10T14:07:39.620007,6337798,1515,470,1162,-1010,-629,-276,117,119,-71
12756,6076,0,2023-03-10T14:07:39.624491,6337803,1515,470,1162,-1010,-629,-276,117,119,-71
12757,6077,0,2023-03-10T14:07:39.628990,6337807,1524,481,1153,-1011,-637,-276,117,119,-71
12758,6078,0,2023-03-10T14:07:39.633890,6337812,1524,481,1153,-1011,-637,-276,117,119,-71
12759,6079,0,2023-03-10T14:07:39.638986,6337817,1524,481,1153,-1011,-637,-276,117,119,-71
12760,6080,0,2023-03-10T14:07:39.643599,6337821,1524,481,1153,-1011,-637,-276,117,119,-71
12761,6081,0,2023-03-10T14:07:39.648374,6337826,1492,466,1150,-994,-614,-228,117,119,-71
12762,6082,0,2023-03-10T14:07:39.653515,6337831,1492,466,1150,-994,-614,-228,117,119,-71
12763,6083,0,2023-03-10T14:07:39.658622,6337837,1492,466,1150,-994,-614,-228,117,119,-71
12764,6084,0,2023-03-10T14:07:39.663282,6337841,1492,466,1150,-994,-614,-228,117,119,-71
12765,6085,0,2023-03-10T14:07:39.668217,6337846,1511,474,1161,-1023,-630,-285,117,119,-71
12766,6086,0,2023-03-10T14:07:39.673230,6337851,1511,474,1161,-1023,-630,-285,117,119,-71
12767,6087,0,2023-03-10T14:07:39.678307,6337856,1511,474,1161,-1023,-630,-285,117,119,-71
12768,6088,0,2023-03-10T14:07:39.682853,6337860,1511,474,1161,-1023,-630,-285,117,119,-71
12769,6089,0,2023-03-10T14:07:39.687242,6337865,1511,474,1161,-1023,-630,-285,117,119,-71
12770,6090,0,2023-03-10T14:07:39.691656,6337869,1511,474,1161,-1023,-630,-285,121,123,-73
12771,6091,0,2023-03-10T14:07:39.696768,6337874,1511,474,1161,-1023,-630,-285,121,123,-73
12772,6092,0,2023-03-10T14:07:39.701328,6337880,1511,474,1161,-1023,-630,-285,121,123,-73
12773,6093,0,2023-03-10T14:07:39.705795,6337884,1511,474,1161,-1023,-630,-285,121,123,-73
12774,6094,0,2023-03-10T14:07:39.710155,6337888,1523,475,1163,-1008,-635,-285,121,123,-73
12775,6095,0,2023-03-10T14:07:39.715155,6337893,1523,475,1163,-1008,-635,-285,121,123,-73
12776,6096,0,2023-03-10T14:07:39.719999,6337898,1523,475,1163,-1008,-635,-285,121,123,-73
12777,6097,0,2023-03-10T14:07:39.724610,6337902,1523,475,1163,-1008,-635,-285,121,123,-73
12778,6098,0,2023-03-10T14:07:39.729066,6337907,1500,466,1148,-1008,-625,-250,121,123,-73
12779,6099,0,2023-03-10T14:07:39.734193,6337912,1500,466,1148,-1008,-625,-250,121,123,-73
12780,6100,0,2023-03-10T14:07:39.739367,6337917,1500,466,1148,-1008,-625,-250,121,123,-73
12781,6101,0,2023-03-10T14:07:39.743826,6337922,1500,466,1148,-1008,-625,-250,121,123,-73
12782,6102,0,2023-03-10T14:07:39.748532,6337926,1515,474,1156,-1009,-617,-284,121,123,-73
12783,6103,0,2023-03-10T14:07:39.753770,6337932,1515,474,1156,-1009,-617,-284,121,123,-73
12784,6104,0,2023-03-10T14:07:39.759012,6337937,1515,474,1156,-1009,-617,-284,121,123,-73
12785,6105,0,2023-03-10T14:07:39.763526,6337941,1515,474,1156,-1009,-617,-284,121,123,-73
12786,6106,0,2023-03-10T14:07:39.768118,6337946,1515,474,1156,-1009,-617,-284,121,123,-73
12787,6107,0,2023-03-10T14:07:39.772449,6337950,1497,468,1153,-1005,-647,-255,121,123,-73
12788,6108,0,2023-03-10T14:07:39.777976,6337955,1497,468,1153,-1005,-647,-255,121,123,-73
12789,6109,0,2023-03-10T14:07:39.782925,6337960,1497,468,1153,-1005,-647,-255,121,123,-73
12790,6110,0,2023-03-10T14:07:39.787415,6337966,1497,468,1153,-1005,-647,-255,121,123,-73
12791,6111,0,2023-03-10T14:07:39.792201,6337970,1517,474,1158,-1015,-620,-276,121,123,-73
12792,6112,0,2023-03-10T14:07:39.797914,6337976,1517,474,1158,-1015,-620,-276,121,123,-73
12793,6113,0,2023-03-10T14:07:39.802386,6337980,1517,474,1158,-1015,-620,-276,121,123,-73
12794,6114,0,2023-03-10T14:07:39.806849,6337985,1517,474,1158,-1015,-620,-276,121,123,-73
12795,6115,0,2023-03-10T14:07:39.811448,6337989,1504,465,1148,-1024,-619,-270,121,123,-73
12796,6116,0,2023-03-10T14:07:39.816828,6337994,1504,465,1148,-1024,-619,-270,121,123,-73
12797,6117,0,2023-03-10T14:07:39.821102,6337999,1504,465,1148,-1024,-619,-270,121,123,-73
12798,6118,0,2023-03-10T14:07:39.825766,6338003,1504,465,1148,-1024,-619,-270,121,123,-73
12799,6119,0,2023-03-10T14:07:39.830745,6338009,1498,463,1150,-1010,-647,-256,126,134,-84
12800,6120,0,2023-03-10T14:07:39.835616,6338014,1498,463,1150,-1010,-647,-256,126,134,-84
12801,6121,0,2023-03-10T14:07:39.840051,6338018,1498,463,1150,-1010,-647,-256,126,134,-84
12802,6122,0,2023-03-10T14:07:39.844609,6338022,1498,463,1150,-1010,-647,-256,126,134,-84
12803,6123,0,2023-03-10T14:07:39.849279,6338027,1498,463,1150,-1010,-647,-256,126,134,-84
12804,6124,0,2023-03-10T14:07:39.853842,6338031,1498,463,1150,-1010,-647,-256,126,134,-84
12805,6125,0,2023-03-10T14:07:39.858832,6338036,1498,463,1150,-1010,-647,-256,126,134,-84
12806,6126,0,2023-03-10T14:07:39.863396,6338041,1498,463,1150,-1010,-647,-256,126,134,-84
12807,6127,0,2023-03-10T14:07:39.867905,6338045,1498,463,1150,-1010,-647,-256,126,134,-84
12808,6128,0,2023-03-10T14:07:39.872405,6338051,1496,465,1148,-990,-692,-225,126,134,-84
12809,6129,0,2023-03-10T14:07:39.878014,6338056,1496,465,1148,-990,-692,-225,126,134,-84
12810,6130,0,2023-03-10T14:07:39.882620,6338061,1496,465,1148,-990,-692,-225,126,134,-84
12811,6131,0,2023-03-10T14:07:39.887693,6338066,1496,465,1148,-990,-692,-225,126,134,-84
12812,6132,0,2023-03-10T14:07:39.892412,6338070,1517,471,1161,-1006,-617,-277,126,134,-84
12813,6133,0,2023-03-10T14:07:39.898268,6338076,1517,471,1161,-1006,-617,-277,126,134,-84
12814,6134,0,2023-03-10T14:07:39.902652,6338080,1517,471,1161,-1006,-617,-277,126,134,-84
12815,6135,0,2023-03-10T14:07:39.907134,6338085,1517,471,1161,-1006,-617,-277,126,134,-84
12816,6136,0,2023-03-10T14:07:39.911740,6338089,1500,466,1148,-1031,-584,-273,126,134,-84
12817,6137,0,2023-03-10T14:07:39.916210,6338094,1500,466,1148,-1031,-584,-273,126,134,-84
12818,6138,0,2023-03-10T14:07:39.920884,6338099,1500,466,1148,-1031,-584,-273,126,134,-84
12819,6139,0,2023-03-10T14:07:39.925432,6338103,1500,466,1148,-1031,-584,-273,126,134,-84
12820,6140,0,2023-03-10T14:07:39.929886,6338108,1520,474,1164,-995,-634,-283,126,134,-84
12821,6141,0,2023-03-10T14:07:39.935039,6338113,1520,474,1164,-995,-634,-283,126,134,-84
12822,6142,0,2023-03-10T14:07:39.940226,6338118,1520,474,1164,-995,-634,-283,126,134,-84
12823,6143,0,2023-03-10T14:07:39.944731,6338122,1520,474,1164,-995,-634,-283,126,134,-84
12824,6144,0,2023-03-10T14:07:39.949153,6338127,1506,467,1160,-1023,-612,-263,122,124,-76
12825,6145,0,2023-03-10T14:07:39.954050,6338131,1506,467,1160,-1023,-612,-263,122,124,-76
12826,6146,0,2023-03-10T14:07:39.958479,6338137,1506,467,1160,-1023,-612,-263,122,124,-76
12827,6147,0,2023-03-10T14:07:39.962942,6338141,1506,467,1160,-1023,-612,-263,122,124,-76
12828,6148,0,2023-03-10T14:07:39.967326,6338145,1506,467,1160,-1023,-612,-263,122,124,-76
12829,6149,0,2023-03-10T14:07:39.971944,6338150,1525,474,1154,-1006,-672,-284,122,124,-76
12830,6150,0,2023-03-10T14:07:39.977672,6338155,1525,474,1154,-1006,-672,-284,122,124,-76
12831,6151,0,2023-03-10T14:07:39.982441,6338160,1525,474,1154,-1006,-672,-284,122,124,-76
12832,6152,0,2023-03-10T14:07:39.987080,6338165,1525,474,1154,-1006,-672,-284,122,124,-76
12833,6153,0,2023-03-10T14:07:39.991738,6338169,1503,473,1143,-1018,-665,-248,122,124,-76
12834,6154,0,2023-03-10T14:07:39.997654,6338176,1503,473,1143,-1018,-665,-248,122,124,-76
12835,6155,0,2023-03-10T14:07:40.002249,6338180,1503,473,1143,-1018,-665,-248,122,124,-76
12836,6156,0,2023-03-10T14:07:40.006668,6338185,1503,473,1143,-1018,-665,-248,122,124,-76
12837,6157,0,2023-03-10T14:07:40.011039,6338189,1503,466,1152,-988,-588,-239,122,124,-76
12838,6158,0,2023-03-10T14:07:40.016213,6338194,1503,466,1152,-988,-588,-239,122,124,-76
12839,6159,0,2023-03-10T14:07:40.021039,6338199,1503,466,1152,-988,-588,-239,122,124,-76
12840,6160,0,2023-03-10T14:07:40.025598,6338203,1503,466,1152,-988,-588,-239,122,124,-76
12841,6161,0,2023-03-10T14:07:40.029995,6338208,1524,477,1156,-1023,-602,-300,122,124,-76
12842,6162,0,2023-03-10T14:07:40.034860,6338212,1524,477,1156,-1023,-602,-300,122,124,-76
12843,6163,0,2023-03-10T14:07:40.040345,6338217,1524,477,1156,-1023,-602,-300,122,124,-76
12844,6164,0,2023-03-10T14:07:40.045129,6338223,1524,477,1156,-1023,-602,-300,122,124,-76
12845,6165,0,2023-03-10T14:07:40.049860,6338228,1495,458,1141,-1032,-622,-252,122,124,-76
12846,6166,0,2023-03-10T14:07:40.054656,6338233,1495,458,1141,-1032,-622,-252,122,124,-76
12847,6167,0,2023-03-10T14:07:40.059675,6338237,1495,458,1141,-1032,-622,-252,122,124,-76
12848,6168,0,2023-03-10T14:07:40.064274,6338242,1495,458,1141,-1032,-622,-252,122,124,-76
12849,6169,0,2023-03-10T14:07:40.068652,6338246,1517,477,1155,-995,-641,-285,126,120,-76
12850,6170,0,2023-03-10T14:07:40.074114,6338251,1517,477,1155,-995,-641,-285,126,120,-84
12851,6171,0,2023-03-10T14:07:40.079319,6338257,1517,477,1155,-995,-641,-285,126,120,-84
12852,6172,0,2023-03-10T14:07:40.083941,6338262,1517,477,1155,-995,-641,-285,126,120,-84
12853,6173,0,2023-03-10T14:07:40.088998,6338267,1509,461,1154,-1003,-607,-232,126,120,-84
12854,6174,0,2023-03-10T14:07:40.093957,6338272,1509,461,1154,-1003,-607,-232,126,120,-84
12855,6175,0,2023-03-10T14:07:40.099044,6338277,1509,461,1154,-1003,-607,-232,126,120,-84
12856,6176,0,2023-03-10T14:07:40.103521,6338281,1509,461,1154,-1003,-607,-232,126,120,-84
12857,6177,0,2023-03-10T14:07:40.108329,6338286,1509,461,1154,-1003,-607,-232,126,120,-84
12858,6178,0,2023-03-10T14:07:40.112977,6338291,1507,470,1153,-983,-638,-264,126,120,-84
12859,6179,0,2023-03-10T14:07:40.118357,6338296,1507,470,1153,-983,-638,-264,126,120,-84
12860,6180,0,2023-03-10T14:07:40.122848,6338300,1507,470,1153,-983,-638,-264,126,120,-84
12861,6181,0,2023-03-10T14:07:40.128456,6338306,1507,470,1153,-983,-638,-264,126,120,-84
12862,6182,0,2023-03-10T14:07:40.133361,6338312,1507,464,1153,-1036,-613,-282,126,120,-84
12863,6183,0,2023-03-10T14:07:40.138263,6338316,1507,464,1153,-1036,-613,-282,126,120,-84
12864,6184,0,2023-03-10T14:07:40.142924,6338321,1507,464,1153,-1036,-613,-282,126,120,-84
12865,6185,0,2023-03-10T14:07:40.148977,6338327,1511,470,1142,-1005,-659,-278,126,120,-84
12866,6186,0,2023-03-10T14:07:40.154343,6338332,1511,470,1142,-1005,-659,-278,126,120,-84
12867,6187,0,2023-03-10T14:07:40.160699,6338337,1511,470,1142,-1005,-659,-278,126,120,-84
12868,6188,0,2023-03-10T14:07:40.165617,6338343,1511,470,1142,-1005,-659,-278,126,120,-84
12869,6189,0,2023-03-10T14:07:40.171381,6338349,1517,477,1159,-1022,-603,-270,126,120,-84
12870,6190,0,2023-03-10T14:07:40.176195,6338354,1517,477,1159,-1022,-603,-270,126,120,-84
12871,6191,0,2023-03-10T14:07:40.180990,6338359,1517,477,1159,-1022,-603,-270,126,120,-84
12872,6192,0,2023-03-10T14:07:40.185321,6338363,1517,477,1159,-1022,-603,-270,126,120,-84
12873,6193,0,2023-03-10T14:07:40.190618,6338368,1509,471,1148,-1006,-644,-273,126,120,-84
12874,6194,0,2023-03-10T14:07:40.196470,6338374,1509,471,1148,-1006,-644,-273,126,120,-84
12875,6195,0,2023-03-10T14:07:40.201149,6338379,1509,471,1148,-1006,-644,-273,126,120,-84
12876,6196,0,2023-03-10T14:07:40.206326,6338383,1509,471,1148,-1006,-644,-273,126,120,-84
12877,6197,0,2023-03-10T14:07:40.211101,6338388,1511,471,1160,-1022,-606,-276,124,124,-84
12878,6198,0,2023-03-10T14:07:40.216574,6338395,1511,471,1160,-1022,-606,-276,124,124,-84
12879,6199,0,2023-03-10T14:07:40.221559,6338399,1511,471,1160,-1022,-606,-276,124,124,-84
12880,6200,0,2023-03-10T14:07:40.226455,6338404,1511,471,1160,-1022,-606,-276,124,124,-84
12881,6201,0,2023-03-10T14:07:40.232118,6338410,1505,468,1150,-1014,-612,-264,124,124,-84
12882,6202,0,2023-03-10T14:07:40.237741,6338415,1505,468,1150,-1014,-612,-264,124,124,-84
12883,6203,0,2023-03-10T14:07:40.242506,6338420,1505,468,1150,-1014,-612,-264,124,124,-84
12884,6204,0,2023-03-10T14:07:40.247031,6338425,1505,468,1150,-1014,-612,-264,124,124,-84
12885,6205,0,2023-03-10T14:07:40.251550,6338429,1528,478,1159,-1007,-650,-278,124,124,-84
12886,6206,0,2023-03-10T14:07:40.257059,6338435,1528,478,1159,-1007,-650,-278,124,124,-84
12887,6207,0,2023-03-10T14:07:40.261567,6338440,1528,478,1159,-1007,-650,-278,124,124,-84
12888,6208,0,2023-03-10T14:07:40.266352,6338444,1528,478,1159,-1007,-650,-278,124,124,-84
12889,6209,0,2023-03-10T14:07:40.270878,6338449,1502,461,1135,-1027,-644,-245,124,124,-84
12890,6210,0,2023-03-10T14:07:40.276759,6338454,1502,461,1135,-1027,-644,-245,124,124,-84
12891,6211,0,2023-03-10T14:07:40.281488,6338459,1502,461,1135,-1027,-644,-245,124,124,-84
12892,6212,0,2023-03-10T14:07:40.286429,6338464,1502,461,1135,-1027,-644,-245,124,124,-84
12893,6213,0,2023-03-10T14:07:40.291055,6338469,1524,475,1156,-998,-619,-286,124,124,-84
12894,6214,0,2023-03-10T14:07:40.296535,6338475,1524,475,1156,-998,-619,-286,124,124,-84
12895,6215,0,2023-03-10T14:07:40.301147,6338479,1524,475,1156,-998,-619,-286,124,124,-84
12896,6216,0,2023-03-10T14:07:40.305745,6338484,1524,475,1156,-998,-619,-286,124,124,-84
12897,6217,0,2023-03-10T14:07:40.310461,6338488,1494,462,1137,-1018,-689,-238,124,124,-84
12898,6218,0,2023-03-10T14:07:40.315426,6338493,1494,462,1137,-1018,-689,-238,124,124,-84
12899,6219,0,2023-03-10T14:07:40.320822,6338498,1494,462,1137,-1018,-689,-238,124,124,-84
12900,6220,0,2023-03-10T14:07:40.325447,6338503,1494,462,1137,-1018,-689,-238,124,124,-84
12901,6221,0,2023-03-10T14:07:40.330157,6338507,1521,474,1158,-1010,-584,-281,123,133,-81
12902,6222,0,2023-03-10T14:07:40.335305,6338513,1521,474,1158,-1010,-584,-281,123,133,-81
12903,6223,0,2023-03-10T14:07:40.339920,6338518,1521,474,1158,-1010,-584,-281,123,133,-81
12904,6224,0,2023-03-10T14:07:40.344538,6338523,1521,474,1158,-1010,-584,-281,123,133,-81
12905,6225,0,2023-03-10T14:07:40.349075,6338527,1515,471,1155,-1014,-587,-251,123,133,-81
12906,6226,0,2023-03-10T14:07:40.354111,6338532,1515,471,1155,-1014,-587,-251,123,133,-81
12907,6227,0,2023-03-10T14:07:40.359352,6338537,1515,471,1155,-1014,-587,-251,123,133,-81
12908,6228,0,2023-03-10T14:07:40.364080,6338542,1515,471,1155,-1014,-587,-251,123,133,-81
12909,6229,0,2023-03-10T14:07:40.368899,6338546,1515,471,1155,-1014,-587,-251,123,133,-81
12910,6230,0,2023-03-10T14:07:40.373683,6338551,1494,463,1155,-996,-607,-224,123,133,-81
12911,6231,0,2023-03-10T14:07:40.379577,6338557,1494,463,1155,-996,-607,-224,123,133,-81
12912,6232,0,2023-03-10T14:07:40.384323,6338562,1494,463,1155,-996,-607,-224,123,133,-81
12913,6233,0,2023-03-10T14:07:40.388889,6338567,1494,463,1155,-996,-607,-224,123,133,-81
12914,6234,0,2023-03-10T14:07:40.393315,6338571,1523,471,1158,-1015,-664,-288,123,133,-81
12915,6235,0,2023-03-10T14:07:40.399057,6338577,1523,471,1158,-1015,-664,-288,123,133,-81
12916,6236,0,2023-03-10T14:07:40.403765,6338581,1523,471,1158,-1015,-664,-288,123,133,-81
12917,6237,0,2023-03-10T14:07:40.408547,6338586,1523,471,1158,-1015,-664,-288,123,133,-81
12918,6238,0,2023-03-10T14:07:40.413263,6338591,1514,470,1143,-1011,-618,-268,123,133,-81
12919,6239,0,2023-03-10T14:07:40.418935,6338596,1514,470,1143,-1011,-618,-268,123,133,-81
12920,6240,0,2023-03-10T14:07:40.423518,6338601,1514,470,1143,-1011,-618,-268,123,133,-81
12921,6241,0,2023-03-10T14:07:40.428221,6338606,1514,470,1143,-1011,-618,-268,123,133,-81
12922,6242,0,2023-03-10T14:07:40.432954,6338611,1521,467,1150,-996,-635,-262,123,133,-81
12923,6243,0,2023-03-10T14:07:40.438693,6338617,1521,467,1150,-996,-635,-262,123,133,-81
12924,6244,0,2023-03-10T14:07:40.443155,6338621,1521,467,1150,-996,-635,-262,123,133,-81
12925,6245,0,2023-03-10T14:07:40.448008,6338626,1521,467,1150,-996,-635,-262,123,133,-81
12926,6246,0,2023-03-10T14:07:40.452857,6338630,1521,467,1150,-996,-635,-262,123,133,-81
12927,6247,0,2023-03-10T14:07:40.458356,6338636,1521,467,1150,-996,-635,-262,123,133,-81
12928,6248,0,2023-03-10T14:07:40.463058,6338640,1521,467,1150,-996,-635,-262,123,133,-81
12929,6249,0,2023-03-10T14:07:40.467446,6338646,1521,467,1150,-996,-635,-262,123,133,-81
12930,6250,0,2023-03-10T14:07:40.471966,6338650,1514,472,1153,-1004,-627,-244,115,117,-79
12931,6251,0,2023-03-10T14:07:40.477517,6338655,1514,472,1153,-1004,-627,-244,115,117,-79
12932,6252,0,2023-03-10T14:07:40.482281,6338660,1514,472,1153,-1004,-627,-244,115,117,-79
12933,6253,0,2023-03-10T14:07:40.486657,6338665,1514,472,1153,-1004,-627,-244,115,117,-79
12934,6254,0,2023-03-10T14:07:40.491519,6338669,1511,470,1165,-997,-621,-253,115,117,-79
12935,6255,0,2023-03-10T14:07:40.496461,6338674,1511,470,1165,-997,-621,-253,115,117,-79
12936,6256,0,2023-03-10T14:07:40.501115,6338679,1511,470,1165,-997,-621,-253,115,117,-79
12937,6257,0,2023-03-10T14:07:40.505541,6338683,1511,470,1165,-997,-621,-253,115,117,-79
12938,6258,0,2023-03-10T14:07:40.510063,6338688,1502,458,1144,-1038,-620,-273,115,117,-79
12939,6259,0,2023-03-10T14:07:40.515048,6338693,1502,458,1144,-1038,-620,-273,115,117,-79
12940,6260,0,2023-03-10T14:07:40.519442,6338698,1502,458,1144,-1038,-620,-273,115,117,-79
12941,6261,0,2023-03-10T14:07:40.523761,6338702,1502,458,1144,-1038,-620,-273,115,117,-79
12942,6262,0,2023-03-10T14:07:40.528768,6338707,1502,458,1144,-1038,-620,-273,115,117,-79
12943,6263,0,2023-03-10T14:07:40.533312,6338711,1525,475,1141,-1006,-664,-273,115,117,-79
12944,6264,0,2023-03-10T14:07:40.538303,6338716,1525,475,1141,-1006,-664,-273,115,117,-79
12945,6265,0,2023-03-10T14:07:40.542885,6338720,1525,475,1141,-1006,-664,-273,115,117,-79
12946,6266,0,2023-03-10T14:07:40.547142,6338725,1525,475,1141,-1006,-664,-273,115,117,-79
12947,6267,0,2023-03-10T14:07:40.551865,6338729,1512,465,1141,-1014,-603,-251,115,117,-79
12948,6268,0,2023-03-10T14:07:40.556921,6338735,1512,465,1141,-1014,-603,-251,115,117,-79
12949,6269,0,2023-03-10T14:07:40.561366,6338739,1512,465,1141,-1014,-603,-251,115,117,-79
12950,6270,0,2023-03-10T14:07:40.565793,6338744,1512,465,1141,-1014,-603,-251,115,117,-79
12951,6271,0,2023-03-10T14:07:40.570692,6338749,1527,480,1147,-1006,-641,-280,115,117,-79
12952,6272,0,2023-03-10T14:07:40.574866,6338753,1527,480,1147,-1006,-641,-280,115,117,-79
12953,6273,0,2023-03-10T14:07:40.579287,6338757,1527,480,1147,-1006,-641,-280,115,117,-79
12954,6274,0,2023-03-10T14:07:40.583768,6338761,1527,480,1147,-1006,-641,-280,115,117,-79
12955,6275,0,2023-03-10T14:07:40.588107,6338766,1527,480,1147,-1006,-641,-280,115,117,-79
12956,6276,0,2023-03-10T14:07:40.592587,6338770,1502,462,1159,-983,-616,-218,117,121,-71
12957,6277,0,2023-03-10T14:07:40.597807,6338776,1502,462,1159,-983,-616,-218,117,121,-71
12958,6278,0,2023-03-10T14:07:40.602300,6338781,1502,462,1159,-983,-616,-218,117,121,-71
12959,6279,0,2023-03-10T14:07:40.606940,6338785,1502,462,1159,-983,-616,-218,117,121,-71
12960,6280,0,2023-03-10T14:07:40.611976,6338790,1514,470,1156,-1011,-607,-273,117,121,-71
12961,6281,0,2023-03-10T14:07:40.617202,6338795,1514,470,1156,-1011,-607,-273,117,121,-71
12962,6282,0,2023-03-10T14:07:40.621816,6338799,1514,470,1156,-1011,-607,-273,117,121,-71
12963,6283,0,2023-03-10T14:07:40.626323,6338804,1514,470,1156,-1011,-607,-273,117,121,-71
12964,6284,0,2023-03-10T14:07:40.630754,6338808,1532,471,1145,-1040,-659,-286,117,121,-71
12965,6285,0,2023-03-10T14:07:40.636074,6338813,1532,471,1145,-1040,-659,-286,117,121,-71
12966,6286,0,2023-03-10T14:07:40.640698,6338819,1532,471,1145,-1040,-659,-286,117,121,-71
12967,6287,0,2023-03-10T14:07:40.645109,6338823,1532,471,1145,-1040,-659,-286,117,121,-71
12968,6288,0,2023-03-10T14:07:40.649715,6338828,1515,460,1139,-1013,-636,-256,117,121,-71
12969,6289,0,2023-03-10T14:07:40.654797,6338833,1515,460,1139,-1013,-636,-256,117,121,-71
12970,6290,0,2023-03-10T14:07:40.659851,6338838,1515,460,1139,-1013,-636,-256,117,121,-71
12971,6291,0,2023-03-10T14:07:40.664132,6338842,1515,460,1139,-1013,-636,-256,117,121,-71
12972,6292,0,2023-03-10T14:07:40.668488,6338846,1515,460,1139,-1013,-636,-256,117,121,-71
12973,6293,0,2023-03-10T14:07:40.674187,6338851,1511,463,1144,-1023,-600,-282,117,121,-71
12974,6294,0,2023-03-10T14:07:40.679188,6338856,1511,463,1144,-1023,-600,-282,117,121,-71
12975,6295,0,2023-03-10T14:07:40.683535,6338862,1511,463,1144,-1023,-600,-282,117,121,-71
12976,6296,0,2023-03-10T14:07:40.688074,6338866,1511,463,1144,-1023,-600,-282,117,121,-71
12977,6297,0,2023-03-10T14:07:40.692339,6338871,1529,474,1152,-1004,-653,-264,117,121,-71
12978,6298,0,2023-03-10T14:07:40.697328,6338875,1529,474,1152,-1004,-653,-264,117,121,-71
12979,6299,0,2023-03-10T14:07:40.701999,6338880,1529,474,1152,-1004,-653,-264,117,121,-71
12980,6300,0,2023-03-10T14:07:40.706411,6338884,1529,474,1152,-1004,-653,-264,117,121,-71
12981,6301,0,2023-03-10T14:07:40.710901,6338888,1504,472,1159,-977,-604,-233,117,121,-71
12982,6302,0,2023-03-10T14:07:40.716265,6338894,1504,472,1159,-977,-604,-233,117,121,-71
12983,6303,0,2023-03-10T14:07:40.720556,6338898,1504,472,1159,-977,-604,-233,117,121,-71
12984,6304,0,2023-03-10T14:07:40.725006,6338903,1504,472,1159,-977,-604,-233,117,121,-71
12985,6305,0,2023-03-10T14:07:40.729464,6338908,1521,471,1151,-1018,-644,-291,117,121,-71
12986,6306,0,2023-03-10T14:07:40.734400,6338913,1521,471,1151,-1018,-644,-291,124,124,-72
12987,6307,0,2023-03-10T14:07:40.739398,6338917,1521,471,1151,-1018,-644,-291,124,124,-72
12988,6308,0,2023-03-10T14:07:40.743886,6338922,1521,471,1151,-1018,-644,-291,124,124,-72
12989,6309,0,2023-03-10T14:07:40.748177,6338926,1521,471,1151,-1018,-644,-291,124,124,-72
12990,6310,0,2023-03-10T14:07:40.753004,6338930,1511,464,1144,-1028,-632,-270,124,124,-72
12991,6311,0,2023-03-10T14:07:40.758284,6338936,1511,464,1144,-1028,-632,-270,124,124,-72
12992,6312,0,2023-03-10T14:07:40.762906,6338940,1511,464,1144,-1028,-632,-270,124,124,-72
12993,6313,0,2023-03-10T14:07:40.767183,6338946,1511,464,1144,-1028,-632,-270,124,124,-72
12994,6314,0,2023-03-10T14:07:40.771541,6338950,1518,460,1144,-1004,-623,-258,124,124,-72
12995,6315,0,2023-03-10T14:07:40.777039,6338955,1518,460,1144,-1004,-623,-258,124,124,-72
12996,6316,0,2023-03-10T14:07:40.781337,6338959,1518,460,1144,-1004,-623,-258,124,124,-72
12997,6317,0,2023-03-10T14:07:40.785858,6338964,1518,460,1144,-1004,-623,-258,124,124,-72
12998,6318,0,2023-03-10T14:07:40.790885,6338969,1543,481,1145,-1006,-622,-297,124,124,-72
12999,6319,0,2023-03-10T14:07:40.795996,6338974,1543,481,1145,-1006,-622,-297,124,124,-72
13000,6320,0,2023-03-10T14:07:40.800290,6338978,1543,481,1145,-1006,-622,-297,124,124,-72
13001,6321,0,2023-03-10T14:07:40.805018,6338982,1543,481,1145,-1006,-622,-297,124,124,-72
13002,6322,0,2023-03-10T14:07:40.809689,6338988,1543,481,1145,-1006,-622,-297,124,124,-72
13003,6323,0,2023-03-10T14:07:40.814043,6338992,1500,459,1140,-998,-612,-218,124,124,-72
13004,6324,0,2023-03-10T14:07:40.819395,6338997,1500,459,1140,-998,-612,-218,124,124,-72
13005,6325,0,2023-03-10T14:07:40.823806,6339002,1500,459,1140,-998,-612,-218,124,124,-72
13006,6326,0,2023-03-10T14:07:40.828284,6339006,1500,459,1140,-998,-612,-218,124,124,-72
13007,6327,0,2023-03-10T14:07:40.832928,6339011,1527,471,1159,-992,-602,-275,124,124,-72
13008,6328,0,2023-03-10T14:07:40.838343,6339016,1527,471,1159,-992,-602,-275,124,124,-72
13009,6329,0,2023-03-10T14:07:40.842741,6339020,1527,471,1159,-992,-602,-275,124,124,-72
13010,6330,0,2023-03-10T14:07:40.847152,6339025,1527,471,1159,-992,-602,-275,124,124,-72
13011,6331,0,2023-03-10T14:07:40.851641,6339030,1511,467,1139,-1036,-660,-274,129,119,-79
13012,6332,0,2023-03-10T14:07:40.856888,6339035,1511,467,1139,-1036,-660,-274,129,119,-79
13013,6333,0,2023-03-10T14:07:40.861439,6339040,1511,467,1139,-1036,-660,-274,129,119,-79
13014,6334,0,2023-03-10T14:07:40.865844,6339044,1511,467,1139,-1036,-660,-274,129,119,-79
13015,6335,0,2023-03-10T14:07:40.870131,6339048,1530,471,1148,-1015,-610,-272,129,119,-79
13016,6336,0,2023-03-10T14:07:40.874339,6339052,1530,471,1148,-1015,-610,-272,129,119,-79
13017,6337,0,2023-03-10T14:07:40.879581,6339057,1530,471,1148,-1015,-610,-272,129,119,-79
13018,6338,0,2023-03-10T14:07:40.884006,6339062,1530,471,1148,-1015,-610,-272,129,119,-79
13019,6339,0,2023-03-10T14:07:40.888362,6339066,1530,471,1148,-1015,-610,-272,129,119,-79
13020,6340,0,2023-03-10T14:07:40.893137,6339070,1514,464,1147,-1005,-621,-264,129,119,-79
13021,6341,0,2023-03-10T14:07:40.898478,6339077,1514,464,1147,-1005,-621,-264,129,119,-79
13022,6342,0,2023-03-10T14:07:40.902974,6339081,1514,464,1147,-1005,-621,-264,129,119,-79
13023,6343,0,2023-03-10T14:07:40.907414,6339086,1514,464,1147,-1005,-621,-264,129,119,-79
13024,6344,0,2023-03-10T14:07:40.912018,6339090,1514,469,1133,-1020,-630,-273,129,119,-79
13025,6345,0,2023-03-10T14:07:40.917221,6339095,1514,469,1133,-1020,-630,-273,129,119,-79
13026,6346,0,2023-03-10T14:07:40.921591,6339099,1514,469,1133,-1020,-630,-273,129,119,-79
13027,6347,0,2023-03-10T14:07:40.926090,6339104,1514,469,1133,-1020,-630,-273,129,119,-79
13028,6348,0,2023-03-10T14:07:40.930528,6339108,1512,467,1160,-981,-603,-239,129,119,-79
13029,6349,0,2023-03-10T14:07:40.935655,6339113,1512,467,1160,-981,-603,-239,129,119,-79
13030,6350,0,2023-03-10T14:07:40.940500,6339119,1512,467,1160,-981,-603,-239,129,119,-79
13031,6351,0,2023-03-10T14:07:40.945156,6339123,1512,467,1160,-981,-603,-239,129,119,-79
13032,6352,0,2023-03-10T14:07:40.950000,6339128,1522,472,1153,-1013,-646,-272,129,119,-79
13033,6353,0,2023-03-10T14:07:40.955393,6339133,1522,472,1153,-1013,-646,-272,129,119,-79
13034,6354,0,2023-03-10T14:07:40.960301,6339138,1522,472,1153,-1013,-646,-272,129,119,-79
13035,6355,0,2023-03-10T14:07:40.964898,6339143,1522,472,1153,-1013,-646,-272,129,119,-79
13036,6356,0,2023-03-10T14:07:40.969325,6339147,1522,472,1153,-1013,-646,-272,129,119,-79
13037,6357,0,2023-03-10T14:07:40.973574,6339151,1524,463,1139,-1038,-631,-276,118,122,-76
13038,6358,0,2023-03-10T14:07:40.978281,6339155,1524,463,1139,-1038,-631,-276,118,122,-76
13039,6359,0,2023-03-10T14:07:40.982701,6339161,1524,463,1139,-1038,-631,-276,118,122,-76
13040,6360,0,2023-03-10T14:07:40.987286,6339165,1524,463,1139,-1038,-631,-276,118,122,-76
13041,6361,0,2023-03-10T14:07:40.991558,6339170,1513,465,1152,-1004,-633,-256,118,122,-76
13042,6362,0,2023-03-10T14:07:40.997131,6339175,1513,465,1152,-1004,-633,-256,118,122,-76
13043,6363,0,2023-03-10T14:07:41.001430,6339179,1513,465,1152,-1004,-633,-256,118,122,-76
13044,6364,0,2023-03-10T14:07:41.005830,6339184,1513,465,1152,-1004,-633,-256,118,122,-76
13045,6365,0,2023-03-10T14:07:41.010289,6339188,1533,472,1149,-1021,-622,-285,118,122,-76
13046,6366,0,2023-03-10T14:07:41.015265,6339193,1533,472,1149,-1021,-622,-285,118,122,-76
13047,6367,0,2023-03-10T14:07:41.020457,6339198,1533,472,1149,-1021,-622,-285,118,122,-76
13048,6368,0,2023-03-10T14:07:41.025103,6339203,1533,472,1149,-1021,-622,-285,118,122,-76
13049,6369,0,2023-03-10T14:07:41.029390,6339208,1533,472,1149,-1021,-622,-285,118,122,-76
13050,6370,0,2023-03-10T14:07:41.034035,6339212,1522,469,1137,-1007,-622,-257,118,122,-76
13051,6371,0,2023-03-10T14:07:41.039529,6339217,1522,469,1137,-1007,-622,-257,118,122,-76
13052,6372,0,2023-03-10T14:07:41.044010,6339222,1522,469,1137,-1007,-622,-257,118,122,-76
13053,6373,0,2023-03-10T14:07:41.048861,6339227,1522,469,1137,-1007,-622,-257,118,122,-76
13054,6374,0,2023-03-10T14:07:41.053500,6339231,1505,466,1141,-975,-646,-227,118,122,-76
13055,6375,0,2023-03-10T14:07:41.058517,6339236,1505,466,1141,-975,-646,-227,118,122,-76
13056,6376,0,2023-03-10T14:07:41.063040,6339241,1505,466,1141,-975,-646,-227,118,122,-76
13057,6377,0,2023-03-10T14:07:41.067421,6339246,1505,466,1141,-975,-646,-227,118,122,-76
13058,6378,0,2023-03-10T14:07:41.072598,6339251,1537,471,1150,-1031,-612,-288,118,122,-76
13059,6379,0,2023-03-10T14:07:41.077974,6339256,1537,471,1150,-1031,-612,-288,118,122,-76
13060,6380,0,2023-03-10T14:07:41.082354,6339260,1537,471,1150,-1031,-612,-288,118,122,-76
13061,6381,0,2023-03-10T14:07:41.086835,6339265,1537,471,1150,-1031,-612,-288,118,122,-76
13062,6382,0,2023-03-10T14:07:41.091336,6339269,1529,468,1133,-1019,-659,-279,118,122,-76
13063,6383,0,2023-03-10T14:07:41.096579,6339274,1529,468,1133,-1019,-659,-279,118,122,-76
13064,6384,0,2023-03-10T14:07:41.101311,6339278,1529,468,1133,-1019,-659,-279,118,122,-76
13065,6385,0,2023-03-10T14:07:41.105868,6339283,1529,468,1133,-1019,-659,-279,118,122,-76
13066,6386,0,2023-03-10T14:07:41.110538,6339289,1530,463,1144,-1009,-630,-261,121,123,-81
13067,6387,0,2023-03-10T14:07:41.115422,6339294,1530,463,1144,-1009,-630,-261,121,123,-81
13068,6388,0,2023-03-10T14:07:41.120525,6339299,1530,463,1144,-1009,-630,-261,121,123,-81
13069,6389,0,2023-03-10T14:07:41.125172,6339303,1530,463,1144,-1009,-630,-261,121,123,-81
13070,6390,0,2023-03-10T14:07:41.129569,6339307,1530,463,1144,-1009,-630,-261,121,123,-81
13071,6391,0,2023-03-10T14:07:41.134163,6339312,1521,471,1143,-1019,-597,-280,121,123,-81
13072,6392,0,2023-03-10T14:07:41.139595,6339317,1521,471,1143,-1019,-597,-280,121,123,-81
13073,6393,0,2023-03-10T14:07:41.144118,6339322,1521,471,1143,-1019,-597,-280,121,123,-81
13074,6394,0,2023-03-10T14:07:41.148750,6339326,1521,471,1143,-1019,-597,-280,121,123,-81
13075,6395,0,2023-03-10T14:07:41.153288,6339332,1527,467,1149,-989,-651,-239,121,123,-81
13076,6396,0,2023-03-10T14:07:41.158547,6339337,1527,467,1149,-989,-651,-239,121,123,-81
13077,6397,0,2023-03-10T14:07:41.162868,6339341,1527,467,1149,-989,-651,-239,121,123,-81
13078,6398,0,2023-03-10T14:07:41.167165,6339345,1527,467,1149,-989,-651,-239,121,123,-81
13079,6399,0,2023-03-10T14:07:41.171726,6339349,1510,468,1151,-1002,-607,-250,121,123,-81
13080,6400,0,2023-03-10T14:07:41.177369,6339355,1510,468,1151,-1002,-607,-250,121,123,-81
13081,6401,0,2023-03-10T14:07:41.181875,6339360,1510,468,1151,-1002,-607,-250,121,123,-81
13082,6402,0,2023-03-10T14:07:41.186241,6339364,1510,468,1151,-1002,-607,-250,121,123,-81
13083,6403,0,2023-03-10T14:07:41.191419,6339369,1530,467,1135,-1038,-642,-293,121,123,-81
13084,6404,0,2023-03-10T14:07:41.196088,6339374,1530,467,1135,-1038,-642,-293,121,123,-81
13085,6405,0,2023-03-10T14:07:41.200417,6339379,1530,467,1135,-1038,-642,-293,121,123,-81
13086,6406,0,2023-03-10T14:07:41.204908,6339383,1530,467,1135,-1038,-642,-293,121,123,-81
13087,6407,0,2023-03-10T14:07:41.209304,6339387,1530,467,1135,-1038,-642,-293,121,123,-81
13088,6408,0,2023-03-10T14:07:41.213889,6339392,1522,465,1143,-1016,-619,-252,121,123,-81
13089,6409,0,2023-03-10T14:07:41.219500,6339397,1522,465,1143,-1016,-619,-252,121,123,-81
13090,6410,0,2023-03-10T14:07:41.224002,6339401,1522,465,1143,-1016,-619,-252,121,123,-81
13091,6411,0,2023-03-10T14:07:41.228618,6339406,1522,465,1143,-1016,-619,-252,121,123,-81
13092,6412,0,2023-03-10T14:07:41.233402,6339411,1521,467,1141,-991,-633,-256,125,123,-81
13093,6413,0,2023-03-10T14:07:41.238859,6339417,1521,467,1141,-991,-633,-256,125,123,-81
13094,6414,0,2023-03-10T14:07:41.243453,6339422,1521,467,1141,-991,-633,-256,125,123,-81
13095,6415,0,2023-03-10T14:07:41.247714,6339426,1521,467,1141,-991,-633,-256,125,123,-81
13096,6416,0,2023-03-10T14:07:41.252112,6339430,1538,480,1145,-1017,-612,-291,125,123,-81
13097,6417,0,2023-03-10T14:07:41.256378,6339434,1538,480,1145,-1017,-612,-291,125,123,-81
13098,6418,0,2023-03-10T14:07:41.260857,6339439,1538,480,1145,-1017,-612,-291,125,123,-81
13099,6419,0,2023-03-10T14:07:41.265117,6339443,1538,480,1145,-1017,-612,-291,125,123,-81
13100,6420,0,2023-03-10T14:07:41.269513,6339447,1538,480,1145,-1017,-612,-291,125,123,-81
13101,6421,0,2023-03-10T14:07:41.274058,6339452,1522,465,1138,-1018,-650,-253,125,123,-81
13102,6422,0,2023-03-10T14:07:41.278476,6339457,1522,465,1138,-1018,-650,-253,125,123,-81
13103,6423,0,2023-03-10T14:07:41.282861,6339461,1522,465,1138,-1018,-650,-253,125,123,-81
13104,6424,0,2023-03-10T14:07:41.287299,6339465,1522,465,1138,-1018,-650,-253,125,123,-81
13105,6425,0,2023-03-10T14:07:41.291900,6339470,1514,466,1143,-1024,-620,-265,125,123,-81
13106,6426,0,2023-03-10T14:07:41.297834,6339476,1514,466,1143,-1024,-620,-265,125,123,-81
13107,6427,0,2023-03-10T14:07:41.302347,6339480,1514,466,1143,-1024,-620,-265,125,123,-81
13108,6428,0,2023-03-10T14:07:41.307074,6339485,1514,466,1143,-1024,-620,-265,125,123,-81
13109,6429,0,2023-03-10T14:07:41.311619,6339489,1533,468,1143,-1019,-624,-257,125,123,-81
13110,6430,0,2023-03-10T14:07:41.317135,6339495,1533,468,1143,-1019,-624,-257,125,123,-81
13111,6431,0,2023-03-10T14:07:41.321738,6339500,1533,468,1143,-1019,-624,-257,125,123,-81
13112,6432,0,2023-03-10T14:07:41.326176,6339505,1533,468,1143,-1019,-624,-257,125,123,-81
13113,6433,0,2023-03-10T14:07:41.330685,6339509,1535,471,1144,-980,-640,-252,125,123,-81
13114,6434,0,2023-03-10T14:07:41.335500,6339514,1535,471,1144,-980,-640,-252,125,123,-81
13115,6435,0,2023-03-10T14:07:41.340013,6339518,1535,471,1144,-980,-640,-252,125,123,-81
13116,6436,0,2023-03-10T14:07:41.344468,6339522,1535,471,1144,-980,-640,-252,125,123,-81
13117,6437,0,2023-03-10T14:07:41.349159,6339527,1535,471,1144,-980,-640,-252,125,123,-81
13118,6438,0,2023-03-10T14:07:41.353488,6339531,1535,471,1144,-980,-640,-252,125,123,-81
13119,6439,0,2023-03-10T14:07:41.358587,6339536,1535,471,1144,-980,-640,-252,125,123,-81
13120,6440,0,2023-03-10T14:07:41.362854,6339540,1535,471,1144,-980,-640,-252,125,123,-81
13121,6441,0,2023-03-10T14:07:41.367350,6339546,1535,471,1144,-980,-640,-252,125,123,-81
13122,6442,0,2023-03-10T14:07:41.371988,6339550,1534,466,1146,-1008,-625,-261,121,119,-75
13123,6443,0,2023-03-10T14:07:41.376817,6339555,1534,466,1146,-1008,-625,-261,121,119,-75
13124,6444,0,2023-03-10T14:07:41.381186,6339559,1534,466,1146,-1008,-625,-261,121,119,-75
13125,6445,0,2023-03-10T14:07:41.386017,6339564,1534,466,1146,-1008,-625,-261,121,119,-75
13126,6446,0,2023-03-10T14:07:41.390883,6339569,1519,470,1137,-1006,-640,-263,121,119,-75
13127,6447,0,2023-03-10T14:07:41.396310,6339574,1519,470,1137,-1006,-640,-263,121,119,-75
13128,6448,0,2023-03-10T14:07:41.400752,6339578,1519,470,1137,-1006,-640,-263,121,119,-75
13129,6449,0,2023-03-10T14:07:41.405067,6339584,1519,470,1137,-1006,-640,-263,121,119,-75
13130,6450,0,2023-03-10T14:07:41.409496,6339588,1519,470,1137,-1006,-640,-263,121,119,-75
13131,6451,0,2023-03-10T14:07:41.414161,6339592,1543,474,1137,-1021,-626,-282,121,119,-75
13132,6452,0,2023-03-10T14:07:41.419545,6339598,1543,474,1137,-1021,-626,-282,121,119,-75
13133,6453,0,2023-03-10T14:07:41.424096,6339602,1543,474,1137,-1021,-626,-282,121,119,-75
13134,6454,0,2023-03-10T14:07:41.428486,6339606,1543,474,1137,-1021,-626,-282,121,119,-75
13135,6455,0,2023-03-10T14:07:41.433086,6339611,1518,471,1132,-1021,-624,-262,121,119,-75
13136,6456,0,2023-03-10T14:07:41.438802,6339616,1518,471,1132,-1021,-624,-262,121,119,-75
13137,6457,0,2023-03-10T14:07:41.443345,6339621,1518,471,1132,-1021,-624,-262,121,119,-75
13138,6458,0,2023-03-10T14:07:41.447897,6339625,1518,471,1132,-1021,-624,-262,121,119,-75
13139,6459,0,2023-03-10T14:07:41.452286,6339631,1531,472,1145,-1025,-604,-264,121,119,-75
13140,6460,0,2023-03-10T14:07:41.457520,6339636,1531,472,1145,-1025,-604,-264,121,119,-75
13141,6461,0,2023-03-10T14:07:41.462185,6339640,1531,472,1145,-1025,-604,-264,121,119,-75
13142,6462,0,2023-03-10T14:07:41.466403,6339645,1531,472,1145,-1025,-604,-264,121,119,-75
13143,6463,0,2023-03-10T14:07:41.471194,6339649,1543,474,1141,-996,-674,-261,121,119,-75
13144,6464,0,2023-03-10T14:07:41.475289,6339653,1543,474,1141,-996,-674,-261,121,119,-75
13145,6465,0,2023-03-10T14:07:41.479513,6339657,1543,474,1141,-996,-674,-261,121,119,-75
13146,6466,0,2023-03-10T14:07:41.483855,6339662,1543,474,1141,-996,-674,-261,121,119,-75
13147,6467,0,2023-03-10T14:07:41.488438,6339666,1543,474,1141,-996,-674,-261,121,119,-75
13148,6468,0,2023-03-10T14:07:41.492801,6339671,1520,469,1126,-1018,-634,-251,120,124,-68
13149,6469,0,2023-03-10T14:07:41.497981,6339676,1520,469,1126,-1018,-634,-251,120,124,-68
13150,6470,0,2023-03-10T14:07:41.502521,6339681,1520,469,1126,-1018,-634,-251,120,124,-68
13151,6471,0,2023-03-10T14:07:41.507019,6339685,1520,469,1126,-1018,-634,-251,120,124,-68
13152,6472,0,2023-03-10T14:07:41.511584,6339689,1520,454,1151,-989,-589,-231,120,124,-68
13153,6473,0,2023-03-10T14:07:41.517080,6339695,1520,454,1151,-989,-589,-231,120,124,-68
13154,6474,0,2023-03-10T14:07:41.521506,6339699,1520,454,1151,-989,-589,-231,120,124,-68
13155,6475,0,2023-03-10T14:07:41.525829,6339704,1520,454,1151,-989,-589,-231,120,124,-68
13156,6476,0,2023-03-10T14:07:41.530202,6339708,1520,454,1151,-989,-589,-231,120,124,-68
13157,6477,0,2023-03-10T14:07:41.534446,6339713,1528,469,1159,-998,-638,-270,120,124,-68
13158,6478,0,2023-03-10T14:07:41.539461,6339718,1528,469,1159,-998,-638,-270,120,124,-68
13159,6479,0,2023-03-10T14:07:41.544281,6339722,1528,469,1159,-998,-638,-270,120,124,-68
13160,6480,0,2023-03-10T14:07:41.549553,6339728,1528,469,1159,-998,-638,-270,120,124,-68
13161,6481,0,2023-03-10T14:07:41.554017,6339732,1528,469,1159,-998,-638,-270,120,124,-68
13162,6482,0,2023-03-10T14:07:41.559077,6339737,1528,469,1159,-998,-638,-270,120,124,-68
13163,6483,0,2023-03-10T14:07:41.563378,6339741,1528,469,1159,-998,-638,-270,120,124,-68
13164,6484,0,2023-03-10T14:07:41.567810,6339745,1528,469,1159,-998,-638,-270,120,124,-68
13165,6485,0,2023-03-10T14:07:41.572959,6339750,1533,470,1140,-1000,-638,-287,120,124,-68
13166,6486,0,2023-03-10T14:07:41.577950,6339756,1533,470,1140,-1000,-638,-287,120,124,-68
13167,6487,0,2023-03-10T14:07:41.582354,6339761,1533,470,1140,-1000,-638,-287,120,124,-68
13168,6488,0,2023-03-10T14:07:41.586960,6339765,1533,470,1140,-1000,-638,-287,120,124,-68
13169,6489,0,2023-03-10T14:07:41.591909,6339770,1512,460,1141,-1011,-608,-267,120,124,-68
13170,6490,0,2023-03-10T14:07:41.597476,6339775,1512,460,1141,-1011,-608,-267,120,124,-68
13171,6491,0,2023-03-10T14:07:41.601840,6339780,1512,460,1141,-1011,-608,-267,120,124,-68
13172,6492,0,2023-03-10T14:07:41.606342,6339784,1512,460,1141,-1011,-608,-267,120,124,-68
13173,6493,0,2023-03-10T14:07:41.610773,6339788,1522,472,1140,-1000,-634,-271,120,124,-68
13174,6494,0,2023-03-10T14:07:41.615721,6339793,1522,472,1140,-1000,-634,-271,123,119,-77
13175,6495,0,2023-03-10T14:07:41.620848,6339799,1522,472,1140,-1000,-634,-271,123,119,-77
13176,6496,0,2023-03-10T14:07:41.625210,6339803,1522,472,1140,-1000,-634,-271,123,119,-77
13177,6497,0,2023-03-10T14:07:41.629580,6339808,1522,472,1140,-1000,-634,-271,123,119,-77
13178,6498,0,2023-03-10T14:07:41.634041,6339812,1531,472,1151,-1019,-611,-266,123,119,-77
13179,6499,0,2023-03-10T14:07:41.639515,6339817,1531,472,1151,-1019,-611,-266,123,119,-77
13180,6500,0,2023-03-10T14:07:41.644187,6339822,1531,472,1151,-1019,-611,-266,123,119,-77
13181,6501,0,2023-03-10T14:07:41.648499,6339826,1531,472,1151,-1019,-611,-266,123,119,-77
13182,6502,0,2023-03-10T14:07:41.652738,6339831,1531,475,1139,-997,-645,-257,123,119,-77
13183,6503,0,2023-03-10T14:07:41.658528,6339836,1531,475,1139,-997,-645,-257,123,119,-77
13184,6504,0,2023-03-10T14:07:41.662832,6339841,1531,475,1139,-997,-645,-257,123,119,-77
13185,6505,0,2023-03-10T14:07:41.667300,6339846,1531,475,1139,-997,-645,-257,123,119,-77
13186,6506,0,2023-03-10T14:07:41.672566,6339851,1516,457,1141,-1003,-630,-238,123,119,-77
13187,6507,0,2023-03-10T14:07:41.678132,6339856,1516,457,1141,-1003,-630,-238,123,119,-77
13188,6508,0,2023-03-10T14:07:41.682364,6339860,1516,457,1141,-1003,-630,-238,123,119,-77
13189,6509,0,2023-03-10T14:07:41.686701,6339865,1516,457,1141,-1003,-630,-238,123,119,-77
13190,6510,0,2023-03-10T14:07:41.691303,6339869,1538,468,1134,-1033,-628,-290,123,119,-77
13191,6511,0,2023-03-10T14:07:41.697693,6339875,1538,468,1134,-1033,-628,-290,123,119,-77
13192,6512,0,2023-03-10T14:07:41.702163,6339880,1538,468,1134,-1033,-628,-290,123,119,-77
13193,6513,0,2023-03-10T14:07:41.706712,6339885,1538,468,1134,-1033,-628,-290,123,119,-77
13194,6514,0,2023-03-10T14:07:41.711081,6339889,1547,467,1135,-1001,-650,-264,123,119,-77
13195,6515,0,2023-03-10T14:07:41.716773,6339895,1547,467,1135,-1001,-650,-264,123,119,-77
13196,6516,0,2023-03-10T14:07:41.721001,6339899,1547,467,1135,-1001,-650,-264,123,119,-77
13197,6517,0,2023-03-10T14:07:41.725464,6339903,1547,467,1135,-1001,-650,-264,123,119,-77
13198,6518,0,2023-03-10T14:07:41.729945,6339908,1547,467,1135,-1001,-650,-264,123,119,-77
13199,6519,0,2023-03-10T14:07:41.735406,6339912,1516,465,1126,-1014,-623,-266,123,119,-77
13200,6520,0,2023-03-10T14:07:41.740829,6339919,1516,465,1126,-1014,-623,-266,123,119,-77
13201,6521,0,2023-03-10T14:07:41.745588,6339923,1516,465,1126,-1014,-623,-266,123,119,-77
13202,6522,0,2023-03-10T14:07:41.750129,6339928,1516,465,1126,-1014,-623,-266,123,119,-77
13203,6523,0,2023-03-10T14:07:41.754554,6339933,1539,467,1154,-1015,-624,-279,119,119,-69
13204,6524,0,2023-03-10T14:07:41.760112,6339938,1539,467,1154,-1015,-624,-279,119,119,-69
13205,6525,0,2023-03-10T14:07:41.764538,6339943,1539,467,1154,-1015,-624,-279,119,119,-69
13206,6526,0,2023-03-10T14:07:41.769112,6339947,1539,467,1154,-1015,-624,-279,119,119,-69
13207,6527,0,2023-03-10T14:07:41.773463,6339951,1509,465,1130,-1006,-687,-265,119,119,-69
13208,6528,0,2023-03-10T14:07:41.778799,6339956,1509,465,1130,-1006,-687,-265,119,119,-69
13209,6529,0,2023-03-10T14:07:41.783171,6339961,1509,465,1130,-1006,-687,-265,119,119,-69
13210,6530,0,2023-03-10T14:07:41.787828,6339965,1509,465,1130,-1006,-687,-265,119,119,-69
13211,6531,0,2023-03-10T14:07:41.792309,6339971,1540,464,1139,-1016,-608,-259,119,119,-69
13212,6532,0,2023-03-10T14:07:41.797515,6339976,1540,464,1139,-1016,-608,-259,119,119,-69
13213,6533,0,2023-03-10T14:07:41.802106,6339980,1540,464,1139,-1016,-608,-259,119,119,-69
13214,6534,0,2023-03-10T14:07:41.806367,6339985,1540,464,1139,-1016,-608,-259,119,119,-69
13215,6535,0,2023-03-10T14:07:41.810596,6339989,1540,464,1139,-1016,-608,-259,119,119,-69
13216,6536,0,2023-03-10T14:07:41.815208,6339993,1531,475,1137,-1002,-584,-272,119,119,-69
13217,6537,0,2023-03-10T14:07:41.820608,6339998,1531,475,1137,-1002,-584,-272,119,119,-69
13218,6538,0,2023-03-10T14:07:41.825125,6340003,1531,475,1137,-1002,-584,-272,119,119,-69
13219,6539,0,2023-03-10T14:07:41.830106,6340008,1531,475,1137,-1002,-584,-272,119,119,-69
13220,6540,0,2023-03-10T14:07:41.834564,6340013,1522,458,1127,-1018,-619,-244,119,119,-69
13221,6541,0,2023-03-10T14:07:41.839973,6340018,1522,458,1127,-1018,-619,-244,119,119,-69
13222,6542,0,2023-03-10T14:07:41.844327,6340022,1522,458,1127,-1018,-619,-244,119,119,-69
13223,6543,0,2023-03-10T14:07:41.849036,6340027,1522,458,1127,-1018,-619,-244,119,119,-69
13224,6544,0,2023-03-10T14:07:41.853512,6340031,1552,480,1147,-982,-650,-280,119,119,-69
13225,6545,0,2023-03-10T14:07:41.858972,6340037,1552,480,1147,-982,-650,-280,119,119,-69
13226,6546,0,2023-03-10T14:07:41.863460,6340041,1552,480,1147,-982,-650,-280,119,119,-69
13227,6547,0,2023-03-10T14:07:41.867790,6340046,1552,480,1147,-982,-650,-280,119,119,-69
13228,6548,0,2023-03-10T14:07:41.872213,6340050,1516,457,1130,-1000,-618,-218,128,120,-70
13229,6549,0,2023-03-10T14:07:41.878020,6340056,1516,457,1130,-1000,-618,-218,128,120,-70
13230,6550,0,2023-03-10T14:07:41.882696,6340061,1516,457,1130,-1000,-618,-218,128,120,-70
13231,6551,0,2023-03-10T14:07:41.887084,6340065,1516,457,1130,-1000,-618,-218,128,120,-70
13232,6552,0,2023-03-10T14:07:41.891662,6340070,1543,473,1138,-1005,-628,-289,128,120,-70
13233,6553,0,2023-03-10T14:07:41.897179,6340075,1543,473,1138,-1005,-628,-289,128,120,-70
13234,6554,0,2023-03-10T14:07:41.901596,6340079,1543,473,1138,-1005,-628,-289,128,120,-70
13235,6555,0,2023-03-10T14:07:41.906263,6340084,1543,473,1138,-1005,-628,-289,128,120,-70
13236,6556,0,2023-03-10T14:07:41.910622,6340088,1543,473,1138,-1005,-628,-289,128,120,-70
13237,6557,0,2023-03-10T14:07:41.915142,6340093,1522,463,1137,-1029,-629,-261,128,120,-70
13238,6558,0,2023-03-10T14:07:41.920221,6340099,1522,463,1137,-1029,-629,-261,128,120,-70
13239,6559,0,2023-03-10T14:07:41.924818,6340103,1522,463,1137,-1029,-629,-261,128,120,-70
13240,6560,0,2023-03-10T14:07:41.929484,6340108,1522,463,1137,-1029,-629,-261,128,120,-70
13241,6561,0,2023-03-10T14:07:41.933829,6340112,1538,471,1132,-1000,-632,-274,128,120,-70
13242,6562,0,2023-03-10T14:07:41.939259,6340117,1538,471,1132,-1000,-632,-274,128,120,-70
13243,6563,0,2023-03-10T14:07:41.943735,6340122,1538,471,1132,-1000,-632,-274,128,120,-70
13244,6564,0,2023-03-10T14:07:41.948103,6340126,1538,471,1132,-1000,-632,-274,128,120,-70
13245,6565,0,2023-03-10T14:07:41.952557,6340130,1538,471,1139,-1019,-610,-259,128,120,-70
13246,6566,0,2023-03-10T14:07:41.957814,6340135,1538,471,1139,-1019,-610,-259,128,120,-70
13247,6567,0,2023-03-10T14:07:41.962265,6340141,1538,471,1139,-1019,-610,-259,128,120,-70
13248,6568,0,2023-03-10T14:07:41.966744,6340145,1538,471,1139,-1019,-610,-259,128,120,-70
13249,6569,0,2023-03-10T14:07:41.971328,6340149,1524,460,1137,-1001,-628,-254,128,120,-70
13250,6570,0,2023-03-10T14:07:41.976502,6340154,1524,460,1137,-1001,-628,-254,128,120,-70
13251,6571,0,2023-03-10T14:07:41.981474,6340159,1524,460,1137,-1001,-628,-254,128,120,-70
13252,6572,0,2023-03-10T14:07:41.985765,6340164,1524,460,1137,-1001,-628,-254,128,120,-70
13253,6573,0,2023-03-10T14:07:41.990166,6340168,1524,460,1137,-1001,-628,-254,128,120,-70
13254,6574,0,2023-03-10T14:07:41.994736,6340172,1530,470,1125,-1013,-637,-267,128,120,-70
13255,6575,0,2023-03-10T14:07:42.000044,6340178,1530,470,1125,-1013,-637,-267,128,120,-70
13256,6576,0,2023-03-10T14:07:42.004330,6340183,1530,470,1125,-1013,-637,-267,128,120,-70
13257,6577,0,2023-03-10T14:07:42.009472,6340188,1530,470,1125,-1013,-637,-267,128,120,-70
13258,6578,0,2023-03-10T14:07:42.014205,6340192,1530,470,1125,-1013,-637,-267,124,116,-76
13259,6579,0,2023-03-10T14:07:42.019258,6340197,1530,470,1125,-1013,-637,-267,124,116,-76
13260,6580,0,2023-03-10T14:07:42.023539,6340202,1530,470,1125,-1013,-637,-267,124,116,-76
13261,6581,0,2023-03-10T14:07:42.028269,6340206,1530,470,1125,-1013,-637,-267,124,116,-76
13262,6582,0,2023-03-10T14:07:42.032662,6340211,1533,469,1137,-997,-618,-261,124,116,-76
13263,6583,0,2023-03-10T14:07:42.038009,6340215,1533,469,1137,-997,-618,-261,124,116,-76
13264,6584,0,2023-03-10T14:07:42.042369,6340220,1533,469,1137,-997,-618,-261,124,116,-76
13265,6585,0,2023-03-10T14:07:42.046703,6340225,1533,469,1137,-997,-618,-261,124,116,-76
13266,6586,0,2023-03-10T14:07:42.051123,6340229,1533,469,1137,-997,-618,-261,124,116,-76
13267,6587,0,2023-03-10T14:07:42.055584,6340234,1536,458,1130,-1008,-622,-250,124,116,-76
13268,6588,0,2023-03-10T14:07:42.060874,6340239,1536,458,1130,-1008,-622,-250,124,116,-76
13269,6589,0,2023-03-10T14:07:42.065295,6340243,1536,458,1130,-1008,-622,-250,124,116,-76
13270,6590,0,2023-03-10T14:07:42.069808,6340248,1536,458,1130,-1008,-622,-250,124,116,-76
13271,6591,0,2023-03-10T14:07:42.074270,6340252,1531,471,1133,-996,-626,-260,124,116,-76
13272,6592,0,2023-03-10T14:07:42.079794,6340257,1531,471,1133,-996,-626,-260,124,116,-76
13273,6593,0,2023-03-10T14:07:42.084068,6340262,1531,471,1133,-996,-626,-260,124,116,-76
13274,6594,0,2023-03-10T14:07:42.088412,6340267,1531,471,1133,-996,-626,-260,124,116,-76
13275,6595,0,2023-03-10T14:07:42.093456,6340272,1547,459,1127,-1022,-644,-256,124,116,-76
13276,6596,0,2023-03-10T14:07:42.098922,6340277,1547,459,1127,-1022,-644,-256,124,116,-76
13277,6597,0,2023-03-10T14:07:42.103337,6340281,1547,459,1127,-1022,-644,-256,124,116,-76
13278,6598,0,2023-03-10T14:07:42.108022,6340286,1547,459,1127,-1022,-644,-256,124,116,-76
13279,6599,0,2023-03-10T14:07:42.112538,6340290,1541,479,1129,-996,-613,-278,124,116,-76
13280,6600,0,2023-03-10T14:07:42.117652,6340295,1541,479,1129,-996,-613,-278,124,116,-76
13281,6601,0,2023-03-10T14:07:42.121982,6340300,1541,479,1129,-996,-613,-278,124,116,-76
13282,6602,0,2023-03-10T14:07:42.126454,6340304,1541,479,1129,-996,-613,-278,124,116,-76
13283,6603,0,2023-03-10T14:07:42.130912,6340308,1541,479,1129,-996,-613,-278,124,116,-76
13284,6604,0,2023-03-10T14:07:42.135188,6340314,1528,455,1126,-1014,-619,-219,122,126,-68
13285,6605,0,2023-03-10T14:07:42.140330,6340319,1528,455,1126,-1014,-619,-219,122,126,-68
13286,6606,0,2023-03-10T14:07:42.144539,6340323,1528,455,1126,-1014,-619,-219,122,126,-68
13287,6607,0,2023-03-10T14:07:42.149052,6340327,1528,455,1126,-1014,-619,-219,122,126,-68
13288,6608,0,2023-03-10T14:07:42.153747,6340332,1535,469,1138,-981,-628,-262,122,126,-68
13289,6609,0,2023-03-10T14:07:42.158805,6340337,1535,469,1138,-981,-628,-262,122,126,-68
13290,6610,0,2023-03-10T14:07:42.163424,6340341,1535,469,1138,-981,-628,-262,122,126,-68
13291,6611,0,2023-03-10T14:07:42.167738,6340345,1535,469,1138,-981,-628,-262,122,126,-68
13292,6612,0,2023-03-10T14:07:42.172233,6340350,1552,467,1121,-1055,-633,-286,122,126,-68
13293,6613,0,2023-03-10T14:07:42.177533,6340356,1552,467,1121,-1055,-633,-286,122,126,-68
13294,6614,0,2023-03-10T14:07:42.181989,6340360,1552,467,1121,-1055,-633,-286,122,126,-68
13295,6615,0,2023-03-10T14:07:42.186854,6340365,1552,467,1121,-1055,-633,-286,122,126,-68
13296,6616,0,2023-03-10T14:07:42.191380,6340369,1539,470,1124,-998,-625,-245,122,126,-68
13297,6617,0,2023-03-10T14:07:42.195905,6340374,1539,470,1124,-998,-625,-245,122,126,-68
13298,6618,0,2023-03-10T14:07:42.200214,6340378,1539,470,1124,-998,-625,-245,122,126,-68
13299,6619,0,2023-03-10T14:07:42.204928,6340382,1539,470,1124,-998,-625,-245,122,126,-68
13300,6620,0,2023-03-10T14:07:42.209320,6340387,1539,470,1124,-998,-625,-245,122,126,-68
13301,6621,0,2023-03-10T14:07:42.213780,6340391,1528,461,1142,-999,-606,-228,122,126,-68
13302,6622,0,2023-03-10T14:07:42.219512,6340398,1528,461,1142,-999,-606,-228,122,126,-68
13303,6623,0,2023-03-10T14:07:42.223746,6340402,1528,461,1142,-999,-606,-228,122,126,-68
13304,6624,0,2023-03-10T14:07:42.228064,6340406,1528,461,1142,-999,-606,-228,122,126,-68
13305,6625,0,2023-03-10T14:07:42.232293,6340411,1538,472,1134,-1011,-651,-294,122,126,-68
13306,6626,0,2023-03-10T14:07:42.237119,6340415,1538,472,1134,-1011,-651,-294,122,126,-68
13307,6627,0,2023-03-10T14:07:42.241586,6340419,1538,472,1134,-1011,-651,-294,122,126,-68
13308,6628,0,2023-03-10T14:07:42.246011,6340424,1538,472,1134,-1011,-651,-294,122,126,-68
13309,6629,0,2023-03-10T14:07:42.250460,6340428,1538,472,1134,-1011,-651,-294,122,126,-68
13310,6630,0,2023-03-10T14:07:42.254818,6340432,1536,466,1126,-1033,-625,-270,122,126,-68
13311,6631,0,2023-03-10T14:07:42.259794,6340438,1536,466,1126,-1033,-625,-270,122,126,-68
13312,6632,0,2023-03-10T14:07:42.264384,6340443,1536,466,1126,-1033,-625,-270,122,126,-68
13313,6633,0,2023-03-10T14:07:42.268628,6340447,1536,466,1126,-1033,-625,-270,122,126,-68
13314,6634,0,2023-03-10T14:07:42.273202,6340451,1539,469,1134,-1008,-634,-280,116,122,-82
13315,6635,0,2023-03-10T14:07:42.278864,6340457,1539,469,1134,-1008,-634,-280,116,122,-82
13316,6636,0,2023-03-10T14:07:42.283291,6340461,1539,469,1134,-1008,-634,-280,116,122,-82
13317,6637,0,2023-03-10T14:07:42.287706,6340465,1539,469,1134,-1008,-634,-280,116,122,-82
13318,6638,0,2023-03-10T14:07:42.292030,6340470,1534,465,1127,-1022,-612,-256,116,122,-82
13319,6639,0,2023-03-10T14:07:42.297015,6340475,1534,465,1127,-1022,-612,-256,116,122,-82
13320,6640,0,2023-03-10T14:07:42.301555,6340480,1534,465,1127,-1022,-612,-256,116,122,-82
13321,6641,0,2023-03-10T14:07:42.305994,6340484,1534,465,1127,-1022,-612,-256,116,122,-82
13322,6642,0,2023-03-10T14:07:42.310292,6340489,1534,465,1127,-1022,-612,-256,116,122,-82
13323,6643,0,2023-03-10T14:07:42.314709,6340493,1536,465,1139,-990,-642,-247,116,122,-82
13324,6644,0,2023-03-10T14:07:42.320327,6340498,1536,465,1139,-990,-642,-247,116,122,-82
13325,6645,0,2023-03-10T14:07:42.324766,6340503,1536,465,1139,-990,-642,-247,116,122,-82
13326,6646,0,2023-03-10T14:07:42.329054,6340507,1536,465,1139,-990,-642,-247,116,122,-82
13327,6647,0,2023-03-10T14:07:42.333362,6340511,1545,468,1132,-1020,-618,-277,116,122,-82
13328,6648,0,2023-03-10T14:07:42.338984,6340516,1545,468,1132,-1020,-618,-277,116,122,-82
13329,6649,0,2023-03-10T14:07:42.343566,6340521,1545,468,1132,-1020,-618,-277,116,122,-82
13330,6650,0,2023-03-10T14:07:42.347799,6340526,1545,468,1132,-1020,-618,-277,116,122,-82
13331,6651,0,2023-03-10T14:07:42.352703,6340531,1545,465,1123,-1008,-661,-263,116,122,-82
13332,6652,0,2023-03-10T14:07:42.358024,6340536,1545,465,1123,-1008,-661,-263,116,122,-82
13333,6653,0,2023-03-10T14:07:42.362684,6340540,1545,465,1123,-1008,-661,-263,116,122,-82
13334,6654,0,2023-03-10T14:07:42.367194,6340545,1545,465,1123,-1008,-661,-263,116,122,-82
13335,6655,0,2023-03-10T14:07:42.371776,6340549,1535,470,1127,-1002,-624,-267,116,122,-82
13336,6656,0,2023-03-10T14:07:42.376963,6340555,1535,470,1127,-1002,-624,-267,116,122,-82
13337,6657,0,2023-03-10T14:07:42.381289,6340559,1535,470,1127,-1002,-624,-267,116,122,-82
13338,6658,0,2023-03-10T14:07:42.385919,6340563,1535,470,1127,-1002,-624,-267,116,122,-82
13339,6659,0,2023-03-10T14:07:42.390289,6340569,1535,470,1127,-1002,-624,-267,116,122,-82
13340,6660,0,2023-03-10T14:07:42.394905,6340573,1545,467,1132,-998,-625,-238,122,126,-74
13341,6661,0,2023-03-10T14:07:42.400093,6340578,1545,467,1132,-998,-625,-238,122,126,-74
13342,6662,0,2023-03-10T14:07:42.404644,6340583,1545,467,1132,-998,-625,-238,122,126,-74
13343,6663,0,2023-03-10T14:07:42.409088,6340587,1545,467,1132,-998,-625,-238,122,126,-74
13344,6664,0,2023-03-10T14:07:42.413864,6340592,1543,471,1143,-974,-629,-259,122,126,-74
13345,6665,0,2023-03-10T14:07:42.418872,6340596,1543,471,1143,-974,-629,-259,122,126,-74
13346,6666,0,2023-03-10T14:07:42.423115,6340601,1543,471,1143,-974,-629,-259,122,126,-74
13347,6667,0,2023-03-10T14:07:42.427675,6340605,1543,471,1143,-974,-629,-259,122,126,-74
13348,6668,0,2023-03-10T14:07:42.432146,6340611,1526,459,1106,-1043,-647,-260,122,126,-74
13349,6669,0,2023-03-10T14:07:42.437754,6340616,1526,459,1106,-1043,-647,-260,122,126,-74
13350,6670,0,2023-03-10T14:07:42.442092,6340620,1526,459,1106,-1043,-647,-260,122,126,-74
13351,6671,0,2023-03-10T14:07:42.446551,6340625,1526,459,1106,-1043,-647,-260,122,126,-74
13352,6672,0,2023-03-10T14:07:42.451148,6340629,1526,459,1106,-1043,-647,-260,122,126,-74
13353,6673,0,2023-03-10T14:07:42.455735,6340634,1551,458,1135,-1007,-614,-288,122,126,-74
13354,6674,0,2023-03-10T14:07:42.461046,6340639,1551,458,1135,-1007,-614,-288,122,126,-74
13355,6675,0,2023-03-10T14:07:42.466075,6340643,1551,458,1135,-1007,-614,-288,122,126,-74
13356,6676,0,2023-03-10T14:07:42.470376,6340648,1551,458,1135,-1007,-614,-288,122,126,-74
13357,6677,0,2023-03-10T14:07:42.475251,6340653,1523,455,1114,-1013,-716,-246,122,126,-74
13358,6678,0,2023-03-10T14:07:42.480501,6340659,1523,455,1114,-1013,-716,-246,122,126,-74
13359,6679,0,2023-03-10T14:07:42.484993,6340663,1523,455,1114,-1013,-716,-246,122,126,-74
13360,6680,0,2023-03-10T14:07:42.489353,6340667,1523,455,1114,-1013,-716,-246,122,126,-74
13361,6681,0,2023-03-10T14:07:42.493811,6340672,1559,475,1136,-1010,-608,-278,122,126,-74
13362,6682,0,2023-03-10T14:07:42.498184,6340676,1559,475,1136,-1010,-608,-278,122,126,-74
13363,6683,0,2023-03-10T14:07:42.502783,6340680,1559,475,1136,-1010,-608,-278,122,126,-74
13364,6684,0,2023-03-10T14:07:42.507092,6340685,1559,475,1136,-1010,-608,-278,122,126,-74
13365,6685,0,2023-03-10T14:07:42.512179,6340690,1518,458,1123,-1021,-589,-256,120,122,-76
13366,6686,0,2023-03-10T14:07:42.516449,6340695,1518,458,1123,-1021,-589,-256,120,122,-76
13367,6687,0,2023-03-10T14:07:42.521062,6340699,1518,458,1123,-1021,-589,-256,120,122,-76
13368,6688,0,2023-03-10T14:07:42.525385,6340704,1518,458,1123,-1021,-589,-256,120,122,-76
13369,6689,0,2023-03-10T14:07:42.530597,6340708,1518,458,1123,-1021,-589,-256,120,122,-76
13370,6690,0,2023-03-10T14:07:42.535393,6340713,1542,471,1137,-1024,-621,-270,120,122,-76
13371,6691,0,2023-03-10T14:07:42.540868,6340719,1542,471,1137,-1024,-621,-270,120,122,-76
13372,6692,0,2023-03-10T14:07:42.545233,6340723,1542,471,1137,-1024,-621,-270,120,122,-76
13373,6693,0,2023-03-10T14:07:42.549603,6340727,1542,471,1137,-1024,-621,-270,120,122,-76
13374,6694,0,2023-03-10T14:07:42.553960,6340731,1553,469,1129,-1014,-656,-268,120,122,-76
13375,6695,0,2023-03-10T14:07:42.559440,6340738,1553,469,1129,-1014,-656,-268,120,122,-76
13376,6696,0,2023-03-10T14:07:42.563809,6340742,1553,469,1129,-1014,-656,-268,120,122,-76
13377,6697,0,2023-03-10T14:07:42.568129,6340747,1553,469,1129,-1014,-656,-268,120,122,-76
13378,6698,0,2023-03-10T14:07:42.572664,6340751,1531,462,1120,-1019,-630,-250,120,122,-76
13379,6699,0,2023-03-10T14:07:42.578004,6340756,1531,462,1120,-1019,-630,-250,120,122,-76
13380,6700,0,2023-03-10T14:07:42.582352,6340760,1531,462,1120,-1019,-630,-250,120,122,-76
13381,6701,0,2023-03-10T14:07:42.587141,6340765,1531,462,1120,-1019,-630,-250,120,122,-76
13382,6702,0,2023-03-10T14:07:42.591670,6340769,1531,462,1120,-1019,-630,-250,120,122,-76
13383,6703,0,2023-03-10T14:07:42.596441,6340774,1539,461,1128,-1007,-612,-264,120,122,-76
13384,6704,0,2023-03-10T14:07:42.601595,6340780,1539,461,1128,-1007,-612,-264,120,122,-76
13385,6705,0,2023-03-10T14:07:42.606204,6340784,1539,461,1128,-1007,-612,-264,120,122,-76
13386,6706,0,2023-03-10T14:07:42.611477,6340790,1539,461,1128,-1007,-612,-264,120,122,-76
13387,6707,0,2023-03-10T14:07:42.616103,6340794,1553,475,1131,-987,-673,-259,120,122,-76
13388,6708,0,2023-03-10T14:07:42.620923,6340799,1553,475,1131,-987,-673,-259,120,122,-76
13389,6709,0,2023-03-10T14:07:42.625895,6340804,1553,475,1131,-987,-673,-259,120,122,-76
13390,6710,0,2023-03-10T14:07:42.630418,6340808,1553,475,1131,-987,-673,-259,120,122,-76
13391,6711,0,2023-03-10T14:07:42.635169,6340813,1530,460,1121,-985,-623,-231,120,122,-76
13392,6712,0,2023-03-10T14:07:42.640624,6340818,1530,460,1121,-985,-623,-231,120,122,-76
13393,6713,0,2023-03-10T14:07:42.644994,6340824,1530,460,1121,-985,-623,-231,120,122,-76
13394,6714,0,2023-03-10T14:07:42.649744,6340828,1530,460,1121,-985,-623,-231,120,122,-76
13395,6715,0,2023-03-10T14:07:42.654364,6340832,1540,465,1128,-1020,-601,-287,128,126,-76
13396,6716,0,2023-03-10T14:07:42.659903,6340838,1540,465,1128,-1020,-601,-287,128,126,-76
13397,6717,0,2023-03-10T14:07:42.664467,6340842,1540,465,1128,-1020,-601,-287,128,126,-76
13398,6718,0,2023-03-10T14:07:42.669107,6340847,1540,465,1128,-1020,-601,-287,128,126,-76
13399,6719,0,2023-03-10T14:07:42.673882,6340852,1537,456,1125,-1023,-629,-255,128,126,-76
13400,6720,0,2023-03-10T14:07:42.678851,6340856,1537,456,1125,-1023,-629,-255,128,126,-76
13401,6721,0,2023-03-10T14:07:42.683198,6340861,1537,456,1125,-1023,-629,-255,128,126,-76
13402,6722,0,2023-03-10T14:07:42.687658,6340866,1537,456,1125,-1023,-629,-255,128,126,-76
13403,6723,0,2023-03-10T14:07:42.692558,6340871,1543,469,1122,-1008,-628,-274,128,126,-76
13404,6724,0,2023-03-10T14:07:42.697472,6340876,1543,469,1122,-1008,-628,-274,128,126,-76
13405,6725,0,2023-03-10T14:07:42.702412,6340880,1543,469,1122,-1008,-628,-274,128,126,-76
13406,6726,0,2023-03-10T14:07:42.707736,6340885,1543,469,1122,-1008,-628,-274,128,126,-76
13407,6727,0,2023-03-10T14:07:42.712917,6340891,1556,465,1130,-1009,-646,-270,128,126,-76
13408,6728,0,2023-03-10T14:07:42.718664,6340896,1556,465,1130,-1009,-646,-270,128,126,-76
13409,6729,0,2023-03-10T14:07:42.723200,6340901,1556,465,1130,-1009,-646,-270,128,126,-76
13410,6730,0,2023-03-10T14:07:42.727904,6340905,1556,465,1130,-1009,-646,-270,128,126,-76
13411,6731,0,2023-03-10T14:07:42.732809,6340911,1533,466,1114,-1012,-629,-265,128,126,-76
13412,6732,0,2023-03-10T14:07:42.738478,6340917,1533,466,1114,-1012,-629,-265,128,126,-76
13413,6733,0,2023-03-10T14:07:42.743197,6340921,1533,466,1114,-1012,-629,-265,128,126,-76
13414,6734,0,2023-03-10T14:07:42.747667,6340926,1533,466,1114,-1012,-629,-265,128,126,-76
13415,6735,0,2023-03-10T14:07:42.752218,6340930,1533,466,1114,-1012,-629,-265,128,126,-76
13416,6736,0,2023-03-10T14:07:42.757318,6340935,1550,464,1130,-1010,-617,-260,128,126,-76
13417,6737,0,2023-03-10T14:07:42.762184,6340940,1550,464,1130,-1010,-617,-260,128,126,-76
13418,6738,0,2023-03-10T14:07:42.766450,6340944,1550,464,1130,-1010,-617,-260,128,126,-76
13419,6739,0,2023-03-10T14:07:42.771068,6340948,1550,464,1130,-1010,-617,-260,128,126,-76
13420,6740,0,2023-03-10T14:07:42.775386,6340954,1533,465,1133,-988,-640,-260,119,117,-77
13421,6741,0,2023-03-10T14:07:42.780996,6340959,1533,465,1133,-988,-640,-260,119,117,-77
13422,6742,0,2023-03-10T14:07:42.785508,6340964,1533,465,1133,-988,-640,-260,119,117,-77
13423,6743,0,2023-03-10T14:07:42.789899,6340968,1533,465,1133,-988,-640,-260,119,117,-77
13424,6744,0,2023-03-10T14:07:42.794097,6340972,1561,470,1122,-1036,-639,-295,119,117,-77
13425,6745,0,2023-03-10T14:07:42.799191,6340977,1561,470,1122,-1036,-639,-295,119,117,-77
13426,6746,0,2023-03-10T14:07:42.803783,6340981,1561,470,1122,-1036,-639,-295,119,117,-77
13427,6747,0,2023-03-10T14:07:42.808366,6340986,1561,470,1122,-1036,-639,-295,119,117,-77
13428,6748,0,2023-03-10T14:07:42.813001,6340990,1537,465,1128,-984,-630,-235,119,117,-77
13429,6749,0,2023-03-10T14:07:42.818211,6340997,1537,465,1128,-984,-630,-235,119,117,-77
13430,6750,0,2023-03-10T14:07:42.822636,6341001,1537,465,1128,-984,-630,-235,119,117,-77
13431,6751,0,2023-03-10T14:07:42.827048,6341005,1537,465,1128,-984,-630,-235,119,117,-77
13432,6752,0,2023-03-10T14:07:42.831744,6341010,1537,465,1128,-984,-630,-235,119,117,-77
13433,6753,0,2023-03-10T14:07:42.836760,6341015,1543,459,1122,-1009,-627,-266,119,117,-77
13434,6754,0,2023-03-10T14:07:42.841831,6341020,1543,459,1122,-1009,-627,-266,119,117,-77
13435,6755,0,2023-03-10T14:07:42.846194,6341024,1543,459,1122,-1009,-627,-266,119,117,-77
13436,6756,0,2023-03-10T14:07:42.850623,6341028,1543,459,1122,-1009,-627,-266,119,117,-77
13437,6757,0,2023-03-10T14:07:42.855333,6341033,1541,466,1119,-1008,-644,-267,119,117,-77
13438,6758,0,2023-03-10T14:07:42.860685,6341039,1541,466,1119,-1008,-644,-267,119,117,-77
13439,6759,0,2023-03-10T14:07:42.865261,6341043,1541,466,1119,-1008,-644,-267,119,117,-77
13440,6760,0,2023-03-10T14:07:42.869915,6341048,1541,466,1119,-1008,-644,-267,119,117,-77
13441,6761,0,2023-03-10T14:07:42.874289,6341052,1560,466,1122,-1006,-634,-267,119,117,-77
13442,6762,0,2023-03-10T14:07:42.879739,6341058,1560,466,1122,-1006,-634,-267,119,117,-77
13443,6763,0,2023-03-10T14:07:42.884222,6341062,1560,466,1122,-1006,-634,-267,119,117,-77
13444,6764,0,2023-03-10T14:07:42.888789,6341067,1560,466,1122,-1006,-634,-267,119,117,-77
13445,6765,0,2023-03-10T14:07:42.893321,6341071,1545,468,1112,-1013,-625,-257,119,117,-77
13446,6766,0,2023-03-10T14:07:42.897674,6341075,1545,468,1112,-1013,-625,-257,119,117,-77
13447,6767,0,2023-03-10T14:07:42.902003,6341080,1545,468,1112,-1013,-625,-257,119,117,-77
13448,6768,0,2023-03-10T14:07:42.906475,6341085,1545,468,1112,-1013,-625,-257,119,117,-77
13449,6769,0,2023-03-10T14:07:42.910982,6341089,1545,468,1112,-1013,-625,-257,119,117,-77
13450,6770,0,2023-03-10T14:07:42.915228,6341093,1534,457,1128,-994,-604,-232,115,119,-75
13451,6771,0,2023-03-10T14:07:42.920491,6341098,1534,457,1128,-994,-604,-232,115,119,-75
13452,6772,0,2023-03-10T14:07:42.924905,6341103,1534,457,1128,-994,-604,-232,115,119,-75
13453,6773,0,2023-03-10T14:07:42.929134,6341107,1534,457,1128,-994,-604,-232,115,119,-75
13454,6774,0,2023-03-10T14:07:42.934303,6341112,1561,468,1130,-1002,-679,-285,115,119,-75
13455,6775,0,2023-03-10T14:07:42.939268,6341117,1561,468,1130,-1002,-679,-285,115,119,-75
13456,6776,0,2023-03-10T14:07:42.943712,6341122,1561,468,1130,-1002,-679,-285,115,119,-75
13457,6777,0,2023-03-10T14:07:42.948070,6341126,1561,468,1130,-1002,-679,-285,115,119,-75
13458,6778,0,2023-03-10T14:07:42.952642,6341131,1540,460,1111,-1028,-632,-246,115,119,-75
13459,6779,0,2023-03-10T14:07:42.958354,6341136,1540,460,1111,-1028,-632,-246,115,119,-75
13460,6780,0,2023-03-10T14:07:42.963213,6341141,1540,460,1111,-1028,-632,-246,115,119,-75
13461,6781,0,2023-03-10T14:07:42.967719,6341146,1540,460,1111,-1028,-632,-246,115,119,-75
13462,6782,0,2023-03-10T14:07:42.972991,6341151,1538,461,1127,-999,-598,-265,115,119,-75
13463,6783,0,2023-03-10T14:07:42.977803,6341155,1538,461,1127,-999,-598,-265,115,119,-75
13464,6784,0,2023-03-10T14:07:42.982453,6341160,1538,461,1127,-999,-598,-265,115,119,-75
13465,6785,0,2023-03-10T14:07:42.986874,6341165,1538,461,1127,-999,-598,-265,115,119,-75
13466,6786,0,2023-03-10T14:07:42.991284,6341170,1538,461,1127,-999,-598,-265,115,119,-75
13467,6787,0,2023-03-10T14:07:42.995772,6341174,1540,459,1127,-1010,-630,-264,115,119,-75
13468,6788,0,2023-03-10T14:07:43.001328,6341179,1540,459,1127,-1010,-630,-264,115,119,-75
13469,6789,0,2023-03-10T14:07:43.005709,6341184,1540,459,1127,-1010,-630,-264,115,119,-75
13470,6790,0,2023-03-10T14:07:43.010481,6341188,1540,459,1127,-1010,-630,-264,115,119,-75
13471,6791,0,2023-03-10T14:07:43.014817,6341193,1545,467,1123,-1013,-605,-283,115,119,-75
13472,6792,0,2023-03-10T14:07:43.020330,6341198,1545,467,1123,-1013,-605,-283,115,119,-75
13473,6793,0,2023-03-10T14:07:43.024785,6341202,1545,467,1123,-1013,-605,-283,115,119,-75
13474,6794,0,2023-03-10T14:07:43.028983,6341208,1545,467,1123,-1013,-605,-283,115,119,-75
13475,6795,0,2023-03-10T14:07:43.033462,6341212,1557,469,1127,-1006,-637,-263,118,116,-70
13476,6796,0,2023-03-10T14:07:43.038173,6341216,1557,469,1127,-1006,-637,-263,118,116,-70
13477,6797,0,2023-03-10T14:07:43.042688,6341221,1557,469,1127,-1006,-637,-263,118,116,-70
13478,6798,0,2023-03-10T14:07:43.047063,6341225,1557,469,1127,-1006,-637,-263,118,116,-70
13479,6799,0,2023-03-10T14:07:43.051541,6341229,1557,469,1127,-1006,-637,-263,118,116,-70
13480,6800,0,2023-03-10T14:07:43.056832,6341234,1533,463,1123,-997,-635,-233,118,116,-70
13481,6801,0,2023-03-10T14:07:43.061863,6341240,1533,463,1123,-997,-635,-233,118,116,-70
13482,6802,0,2023-03-10T14:07:43.066528,6341244,1533,463,1123,-997,-635,-233,118,116,-70
13483,6803,0,2023-03-10T14:07:43.071526,6341250,1533,463,1123,-997,-635,-233,118,116,-70
13484,6804,0,2023-03-10T14:07:43.076405,6341255,1553,460,1121,-1027,-623,-277,118,116,-70
13485,6805,0,2023-03-10T14:07:43.081297,6341260,1553,460,1121,-1027,-623,-277,118,116,-70
13486,6806,0,2023-03-10T14:07:43.085767,6341264,1553,460,1121,-1027,-623,-277,118,116,-70
13487,6807,0,2023-03-10T14:07:43.090722,6341269,1553,460,1121,-1027,-623,-277,118,116,-70
13488,6808,0,2023-03-10T14:07:43.095076,6341273,1547,466,1114,-1006,-637,-257,118,116,-70
13489,6809,0,2023-03-10T14:07:43.099290,6341277,1547,466,1114,-1006,-637,-257,118,116,-70
13490,6810,0,2023-03-10T14:07:43.103813,6341281,1547,466,1114,-1006,-637,-257,118,116,-70
13491,6811,0,2023-03-10T14:07:43.108271,6341286,1547,466,1114,-1006,-637,-257,118,116,-70
13492,6812,0,2023-03-10T14:07:43.113419,6341292,1556,463,1125,-987,-627,-243,118,116,-70
13493,6813,0,2023-03-10T14:07:43.118079,6341296,1556,463,1125,-987,-627,-243,118,116,-70
13494,6814,0,2023-03-10T14:07:43.122412,6341301,1556,463,1125,-987,-627,-243,118,116,-70
13495,6815,0,2023-03-10T14:07:43.126703,6341305,1556,463,1125,-987,-627,-243,118,116,-70
13496,6816,0,2023-03-10T14:07:43.131035,6341309,1556,463,1125,-987,-627,-243,118,116,-70
13497,6817,0,2023-03-10T14:07:43.135507,6341313,1545,463,1110,-1007,-623,-265,118,116,-70
13498,6818,0,2023-03-10T14:07:43.140571,6341318,1545,463,1110,-1007,-623,-265,118,116,-70
13499,6819,0,2023-03-10T14:07:43.145287,6341323,1545,463,1110,-1007,-623,-265,118,116,-70
13500,6820,0,2023-03-10T14:07:43.149861,6341328,1545,463,1110,-1007,-623,-265,118,116,-70
13501,6821,0,2023-03-10T14:07:43.154250,6341332,1546,461,1125,-1027,-621,-281,118,116,-70
13502,6822,0,2023-03-10T14:07:43.159717,6341338,1546,461,1125,-1027,-621,-281,118,116,-70
13503,6823,0,2023-03-10T14:07:43.164090,6341342,1546,461,1125,-1027,-621,-281,118,116,-70
13504,6824,0,2023-03-10T14:07:43.168290,6341347,1546,461,1125,-1027,-621,-281,118,116,-70
13505,6825,0,2023-03-10T14:07:43.172766,6341351,1542,460,1123,-1005,-639,-276,118,116,-70
13506,6826,0,2023-03-10T14:07:43.178327,6341356,1542,460,1123,-1005,-639,-276,127,121,-83
13507,6827,0,2023-03-10T14:07:43.182817,6341361,1542,460,1123,-1005,-639,-276,127,121,-83
13508,6828,0,2023-03-10T14:07:43.187195,6341365,1542,460,1123,-1005,-639,-276,127,121,-83
13509,6829,0,2023-03-10T14:07:43.192086,6341370,1542,460,1123,-1005,-639,-276,127,121,-83
13510,6830,0,2023-03-10T14:07:43.197187,6341376,1564,471,1124,-1021,-627,-279,127,121,-83
13511,6831,0,2023-03-10T14:07:43.202563,6341381,1564,471,1124,-1021,-627,-279,127,121,-83
13512,6832,0,2023-03-10T14:07:43.207178,6341385,1564,471,1124,-1021,-627,-279,127,121,-83
13513,6833,0,2023-03-10T14:07:43.212078,6341390,1564,471,1124,-1021,-627,-279,127,121,-83
13514,6834,0,2023-03-10T14:07:43.216749,6341395,1540,457,1115,-992,-627,-232,127,121,-83
13515,6835,0,2023-03-10T14:07:43.221623,6341400,1540,457,1115,-992,-627,-232,127,121,-83
13516,6836,0,2023-03-10T14:07:43.226020,6341404,1540,457,1115,-992,-627,-232,127,121,-83
13517,6837,0,2023-03-10T14:07:43.230697,6341408,1540,457,1115,-992,-627,-232,127,121,-83
13518,6838,0,2023-03-10T14:07:43.235297,6341413,1546,463,1118,-1021,-604,-278,127,121,-83
13519,6839,0,2023-03-10T14:07:43.240675,6341419,1546,463,1118,-1021,-604,-278,127,121,-83
13520,6840,0,2023-03-10T14:07:43.245118,6341423,1546,463,1118,-1021,-604,-278,127,121,-83
13521,6841,0,2023-03-10T14:07:43.249576,6341428,1546,463,1118,-1021,-604,-278,127,121,-83
13522,6842,0,2023-03-10T14:07:43.254062,6341432,1556,459,1122,-1024,-667,-269,127,121,-83
13523,6843,0,2023-03-10T14:07:43.259109,6341437,1556,459,1122,-1024,-667,-269,127,121,-83
13524,6844,0,2023-03-10T14:07:43.263710,6341442,1556,459,1122,-1024,-667,-269,127,121,-83
13525,6845,0,2023-03-10T14:07:43.268270,6341446,1556,459,1122,-1024,-667,-269,127,121,-83
13526,6846,0,2023-03-10T14:07:43.272618,6341451,1556,459,1122,-1024,-667,-269,127,121,-83
13527,6847,0,2023-03-10T14:07:43.277564,6341455,1543,463,1108,-1016,-612,-255,127,121,-83
13528,6848,0,2023-03-10T14:07:43.281818,6341459,1543,463,1108,-1016,-612,-255,127,121,-83
13529,6849,0,2023-03-10T14:07:43.286450,6341465,1543,463,1108,-1016,-612,-255,127,121,-83
13530,6850,0,2023-03-10T14:07:43.291042,6341469,1543,463,1108,-1016,-612,-255,127,121,-83
13531,6851,0,2023-03-10T14:07:43.295610,6341474,1559,471,1118,-1010,-641,-263,115,123,-73
13532,6852,0,2023-03-10T14:07:43.301345,6341479,1559,471,1118,-1010,-641,-263,115,123,-73
13533,6853,0,2023-03-10T14:07:43.305868,6341484,1559,471,1118,-1010,-641,-263,115,123,-73
13534,6854,0,2023-03-10T14:07:43.310187,6341488,1559,471,1118,-1010,-641,-263,115,123,-73
13535,6855,0,2023-03-10T14:07:43.314721,6341492,1530,455,1129,-996,-621,-227,115,123,-73
13536,6856,0,2023-03-10T14:07:43.319977,6341498,1530,455,1129,-996,-621,-227,115,123,-73
13537,6857,0,2023-03-10T14:07:43.324353,6341502,1530,455,1129,-996,-621,-227,115,123,-73
13538,6858,0,2023-03-10T14:07:43.328734,6341507,1530,455,1129,-996,-621,-227,115,123,-73
13539,6859,0,2023-03-10T14:07:43.333083,6341511,1545,465,1122,-1019,-623,-273,115,123,-73
13540,6860,0,2023-03-10T14:07:43.338484,6341517,1545,465,1122,-1019,-623,-273,115,123,-73
13541,6861,0,2023-03-10T14:07:43.343032,6341521,1545,465,1122,-1019,-623,-273,115,123,-73
13542,6862,0,2023-03-10T14:07:43.347354,6341525,1545,465,1122,-1019,-623,-273,115,123,-73
13543,6863,0,2023-03-10T14:07:43.351883,6341530,1545,465,1122,-1019,-623,-273,115,123,-73
13544,6864,0,2023-03-10T14:07:43.356681,6341534,1570,470,1122,-1017,-641,-271,115,123,-73
13545,6865,0,2023-03-10T14:07:43.361888,6341540,1570,470,1122,-1017,-641,-271,115,123,-73
13546,6866,0,2023-03-10T14:07:43.366306,6341544,1570,470,1122,-1017,-641,-271,115,123,-73
13547,6867,0,2023-03-10T14:07:43.370716,6341549,1570,470,1122,-1017,-641,-271,115,123,-73
13548,6868,0,2023-03-10T14:07:43.375004,6341553,1541,459,1104,-1011,-629,-255,115,123,-73
13549,6869,0,2023-03-10T14:07:43.380312,6341559,1541,459,1104,-1011,-629,-255,115,123,-73
13550,6870,0,2023-03-10T14:07:43.384815,6341563,1541,459,1104,-1011,-629,-255,115,123,-73
13551,6871,0,2023-03-10T14:07:43.389306,6341567,1541,459,1104,-1011,-629,-255,115,123,-73
13552,6872,0,2023-03-10T14:07:43.394480,6341572,1544,458,1111,-1005,-627,-266,115,123,-73
13553,6873,0,2023-03-10T14:07:43.400182,6341578,1544,458,1111,-1005,-627,-266,115,123,-73
13554,6874,0,2023-03-10T14:07:43.404846,6341582,1544,458,1111,-1005,-627,-266,115,123,-73
13555,6875,0,2023-03-10T14:07:43.409348,6341587,1544,458,1111,-1005,-627,-266,115,123,-73
13556,6876,0,2023-03-10T14:07:43.414047,6341592,1561,469,1125,-1011,-603,-272,116,120,-70
13557,6877,0,2023-03-10T14:07:43.419227,6341598,1561,469,1125,-1011,-603,-272,116,120,-70
13558,6878,0,2023-03-10T14:07:43.423653,6341602,1561,469,1125,-1011,-603,-272,116,120,-70
13559,6879,0,2023-03-10T14:07:43.428050,6341606,1561,469,1125,-1011,-603,-272,116,120,-70
13560,6880,0,2023-03-10T14:07:43.432651,6341611,1561,469,1125,-1011,-603,-272,116,120,-70
13561,6881,0,2023-03-10T14:07:43.437470,6341615,1550,463,1115,-1016,-643,-261,116,120,-70
13562,6882,0,2023-03-10T14:07:43.442321,6341620,1550,463,1115,-1016,-643,-261,116,120,-70
13563,6883,0,2023-03-10T14:07:43.446877,6341624,1550,463,1115,-1016,-643,-261,116,120,-70
13564,6884,0,2023-03-10T14:07:43.451020,6341629,1550,463,1115,-1016,-643,-261,116,120,-70
13565,6885,0,2023-03-10T14:07:43.455340,6341634,1555,467,1115,-1020,-622,-267,116,120,-70
13566,6886,0,2023-03-10T14:07:43.460926,6341639,1555,467,1115,-1020,-622,-267,116,120,-70
13567,6887,0,2023-03-10T14:07:43.465311,6341644,1555,467,1115,-1020,-622,-267,116,120,-70
13568,6888,0,2023-03-10T14:07:43.469722,6341648,1555,467,1115,-1020,-622,-267,116,120,-70
13569,6889,0,2023-03-10T14:07:43.474096,6341652,1532,449,1123,-996,-629,-222,116,120,-70
13570,6890,0,2023-03-10T14:07:43.479289,6341657,1532,449,1123,-996,-629,-222,116,120,-70
13571,6891,0,2023-03-10T14:07:43.483498,6341661,1532,449,1123,-996,-629,-222,116,120,-70
13572,6892,0,2023-03-10T14:07:43.487878,6341666,1532,449,1123,-996,-629,-222,116,120,-70
13573,6893,0,2023-03-10T14:07:43.492198,6341670,1532,449,1123,-996,-629,-222,116,120,-70
13574,6894,0,2023-03-10T14:07:43.496898,6341675,1559,467,1128,-993,-639,-261,116,120,-70
13575,6895,0,2023-03-10T14:07:43.501748,6341680,1559,467,1128,-993,-639,-261,116,120,-70
13576,6896,0,2023-03-10T14:07:43.506033,6341684,1559,467,1128,-993,-639,-261,116,120,-70
13577,6897,0,2023-03-10T14:07:43.510854,6341689,1559,467,1128,-993,-639,-261,116,120,-70
13578,6898,0,2023-03-10T14:07:43.515312,6341693,1563,467,1115,-1021,-651,-269,116,120,-70
13579,6899,0,2023-03-10T14:07:43.520685,6341699,1563,467,1115,-1021,-651,-269,116,120,-70
13580,6900,0,2023-03-10T14:07:43.525294,6341703,1563,467,1115,-1021,-651,-269,116,120,-70
13581,6901,0,2023-03-10T14:07:43.529691,6341707,1563,467,1115,-1021,-651,-269,116,120,-70
13582,6902,0,2023-03-10T14:07:43.534135,6341712,1547,463,1106,-1017,-629,-263,116,120,-70
13583,6903,0,2023-03-10T14:07:43.539632,6341718,1547,463,1106,-1017,-629,-263,116,120,-70
13584,6904,0,2023-03-10T14:07:43.544031,6341722,1547,463,1106,-1017,-629,-263,116,120,-70
13585,6905,0,2023-03-10T14:07:43.548347,6341727,1547,463,1106,-1017,-629,-263,116,120,-70
13586,6906,0,2023-03-10T14:07:43.552744,6341731,1547,463,1106,-1017,-629,-263,116,120,-70
13587,6907,0,2023-03-10T14:07:43.557774,6341736,1554,465,1126,-1015,-602,-272,123,123,-73
13588,6908,0,2023-03-10T14:07:43.562595,6341741,1554,465,1126,-1015,-602,-272,123,123,-73
13589,6909,0,2023-03-10T14:07:43.567250,6341745,1554,465,1126,-1015,-602,-272,123,123,-73
13590,6910,0,2023-03-10T14:07:43.571628,6341749,1554,465,1126,-1015,-602,-272,123,123,-73
13591,6911,0,2023-03-10T14:07:43.576049,6341754,1545,463,1119,-997,-635,-265,123,123,-73
13592,6912,0,2023-03-10T14:07:43.581304,6341760,1545,463,1119,-997,-635,-265,123,123,-73
13593,6913,0,2023-03-10T14:07:43.585770,6341764,1545,463,1119,-997,-635,-265,123,123,-73
13594,6914,0,2023-03-10T14:07:43.590424,6341769,1545,463,1119,-997,-635,-265,123,123,-73
13595,6915,0,2023-03-10T14:07:43.595088,6341773,1564,467,1118,-1011,-634,-283,123,123,-73
13596,6916,0,2023-03-10T14:07:43.600370,6341778,1564,467,1118,-1011,-634,-283,123,123,-73
13597,6917,0,2023-03-10T14:07:43.604707,6341783,1564,467,1118,-1011,-634,-283,123,123,-73
13598,6918,0,2023-03-10T14:07:43.609162,6341787,1564,467,1118,-1011,-634,-283,123,123,-73
13599,6919,0,2023-03-10T14:07:43.613718,6341791,1550,458,1108,-1011,-630,-264,123,123,-73
13600,6920,0,2023-03-10T14:07:43.619223,6341797,1550,458,1108,-1011,-630,-264,123,123,-73
13601,6921,0,2023-03-10T14:07:43.623763,6341801,1550,458,1108,-1011,-630,-264,123,123,-73
13602,6922,0,2023-03-10T14:07:43.628214,6341807,1550,458,1108,-1011,-630,-264,123,123,-73
13603,6923,0,2023-03-10T14:07:43.632526,6341811,1550,458,1108,-1011,-630,-264,123,123,-73
13604,6924,0,2023-03-10T14:07:43.637497,6341816,1547,459,1104,-1005,-628,-248,123,123,-73
13605,6925,0,2023-03-10T14:07:43.642864,6341821,1547,459,1104,-1005,-628,-248,123,123,-73
13606,6926,0,2023-03-10T14:07:43.647483,6341825,1547,459,1104,-1005,-628,-248,123,123,-73
13607,6927,0,2023-03-10T14:07:43.651974,6341830,1547,459,1104,-1005,-628,-248,123,123,-73
13608,6928,0,2023-03-10T14:07:43.656785,6341834,1554,464,1122,-974,-611,-237,123,123,-73
13609,6929,0,2023-03-10T14:07:43.661740,6341839,1554,464,1122,-974,-611,-237,123,123,-73
13610,6930,0,2023-03-10T14:07:43.666121,6341844,1554,464,1122,-974,-611,-237,123,123,-73
13611,6931,0,2023-03-10T14:07:43.670791,6341849,1554,464,1122,-974,-611,-237,123,123,-73
13612,6932,0,2023-03-10T14:07:43.675355,6341854,1569,470,1116,-1003,-661,-287,129,125,-83
13613,6933,0,2023-03-10T14:07:43.680263,6341858,1569,470,1116,-1003,-661,-287,129,125,-83
13614,6934,0,2023-03-10T14:07:43.684906,6341863,1569,470,1116,-1003,-661,-287,129,125,-83
13615,6935,0,2023-03-10T14:07:43.689357,6341867,1569,470,1116,-1003,-661,-287,129,125,-83
13616,6936,0,2023-03-10T14:07:43.694450,6341872,1541,462,1096,-1016,-660,-263,129,125,-83
13617,6937,0,2023-03-10T14:07:43.699635,6341877,1541,462,1096,-1016,-660,-263,129,125,-83
13618,6938,0,2023-03-10T14:07:43.704131,6341882,1541,462,1096,-1016,-660,-263,129,125,-83
13619,6939,0,2023-03-10T14:07:43.708400,6341886,1541,462,1096,-1016,-660,-263,129,125,-83
13620,6940,0,2023-03-10T14:07:43.713118,6341891,1541,462,1096,-1016,-660,-263,129,125,-83
13621,6941,0,2023-03-10T14:07:43.718289,6341897,1550,461,1123,-1006,-584,-276,129,125,-83
13622,6942,0,2023-03-10T14:07:43.723297,6341901,1550,461,1123,-1006,-584,-276,129,125,-83
13623,6943,0,2023-03-10T14:07:43.727973,6341906,1550,461,1123,-1006,-584,-276,129,125,-83
13624,6944,0,2023-03-10T14:07:43.732463,6341910,1550,461,1123,-1006,-584,-276,129,125,-83
13625,6945,0,2023-03-10T14:07:43.738098,6341916,1561,469,1122,-1017,-618,-282,129,125,-83
13626,6946,0,2023-03-10T14:07:43.743021,6341921,1561,469,1122,-1017,-618,-282,129,125,-83
13627,6947,0,2023-03-10T14:07:43.748275,6341925,1561,469,1122,-1017,-618,-282,129,125,-83
13628,6948,0,2023-03-10T14:07:43.752627,6341931,1561,469,1122,-1017,-618,-282,129,125,-83
13629,6949,0,2023-03-10T14:07:43.757180,6341935,1553,463,1116,-1013,-641,-267,129,125,-83
13630,6950,0,2023-03-10T14:07:43.762252,6341941,1553,463,1116,-1013,-641,-267,129,125,-83
13631,6951,0,2023-03-10T14:07:43.766663,6341945,1553,463,1116,-1013,-641,-267,129,125,-83
13632,6952,0,2023-03-10T14:07:43.771360,6341949,1553,463,1116,-1013,-641,-267,129,125,-83
13633,6953,0,2023-03-10T14:07:43.775668,6341954,1557,470,1115,-1003,-617,-268,129,125,-83
13634,6954,0,2023-03-10T14:07:43.780582,6341958,1557,470,1115,-1003,-617,-268,129,125,-83
13635,6955,0,2023-03-10T14:07:43.785119,6341963,1557,470,1115,-1003,-617,-268,129,125,-83
13636,6956,0,2023-03-10T14:07:43.789397,6341967,1557,470,1115,-1003,-617,-268,129,125,-83
13637,6957,0,2023-03-10T14:07:43.793881,6341971,1547,457,1111,-1000,-621,-254,129,125,-83
13638,6958,0,2023-03-10T14:07:43.799151,6341978,1547,457,1111,-1000,-621,-254,129,125,-83
13639,6959,0,2023-03-10T14:07:43.803663,6341982,1547,457,1111,-1000,-621,-254,129,125,-83
13640,6960,0,2023-03-10T14:07:43.807982,6341986,1547,457,1111,-1000,-621,-254,129,125,-83
13641,6961,0,2023-03-10T14:07:43.812591,6341991,1547,457,1111,-1000,-621,-254,129,125,-83
13642,6962,0,2023-03-10T14:07:43.817239,6341995,1562,472,1125,-995,-670,-268,123,125,-71
13643,6963,0,2023-03-10T14:07:43.822168,6342000,1562,472,1125,-995,-670,-268,123,125,-71
13644,6964,0,2023-03-10T14:07:43.826826,6342004,1562,472,1125,-995,-670,-268,123,125,-71
13645,6965,0,2023-03-10T14:07:43.831295,6342009,1562,472,1125,-995,-670,-268,123,125,-71
13646,6966,0,2023-03-10T14:07:43.835904,6342013,1555,464,1117,-1015,-612,-250,123,125,-71
13647,6967,0,2023-03-10T14:07:43.841399,6342020,1555,464,1117,-1015,-612,-250,123,125,-71
13648,6968,0,2023-03-10T14:07:43.846227,6342024,1555,464,1117,-1015,-612,-250,123,125,-71
13649,6969,0,2023-03-10T14:07:43.850656,6342029,1555,464,1117,-1015,-612,-250,123,125,-71
13650,6970,0,2023-03-10T14:07:43.854930,6342033,1570,475,1115,-1002,-676,-288,123,125,-71
13651,6971,0,2023-03-10T14:07:43.860270,6342038,1570,475,1115,-1002,-676,-288,123,125,-71
13652,6972,0,2023-03-10T14:07:43.864664,6342043,1570,475,1115,-1002,-676,-288,123,125,-71
13653,6973,0,2023-03-10T14:07:43.869291,6342047,1570,475,1115,-1002,-676,-288,123,125,-71
13654,6974,0,2023-03-10T14:07:43.873861,6342052,1543,457,1112,-1013,-645,-254,123,125,-71
13655,6975,0,2023-03-10T14:07:43.879296,6342057,1543,457,1112,-1013,-645,-254,123,125,-71
13656,6976,0,2023-03-10T14:07:43.884058,6342062,1543,457,1112,-1013,-645,-254,123,125,-71
13657,6977,0,2023-03-10T14:07:43.888314,6342067,1543,457,1112,-1013,-645,-254,123,125,-71
13658,6978,0,2023-03-10T14:07:43.893107,6342071,1543,457,1112,-1013,-645,-254,123,125,-71
13659,6979,0,2023-03-10T14:07:43.898060,6342076,1554,468,1111,-1014,-585,-280,123,125,-71
13660,6980,0,2023-03-10T14:07:43.902620,6342081,1554,468,1111,-1014,-585,-280,123,125,-71
13661,6981,0,2023-03-10T14:07:43.907264,6342085,1554,468,1111,-1014,-585,-280,123,125,-71
13662,6982,0,2023-03-10T14:07:43.911786,6342090,1554,468,1111,-1014,-585,-280,123,125,-71
13663,6983,0,2023-03-10T14:07:43.916305,6342094,1569,470,1125,-1004,-622,-276,123,125,-71
13664,6984,0,2023-03-10T14:07:43.921724,6342099,1569,470,1125,-1004,-622,-276,123,125,-71
13665,6985,0,2023-03-10T14:07:43.926113,6342105,1569,470,1125,-1004,-622,-276,123,125,-71
13666,6986,0,2023-03-10T14:07:43.931168,6342110,1569,470,1125,-1004,-622,-276,123,125,-71
13667,6987,0,2023-03-10T14:07:43.935839,6342114,1550,465,1105,-1013,-626,-254,120,118,-82
13668,6988,0,2023-03-10T14:07:43.941063,6342119,1550,465,1105,-1013,-626,-254,120,118,-82
13669,6989,0,2023-03-10T14:07:43.945318,6342123,1550,465,1105,-1013,-626,-254,120,118,-82
13670,6990,0,2023-03-10T14:07:43.949821,6342128,1550,465,1105,-1013,-626,-254,120,118,-82
13671,6991,0,2023-03-10T14:07:43.954366,6342132,1560,463,1114,-1012,-623,-259,120,118,-82
13672,6992,0,2023-03-10T14:07:43.959686,6342137,1560,463,1114,-1012,-623,-259,120,118,-82
13673,6993,0,2023-03-10T14:07:43.964314,6342142,1560,463,1114,-1012,-623,-259,120,118,-82
13674,6994,0,2023-03-10T14:07:43.968820,6342147,1560,463,1114,-1012,-623,-259,120,118,-82
13675,6995,0,2023-03-10T14:07:43.973358,6342152,1560,463,1114,-1012,-623,-259,120,118,-82
13676,6996,0,2023-03-10T14:07:43.978452,6342157,1553,467,1113,-1000,-656,-263,120,118,-82
13677,6997,0,2023-03-10T14:07:43.983152,6342161,1553,467,1113,-1000,-656,-263,120,118,-82
13678,6998,0,2023-03-10T14:07:43.987549,6342166,1553,467,1113,-1000,-656,-263,120,118,-82
13679,6999,0,2023-03-10T14:07:43.992267,6342170,1553,467,1113,-1000,-656,-263,120,118,-82
13680,7000,0,2023-03-10T14:07:43.997409,6342175,1558,466,1113,-1019,-622,-260,120,118,-82
13681,7001,0,2023-03-10T14:07:44.002448,6342180,1558,466,1113,-1019,-622,-260,120,118,-82
13682,7002,0,2023-03-10T14:07:44.007166,6342185,1558,466,1113,-1019,-622,-260,120,118,-82
13683,7003,0,2023-03-10T14:07:44.011464,6342190,1558,466,1113,-1019,-622,-260,120,118,-82
13684,7004,0,2023-03-10T14:07:44.016236,6342194,1556,470,1115,-1010,-648,-269,120,118,-82
13685,7005,0,2023-03-10T14:07:44.021539,6342200,1556,470,1115,-1010,-648,-269,120,118,-82
13686,7006,0,2023-03-10T14:07:44.025895,6342204,1556,470,1115,-1010,-648,-269,120,118,-82
13687,7007,0,2023-03-10T14:07:44.030360,6342208,1556,470,1115,-1010,-648,-269,120,118,-82
13688,7008,0,2023-03-10T14:07:44.035430,6342213,1541,457,1112,-1026,-621,-258,120,118,-82
13689,7009,0,2023-03-10T14:07:44.040410,6342218,1541,457,1112,-1026,-621,-258,120,118,-82
13690,7010,0,2023-03-10T14:07:44.044937,6342223,1541,457,1112,-1026,-621,-258,120,118,-82
13691,7011,0,2023-03-10T14:07:44.049332,6342227,1541,457,1112,-1026,-621,-258,120,118,-82
13692,7012,0,2023-03-10T14:07:44.054558,6342233,1561,465,1119,-1003,-627,-269,126,130,-78
13693,7013,0,2023-03-10T14:07:44.059952,6342238,1561,465,1119,-1003,-627,-269,126,130,-78
13694,7014,0,2023-03-10T14:07:44.064330,6342243,1561,465,1119,-1003,-627,-269,126,130,-78
13695,7015,0,2023-03-10T14:07:44.068905,6342247,1561,465,1119,-1003,-627,-269,126,130,-78
13696,7016,0,2023-03-10T14:07:44.074099,6342252,1573,466,1116,-1009,-631,-271,126,130,-78
13697,7017,0,2023-03-10T14:07:44.079527,6342257,1573,466,1116,-1009,-631,-271,126,130,-78
13698,7018,0,2023-03-10T14:07:44.084016,6342262,1573,466,1116,-1009,-631,-271,126,130,-78
13699,7019,0,2023-03-10T14:07:44.088297,6342266,1573,466,1116,-1009,-631,-271,126,130,-78
13700,7020,0,2023-03-10T14:07:44.092939,6342270,1573,466,1116,-1009,-631,-271,126,130,-78
13701,7021,0,2023-03-10T14:07:44.098135,6342277,1551,457,1100,-1008,-630,-248,126,130,-78
13702,7022,0,2023-03-10T14:07:44.103356,6342281,1551,457,1100,-1008,-630,-248,126,130,-78
13703,7023,0,2023-03-10T14:07:44.108248,6342286,1551,457,1100,-1008,-630,-248,126,130,-78
13704,7024,0,2023-03-10T14:07:44.112565,6342291,1551,457,1100,-1008,-630,-248,126,130,-78
13705,7025,0,2023-03-10T14:07:44.117310,6342295,1560,465,1115,-1004,-620,-268,126,130,-78
13706,7026,0,2023-03-10T14:07:44.122422,6342300,1560,465,1115,-1004,-620,-268,126,130,-78
13707,7027,0,2023-03-10T14:07:44.127578,6342305,1560,465,1115,-1004,-620,-268,126,130,-78
13708,7028,0,2023-03-10T14:07:44.132032,6342310,1560,465,1115,-1004,-620,-268,126,130,-78
13709,7029,0,2023-03-10T14:07:44.136619,6342315,1561,459,1114,-992,-625,-237,126,130,-78
13710,7030,0,2023-03-10T14:07:44.141407,6342320,1561,459,1114,-992,-625,-237,126,130,-78
13711,7031,0,2023-03-10T14:07:44.146192,6342325,1561,459,1114,-992,-625,-237,126,130,-78
13712,7032,0,2023-03-10T14:07:44.150713,6342329,1561,459,1114,-992,-625,-237,126,130,-78
13713,7033,0,2023-03-10T14:07:44.155003,6342333,1574,465,1117,-997,-663,-271,126,130,-78
13714,7034,0,2023-03-10T14:07:44.160393,6342338,1574,465,1117,-997,-663,-271,126,130,-78
13715,7035,0,2023-03-10T14:07:44.164878,6342343,1574,465,1117,-997,-663,-271,126,130,-78
13716,7036,0,2023-03-10T14:07:44.169226,6342347,1574,465,1117,-997,-663,-271,126,130,-78
13717,7037,0,2023-03-10T14:07:44.173796,6342351,1574,465,1117,-997,-663,-271,126,130,-78
13718,7038,0,2023-03-10T14:07:44.178304,6342356,1545,458,1089,-1040,-662,-253,126,130,-78
13719,7039,0,2023-03-10T14:07:44.183133,6342362,1545,458,1089,-1040,-662,-253,126,130,-78
13720,7040,0,2023-03-10T14:07:44.187422,6342366,1545,458,1089,-1040,-662,-253,126,130,-78
13721,7041,0,2023-03-10T14:07:44.192052,6342370,1545,458,1089,-1040,-662,-253,126,130,-78
13722,7042,0,2023-03-10T14:07:44.197015,6342375,1558,458,1120,-1008,-591,-272,121,117,-81
13723,7043,0,2023-03-10T14:07:44.202166,6342380,1558,458,1120,-1008,-591,-272,121,117,-81
13724,7044,0,2023-03-10T14:07:44.206899,6342385,1558,458,1120,-1008,-591,-272,121,117,-81
13725,7045,0,2023-03-10T14:07:44.211250,6342389,1558,458,1120,-1008,-591,-272,121,117,-81
13726,7046,0,2023-03-10T14:07:44.215782,6342393,1569,467,1115,-1015,-622,-284,121,117,-81
13727,7047,0,2023-03-10T14:07:44.221209,6342400,1569,467,1115,-1015,-622,-284,121,117,-81
13728,7048,0,2023-03-10T14:07:44.225755,6342404,1569,467,1115,-1015,-622,-284,121,117,-81
13729,7049,0,2023-03-10T14:07:44.230064,6342408,1569,467,1115,-1015,-622,-284,121,117,-81
13730,7050,0,2023-03-10T14:07:44.234354,6342413,1554,457,1115,-1009,-627,-234,121,117,-81
13731,7051,0,2023-03-10T14:07:44.240103,6342418,1554,457,1115,-1009,-627,-234,121,117,-81
13732,7052,0,2023-03-10T14:07:44.244595,6342423,1554,457,1115,-1009,-627,-234,121,117,-81
13733,7053,0,2023-03-10T14:07:44.249080,6342427,1554,457,1115,-1009,-627,-234,121,117,-81
13734,7054,0,2023-03-10T14:07:44.253507,6342431,1554,457,1115,-1009,-627,-234,121,117,-81
13735,7055,0,2023-03-10T14:07:44.258304,6342436,1562,461,1109,-1030,-618,-282,121,117,-81
13736,7056,0,2023-03-10T14:07:44.263108,6342441,1562,461,1109,-1030,-618,-282,121,117,-81
13737,7057,0,2023-03-10T14:07:44.267539,6342446,1562,461,1109,-1030,-618,-282,121,117,-81
13738,7058,0,2023-03-10T14:07:44.272914,6342451,1562,461,1109,-1030,-618,-282,121,117,-81
13739,7059,0,2023-03-10T14:07:44.277306,6342456,1559,464,1094,-1017,-655,-252,121,117,-81
13740,7060,0,2023-03-10T14:07:44.282551,6342461,1559,464,1094,-1017,-655,-252,121,117,-81
13741,7061,0,2023-03-10T14:07:44.287040,6342465,1559,464,1094,-1017,-655,-252,121,117,-81
13742,7062,0,2023-03-10T14:07:44.291472,6342469,1559,464,1094,-1017,-655,-252,121,117,-81
13743,7063,0,2023-03-10T14:07:44.296053,6342474,1564,461,1122,-972,-597,-236,121,117,-81
13744,7064,0,2023-03-10T14:07:44.301167,6342479,1564,461,1122,-972,-597,-236,121,117,-81
13745,7065,0,2023-03-10T14:07:44.305661,6342483,1564,461,1122,-972,-597,-236,121,117,-81
13746,7066,0,2023-03-10T14:07:44.310103,6342489,1564,461,1122,-972,-597,-236,121,117,-81
13747,7067,0,2023-03-10T14:07:44.314587,6342493,1552,460,1102,-1018,-658,-269,125,123,-85
13748,7068,0,2023-03-10T14:07:44.320145,6342498,1552,460,1102,-1018,-658,-269,125,123,-85
13749,7069,0,2023-03-10T14:07:44.324470,6342503,1552,460,1102,-1018,-658,-269,125,123,-85
13750,7070,0,2023-03-10T14:07:44.329005,6342507,1552,460,1102,-1018,-658,-269,125,123,-85
13751,7071,0,2023-03-10T14:07:44.333548,6342511,1552,460,1102,-1018,-658,-269,125,123,-85
13752,7072,0,2023-03-10T14:07:44.338711,6342516,1577,462,1115,-1015,-622,-285,125,123,-85
13753,7073,0,2023-03-10T14:07:44.343472,6342521,1577,462,1115,-1015,-622,-285,125,123,-85
13754,7074,0,2023-03-10T14:07:44.348017,6342526,1577,462,1115,-1015,-622,-285,125,123,-85
13755,7075,0,2023-03-10T14:07:44.352401,6342531,1577,462,1115,-1015,-622,-285,125,123,-85
13756,7076,0,2023-03-10T14:07:44.357927,6342536,1540,458,1098,-1010,-634,-271,125,123,-85
13757,7077,0,2023-03-10T14:07:44.362934,6342541,1540,458,1098,-1010,-634,-271,125,123,-85
13758,7078,0,2023-03-10T14:07:44.367277,6342546,1540,458,1098,-1010,-634,-271,125,123,-85
13759,7079,0,2023-03-10T14:07:44.371556,6342550,1540,458,1098,-1010,-634,-271,125,123,-85
13760,7080,0,2023-03-10T14:07:44.375980,6342554,1565,467,1116,-1021,-607,-265,125,123,-85
13761,7081,0,2023-03-10T14:07:44.381547,6342559,1565,467,1116,-1021,-607,-265,125,123,-85
13762,7082,0,2023-03-10T14:07:44.386103,6342564,1565,467,1116,-1021,-607,-265,125,123,-85
13763,7083,0,2023-03-10T14:07:44.390380,6342568,1565,467,1116,-1021,-607,-265,125,123,-85
13764,7084,0,2023-03-10T14:07:44.394877,6342573,1553,467,1105,-1008,-650,-268,125,123,-85
13765,7085,0,2023-03-10T14:07:44.400061,6342578,1553,467,1105,-1008,-650,-268,125,123,-85
13766,7086,0,2023-03-10T14:07:44.404697,6342583,1553,467,1105,-1008,-650,-268,125,123,-85
13767,7087,0,2023-03-10T14:07:44.409306,6342588,1553,467,1105,-1008,-650,-268,125,123,-85
13768,7088,0,2023-03-10T14:07:44.413915,6342592,1553,467,1105,-1008,-650,-268,125,123,-85
13769,7089,0,2023-03-10T14:07:44.418780,6342597,1574,461,1107,-1019,-620,-275,125,123,-85
13770,7090,0,2023-03-10T14:07:44.423882,6342602,1574,461,1107,-1019,-620,-275,125,123,-85
13771,7091,0,2023-03-10T14:07:44.428276,6342606,1574,461,1107,-1019,-620,-275,125,123,-85
13772,7092,0,2023-03-10T14:07:44.432774,6342610,1574,461,1107,-1019,-620,-275,125,123,-85
13773,7093,0,2023-03-10T14:07:44.437887,6342616,1543,449,1105,-997,-624,-256,125,123,-85
13774,7094,0,2023-03-10T14:07:44.443163,6342621,1543,449,1105,-997,-624,-256,125,123,-85
13775,7095,0,2023-03-10T14:07:44.447383,6342626,1543,449,1105,-997,-624,-256,125,123,-85
13776,7096,0,2023-03-10T14:07:44.452653,6342631,1543,449,1105,-997,-624,-256,125,123,-85
13777,7097,0,2023-03-10T14:07:44.457899,6342636,1574,468,1111,-1008,-638,-276,120,112,-76
13778,7098,0,2023-03-10T14:07:44.462300,6342640,1574,468,1111,-1008,-638,-276,120,112,-76
13779,7099,0,2023-03-10T14:07:44.467059,6342645,1574,468,1111,-1008,-638,-276,120,112,-76
13780,7100,0,2023-03-10T14:07:44.471400,6342649,1574,468,1111,-1008,-638,-276,120,112,-76
13781,7101,0,2023-03-10T14:07:44.476186,6342654,1573,464,1109,-989,-657,-267,120,112,-76
13782,7102,0,2023-03-10T14:07:44.481322,6342660,1573,464,1109,-989,-657,-267,120,112,-76
13783,7103,0,2023-03-10T14:07:44.485855,6342664,1573,464,1109,-989,-657,-267,120,112,-76
13784,7104,0,2023-03-10T14:07:44.490843,6342669,1573,464,1109,-989,-657,-267,120,112,-76
13785,7105,0,2023-03-10T14:07:44.495332,6342673,1549,462,1099,-1020,-632,-269,120,112,-76
13786,7106,0,2023-03-10T14:07:44.501121,6342679,1549,462,1099,-1020,-632,-269,120,112,-76
13787,7107,0,2023-03-10T14:07:44.505696,6342684,1549,462,1099,-1020,-632,-269,120,112,-76
13788,7108,0,2023-03-10T14:07:44.510109,6342688,1549,462,1099,-1020,-632,-269,120,112,-76
13789,7109,0,2023-03-10T14:07:44.514586,6342692,1560,462,1122,-1002,-595,-242,120,112,-76
13790,7110,0,2023-03-10T14:07:44.518945,6342697,1560,462,1122,-1002,-595,-242,120,112,-76
13791,7111,0,2023-03-10T14:07:44.523299,6342702,1560,462,1122,-1002,-595,-242,120,112,-76
13792,7112,0,2023-03-10T14:07:44.527968,6342706,1560,462,1122,-1002,-595,-242,120,112,-76
13793,7113,0,2023-03-10T14:07:44.532552,6342711,1560,462,1122,-1002,-595,-242,120,112,-76
13794,7114,0,2023-03-10T14:07:44.537555,6342716,1576,469,1113,-1000,-688,-281,120,112,-76
13795,7115,0,2023-03-10T14:07:44.542215,6342720,1576,469,1113,-1000,-688,-281,120,112,-76
13796,7116,0,2023-03-10T14:07:44.546814,6342725,1576,469,1113,-1000,-688,-281,120,112,-76
13797,7117,0,2023-03-10T14:07:44.551207,6342729,1576,469,1113,-1000,-688,-281,120,112,-76
13798,7118,0,2023-03-10T14:07:44.555552,6342733,1560,455,1095,-1036,-644,-259,120,112,-76
13799,7119,0,2023-03-10T14:07:44.560893,6342739,1560,455,1095,-1036,-644,-259,120,112,-76
13800,7120,0,2023-03-10T14:07:44.565387,6342744,1560,455,1095,-1036,-644,-259,120,112,-76
13801,7121,0,2023-03-10T14:07:44.569835,6342748,1560,455,1095,-1036,-644,-259,120,112,-76
13802,7122,0,2023-03-10T14:07:44.574255,6342753,1560,455,1095,-1036,-644,-259,120,112,-76
13803,7123,0,2023-03-10T14:07:44.579154,6342757,1564,464,1111,-995,-589,-276,124,116,-74
13804,7124,0,2023-03-10T14:07:44.584324,6342762,1564,464,1111,-995,-589,-276,124,116,-74
13805,7125,0,2023-03-10T14:07:44.589233,6342767,1564,464,1111,-995,-589,-276,124,116,-74
13806,7126,0,2023-03-10T14:07:44.593730,6342772,1564,464,1111,-995,-589,-276,124,116,-74
13807,7127,0,2023-03-10T14:07:44.598166,6342776,1576,462,1109,-1007,-617,-279,124,116,-74
13808,7128,0,2023-03-10T14:07:44.603050,6342781,1576,462,1109,-1007,-617,-279,124,116,-74
13809,7129,0,2023-03-10T14:07:44.607578,6342786,1576,462,1109,-1007,-617,-279,124,116,-74
13810,7130,0,2023-03-10T14:07:44.612704,6342791,1576,462,1109,-1007,-617,-279,124,116,-74
13811,7131,0,2023-03-10T14:07:44.617792,6342796,1546,456,1093,-997,-640,-256,124,116,-74
13812,7132,0,2023-03-10T14:07:44.623529,6342802,1546,456,1093,-997,-640,-256,124,116,-74
13813,7133,0,2023-03-10T14:07:44.628043,6342806,1546,456,1093,-997,-640,-256,124,116,-74
13814,7134,0,2023-03-10T14:07:44.632716,6342811,1546,456,1093,-997,-640,-256,124,116,-74
13815,7135,0,2023-03-10T14:07:44.637601,6342816,1588,471,1110,-1016,-634,-300,124,116,-74
13816,7136,0,2023-03-10T14:07:44.642679,6342820,1588,471,1110,-1016,-634,-300,124,116,-74
13817,7137,0,2023-03-10T14:07:44.646999,6342825,1588,471,1110,-1016,-634,-300,124,116,-74
13818,7138,0,2023-03-10T14:07:44.651574,6342830,1588,471,1110,-1016,-634,-300,124,116,-74
13819,7139,0,2023-03-10T14:07:44.656123,6342834,1559,455,1099,-1013,-639,-254,124,116,-74
13820,7140,0,2023-03-10T14:07:44.661763,6342840,1559,455,1099,-1013,-639,-254,124,116,-74
13821,7141,0,2023-03-10T14:07:44.666092,6342844,1559,455,1099,-1013,-639,-254,124,116,-74
13822,7142,0,2023-03-10T14:07:44.670497,6342849,1559,455,1099,-1013,-639,-254,124,116,-74
13823,7143,0,2023-03-10T14:07:44.675181,6342853,1559,463,1107,-1012,-601,-279,124,116,-74
13824,7144,0,2023-03-10T14:07:44.680610,6342858,1559,463,1107,-1012,-601,-279,124,116,-74
13825,7145,0,2023-03-10T14:07:44.685054,6342863,1559,463,1107,-1012,-601,-279,124,116,-74
13826,7146,0,2023-03-10T14:07:44.689360,6342867,1559,463,1107,-1012,-601,-279,124,116,-74
13827,7147,0,2023-03-10T14:07:44.694304,6342873,1559,463,1107,-1012,-601,-279,124,116,-74
13828,7148,0,2023-03-10T14:07:44.699280,6342878,1578,461,1113,-1000,-680,-270,124,116,-74
13829,7149,0,2023-03-10T14:07:44.704364,6342883,1578,461,1113,-1000,-680,-270,124,116,-74
13830,7150,0,2023-03-10T14:07:44.708869,6342887,1578,461,1113,-1000,-680,-270,124,116,-74
13831,7151,0,2023-03-10T14:07:44.713309,6342891,1578,461,1113,-1000,-680,-270,124,116,-74
13832,7152,0,2023-03-10T14:07:44.718397,6342896,1562,463,1102,-1013,-623,-273,119,119,-73
13833,7153,0,2023-03-10T14:07:44.723322,6342901,1562,463,1102,-1013,-623,-273,119,119,-73
13834,7154,0,2023-03-10T14:07:44.727916,6342906,1562,463,1102,-1013,-623,-273,119,119,-73
13835,7155,0,2023-03-10T14:07:44.733107,6342912,1562,463,1102,-1013,-623,-273,119,119,-73
13836,7156,0,2023-03-10T14:07:44.738105,6342917,1558,451,1092,-1020,-604,-268,119,119,-73
13837,7157,0,2023-03-10T14:07:44.743135,6342922,1558,451,1092,-1020,-604,-268,119,119,-73
13838,7158,0,2023-03-10T14:07:44.747669,6342926,1558,451,1092,-1020,-604,-268,119,119,-73
13839,7159,0,2023-03-10T14:07:44.752071,6342930,1558,451,1092,-1020,-604,-268,119,119,-73
13840,7160,0,2023-03-10T14:07:44.756453,6342934,1568,464,1106,-1001,-623,-284,119,119,-73
13841,7161,0,2023-03-10T14:07:44.761866,6342940,1568,464,1106,-1001,-623,-284,119,119,-73
13842,7162,0,2023-03-10T14:07:44.766550,6342944,1568,464,1106,-1001,-623,-284,119,119,-73
13843,7163,0,2023-03-10T14:07:44.771013,6342949,1568,464,1106,-1001,-623,-284,119,119,-73
13844,7164,0,2023-03-10T14:07:44.775536,6342953,1562,461,1107,-1019,-619,-254,119,119,-73
13845,7165,0,2023-03-10T14:07:44.780316,6342959,1562,461,1107,-1019,-619,-254,119,119,-73
13846,7166,0,2023-03-10T14:07:44.784880,6342963,1562,461,1107,-1019,-619,-254,119,119,-73
13847,7167,0,2023-03-10T14:07:44.789215,6342968,1562,461,1107,-1019,-619,-254,119,119,-73
13848,7168,0,2023-03-10T14:07:44.793612,6342972,1562,461,1107,-1019,-619,-254,119,119,-73
13849,7169,0,2023-03-10T14:07:44.798556,6342976,1590,473,1105,-1000,-654,-286,119,119,-73
13850,7170,0,2023-03-10T14:07:44.803408,6342981,1590,473,1105,-1000,-654,-286,119,119,-73
13851,7171,0,2023-03-10T14:07:44.807955,6342986,1590,473,1105,-1000,-654,-286,119,119,-73
13852,7172,0,2023-03-10T14:07:44.812606,6342990,1590,473,1105,-1000,-654,-286,119,119,-73
13853,7173,0,2023-03-10T14:07:44.817619,6342995,1548,451,1089,-1006,-660,-212,119,119,-73
13854,7174,0,2023-03-10T14:07:44.822105,6343001,1548,451,1089,-1006,-660,-212,119,119,-73
13855,7175,0,2023-03-10T14:07:44.826334,6343005,1548,451,1089,-1006,-660,-212,119,119,-73
13856,7176,0,2023-03-10T14:07:44.830766,6343009,1548,451,1089,-1006,-660,-212,119,119,-73
13857,7177,0,2023-03-10T14:07:44.835768,6343014,1564,455,1116,-992,-587,-268,125,121,-85
13858,7178,0,2023-03-10T14:07:44.841081,6343019,1564,455,1116,-992,-587,-268,125,121,-85
13859,7179,0,2023-03-10T14:07:44.845640,6343024,1564,455,1116,-992,-587,-268,125,121,-85
13860,7180,0,2023-03-10T14:07:44.850105,6343028,1564,455,1116,-992,-587,-268,125,121,-85
13861,7181,0,2023-03-10T14:07:44.854382,6343032,1564,455,1116,-992,-587,-268,125,121,-85
13862,7182,0,2023-03-10T14:07:44.859238,6343037,1578,461,1105,-1032,-627,-286,125,121,-85
13863,7183,0,2023-03-10T14:07:44.864876,6343043,1578,461,1105,-1032,-627,-286,125,121,-85
13864,7184,0,2023-03-10T14:07:44.869268,6343048,1578,461,1105,-1032,-627,-286,125,121,-85
13865,7185,0,2023-03-10T14:07:44.874104,6343052,1578,461,1105,-1032,-627,-286,125,121,-85
13866,7186,0,2023-03-10T14:07:44.879213,6343057,1576,466,1102,-1005,-641,-270,125,121,-85
13867,7187,0,2023-03-10T14:07:44.884600,6343062,1576,466,1102,-1005,-641,-270,125,121,-85
13868,7188,0,2023-03-10T14:07:44.889070,6343067,1576,466,1102,-1005,-641,-270,125,121,-85
13869,7189,0,2023-03-10T14:07:44.893460,6343071,1576,466,1102,-1005,-641,-270,125,121,-85
13870,7190,0,2023-03-10T14:07:44.898123,6343076,1565,462,1098,-1007,-626,-269,125,121,-85
13871,7191,0,2023-03-10T14:07:44.903316,6343081,1565,462,1098,-1007,-626,-269,125,121,-85
13872,7192,0,2023-03-10T14:07:44.907669,6343086,1565,462,1098,-1007,-626,-269,125,121,-85
13873,7193,0,2023-03-10T14:07:44.912042,6343091,1565,462,1098,-1007,-626,-269,125,121,-85
13874,7194,0,2023-03-10T14:07:44.916592,6343095,1574,460,1107,-1026,-619,-282,125,121,-85
13875,7195,0,2023-03-10T14:07:44.921606,6343100,1574,460,1107,-1026,-619,-282,125,121,-85
13876,7196,0,2023-03-10T14:07:44.925978,6343104,1574,460,1107,-1026,-619,-282,125,121,-85
13877,7197,0,2023-03-10T14:07:44.930507,6343108,1574,460,1107,-1026,-619,-282,125,121,-85
13878,7198,0,2023-03-10T14:07:44.934952,6343113,1574,460,1107,-1026,-619,-282,125,121,-85
13879,7199,0,2023-03-10T14:07:44.940008,6343118,1556,459,1099,-1018,-643,-273,125,121,-85
13880,7200,0,2023-03-10T14:07:44.945135,6343123,1556,459,1099,-1018,-643,-273,125,121,-85
13881,7201,0,2023-03-10T14:07:44.949819,6343128,1556,459,1099,-1018,-643,-273,125,121,-85
13882,7202,0,2023-03-10T14:07:44.955270,6343133,1556,459,1099,-1018,-643,-273,125,121,-85
13883,7203,0,2023-03-10T14:07:44.960104,6343139,1591,470,1103,-1014,-623,-281,118,122,-90
13884,7204,0,2023-03-10T14:07:44.965508,6343143,1591,470,1103,-1014,-623,-281,118,122,-90
13885,7205,0,2023-03-10T14:07:44.970543,6343149,1591,470,1103,-1014,-623,-281,118,122,-90
13886,7206,0,2023-03-10T14:07:44.975131,6343153,1554,456,1094,-984,-631,-232,118,122,-90
13887,7207,0,2023-03-10T14:07:44.980894,6343158,1554,456,1094,-984,-631,-232,118,122,-90
13888,7208,0,2023-03-10T14:07:44.985230,6343163,1554,456,1094,-984,-631,-232,118,122,-90
13889,7209,0,2023-03-10T14:07:44.989744,6343168,1554,456,1094,-984,-631,-232,118,122,-90
13890,7210,0,2023-03-10T14:07:44.994284,6343173,1554,456,1094,-984,-631,-232,118,122,-90
13891,7211,0,2023-03-10T14:07:44.999612,6343178,1567,457,1097,-1035,-614,-280,118,122,-90
13892,7212,0,2023-03-10T14:07:45.004714,6343183,1567,457,1097,-1035,-614,-280,118,122,-90
13893,7213,0,2023-03-10T14:07:45.009163,6343187,1567,457,1097,-1035,-614,-280,118,122,-90
13894,7214,0,2023-03-10T14:07:45.013714,6343192,1567,457,1097,-1035,-614,-280,118,122,-90
13895,7215,0,2023-03-10T14:07:45.018471,6343196,1586,464,1104,-1005,-691,-284,118,122,-90
13896,7216,0,2023-03-10T14:07:45.023528,6343201,1586,464,1104,-1005,-691,-284,118,122,-90
13897,7217,0,2023-03-10T14:07:45.028180,6343206,1586,464,1104,-1005,-691,-284,118,122,-90
13898,7218,0,2023-03-10T14:07:45.032820,6343211,1586,464,1104,-1005,-691,-284,118,122,-90
13899,7219,0,2023-03-10T14:07:45.037975,6343216,1565,461,1092,-1016,-619,-268,118,122,-90
13900,7220,0,2023-03-10T14:07:45.043060,6343221,1565,461,1092,-1016,-619,-268,118,122,-90
13901,7221,0,2023-03-10T14:07:45.047354,6343226,1565,461,1092,-1016,-619,-268,118,122,-90
13902,7222,0,2023-03-10T14:07:45.052317,6343230,1565,461,1092,-1016,-619,-268,118,122,-90
13903,7223,0,2023-03-10T14:07:45.056771,6343235,1569,459,1103,-1005,-588,-259,118,122,-90
13904,7224,0,2023-03-10T14:07:45.062287,6343240,1569,459,1103,-1005,-588,-259,118,122,-90
13905,7225,0,2023-03-10T14:07:45.066765,6343244,1569,459,1103,-1005,-588,-259,118,122,-90
13906,7226,0,2023-03-10T14:07:45.070956,6343249,1569,459,1103,-1005,-588,-259,118,122,-90
13907,7227,0,2023-03-10T14:07:45.075344,6343254,1557,452,1107,-985,-621,-248,118,122,-90
13908,7228,0,2023-03-10T14:07:45.081044,6343260,1557,452,1107,-985,-621,-248,118,122,-90
13909,7229,0,2023-03-10T14:07:45.085359,6343264,1557,452,1107,-985,-621,-248,118,122,-90
13910,7230,0,2023-03-10T14:07:45.089879,6343268,1557,452,1107,-985,-621,-248,118,122,-90
13911,7231,0,2023-03-10T14:07:45.094302,6343273,1557,452,1107,-985,-621,-248,118,122,-90
13912,7232,0,2023-03-10T14:07:45.098832,6343277,1570,462,1103,-1031,-620,-289,128,124,-76
13913,7233,0,2023-03-10T14:07:45.103770,6343282,1570,462,1103,-1031,-620,-289,128,124,-76
13914,7234,0,2023-03-10T14:07:45.108209,6343286,1570,462,1103,-1031,-620,-289,128,124,-76
13915,7235,0,2023-03-10T14:07:45.112524,6343290,1570,462,1103,-1031,-620,-289,128,124,-76
13916,7236,0,2023-03-10T14:07:45.117032,6343296,1600,468,1103,-1005,-671,-292,128,124,-76
13917,7237,0,2023-03-10T14:07:45.122327,6343301,1600,468,1103,-1005,-671,-292,128,124,-76
13918,7238,0,2023-03-10T14:07:45.126672,6343305,1600,468,1103,-1005,-671,-292,128,124,-76
13919,7239,0,2023-03-10T14:07:45.131082,6343309,1600,468,1103,-1005,-671,-292,128,124,-76
13920,7240,0,2023-03-10T14:07:45.135566,6343314,1557,453,1082,-1003,-657,-249,128,124,-76
13921,7241,0,2023-03-10T14:07:45.140132,6343318,1557,453,1082,-1003,-657,-249,128,124,-76
13922,7242,0,2023-03-10T14:07:45.144721,6343323,1557,453,1082,-1003,-657,-249,128,124,-76
13923,7243,0,2023-03-10T14:07:45.148984,6343327,1557,453,1082,-1003,-657,-249,128,124,-76
13924,7244,0,2023-03-10T14:07:45.153415,6343331,1557,453,1082,-1003,-657,-249,128,124,-76
13925,7245,0,2023-03-10T14:07:45.158458,6343336,1573,459,1102,-1018,-591,-285,128,124,-76
13926,7246,0,2023-03-10T14:07:45.163538,6343342,1573,459,1102,-1018,-591,-285,128,124,-76
13927,7247,0,2023-03-10T14:07:45.167810,6343346,1573,459,1102,-1018,-591,-285,128,124,-76
13928,7248,0,2023-03-10T14:07:45.172255,6343351,1573,459,1102,-1018,-591,-285,128,124,-76
13929,7249,0,2023-03-10T14:07:45.177301,6343355,1573,460,1108,-999,-609,-268,128,124,-76
13930,7250,0,2023-03-10T14:07:45.182373,6343360,1573,460,1108,-999,-609,-268,128,124,-76
13931,7251,0,2023-03-10T14:07:45.186872,6343365,1573,460,1108,-999,-609,-268,128,124,-76
13932,7252,0,2023-03-10T14:07:45.191493,6343369,1573,460,1108,-999,-609,-268,128,124,-76
13933,7253,0,2023-03-10T14:07:45.195927,6343374,1580,464,1096,-1018,-631,-283,128,124,-76
13934,7254,0,2023-03-10T14:07:45.201318,6343379,1580,464,1096,-1018,-631,-283,128,124,-76
13935,7255,0,2023-03-10T14:07:45.206012,6343385,1580,464,1096,-1018,-631,-283,128,124,-76
13936,7256,0,2023-03-10T14:07:45.210363,6343389,1580,464,1096,-1018,-631,-283,128,124,-76
13937,7257,0,2023-03-10T14:07:45.214761,6343393,1580,464,1096,-1018,-631,-283,128,124,-76
13938,7258,0,2023-03-10T14:07:45.219670,6343398,1564,456,1095,-1008,-625,-261,119,117,-79
13939,7259,0,2023-03-10T14:07:45.224521,6343403,1564,456,1095,-1008,-625,-261,119,117,-79
13940,7260,0,2023-03-10T14:07:45.229129,6343407,1564,456,1095,-1008,-625,-261,119,117,-79
13941,7261,0,2023-03-10T14:07:45.233686,6343411,1564,456,1095,-1008,-625,-261,119,117,-79
13942,7262,0,2023-03-10T14:07:45.238655,6343417,1581,466,1108,-1005,-620,-273,119,117,-79
13943,7263,0,2023-03-10T14:07:45.243597,6343421,1581,466,1108,-1005,-620,-273,119,117,-79
13944,7264,0,2023-03-10T14:07:45.248321,6343427,1581,466,1108,-1005,-620,-273,119,117,-79
13945,7265,0,2023-03-10T14:07:45.253320,6343432,1581,466,1108,-1005,-620,-273,119,117,-79
13946,7266,0,2023-03-10T14:07:45.258309,6343437,1559,454,1098,-980,-645,-221,119,117,-79
13947,7267,0,2023-03-10T14:07:45.263386,6343442,1559,454,1098,-980,-645,-221,119,117,-79
13948,7268,0,2023-03-10T14:07:45.267760,6343446,1559,454,1098,-980,-645,-221,119,117,-79
13949,7269,0,2023-03-10T14:07:45.272100,6343450,1559,454,1098,-980,-645,-221,119,117,-79
13950,7270,0,2023-03-10T14:07:45.276618,6343455,1587,462,1105,-1002,-619,-289,119,117,-79
13951,7271,0,2023-03-10T14:07:45.281727,6343459,1587,462,1105,-1002,-619,-289,119,117,-79
13952,7272,0,2023-03-10T14:07:45.286161,6343464,1587,462,1105,-1002,-619,-289,119,117,-79
13953,7273,0,2023-03-10T14:07:45.290741,6343469,1587,462,1105,-1002,-619,-289,119,117,-79
13954,7274,0,2023-03-10T14:07:45.295124,6343474,1587,462,1105,-1002,-619,-289,119,117,-79
13955,7275,0,2023-03-10T14:07:45.299372,6343478,1577,462,1089,-1014,-628,-259,119,117,-79
