,Unnamed: 0,imu,server_time,arduino_time,ax,ay,az,gx,gy,gz,mx,my,mz
14424,7744,0,2023-03-10T14:07:47.526433,6345705,1594,458,1061,-996,-671,-262,116,112,-82
14425,7745,0,2023-03-10T14:07:47.530898,6345709,1594,458,1061,-996,-671,-262,116,112,-82
14426,7746,0,2023-03-10T14:07:47.536210,6345714,1594,458,1061,-996,-671,-262,116,112,-82
14427,7747,0,2023-03-10T14:07:47.541285,6345719,1605,455,1076,-997,-629,-261,120,112,-78
14428,7748,0,2023-03-10T14:07:47.546042,6345724,1605,455,1076,-997,-629,-261,120,112,-78
14429,7749,0,2023-03-10T14:07:47.550316,6345729,1605,455,1076,-997,-629,-261,120,112,-78
14430,7750,0,2023-03-10T14:07:47.554964,6345733,1605,455,1076,-997,-629,-261,120,112,-78
14431,7751,0,2023-03-10T14:07:47.559931,6345738,1591,463,1063,-1007,-619,-270,120,112,-78
14432,7752,0,2023-03-10T14:07:47.564875,6345743,1591,463,1063,-1007,-619,-270,120,112,-78
14433,7753,0,2023-03-10T14:07:47.569253,6345748,1591,463,1063,-1007,-619,-270,120,112,-78
14434,7754,0,2023-03-10T14:07:47.573838,6345752,1591,463,1063,-1007,-619,-270,120,112,-78
14435,7755,0,2023-03-10T14:07:47.578262,6345756,1591,463,1063,-1007,-619,-270,120,112,-78
14436,7756,0,2023-03-10T14:07:47.582633,6345761,1604,456,1082,-973,-634,-221,120,112,-78
14437,7757,0,2023-03-10T14:07:47.587773,6345766,1604,456,1082,-973,-634,-221,120,112,-78
14438,7758,0,2023-03-10T14:07:47.592409,6345771,1604,456,1082,-973,-634,-221,120,112,-78
14439,7759,0,2023-03-10T14:07:47.596962,6345775,1604,456,1082,-973,-634,-221,120,112,-78
14440,7760,0,2023-03-10T14:07:47.601452,6345780,1597,457,1080,-996,-636,-259,120,112,-78
14441,7761,0,2023-03-10T14:07:47.606418,6345785,1597,457,1080,-996,-636,-259,120,112,-78
14442,7762,0,2023-03-10T14:07:47.610638,6345789,1597,457,1080,-996,-636,-259,120,112,-78
14443,7763,0,2023-03-10T14:07:47.615838,6345794,1597,457,1080,-996,-636,-259,120,112,-78
14444,7764,0,2023-03-10T14:07:47.620550,6345799,1596,454,1057,-1037,-630,-274,120,112,-78
14445,7765,0,2023-03-10T14:07:47.625379,6345803,1596,454,1057,-1037,-630,-274,120,112,-78
14446,7766,0,2023-03-10T14:07:47.629944,6345808,1596,454,1057,-1037,-630,-274,120,112,-78
14447,7767,0,2023-03-10T14:07:47.634303,6345812,1596,454,1057,-1037,-630,-274,120,112,-78
14448,7768,0,2023-03-10T14:07:47.639995,6345819,1594,451,1074,-974,-624,-239,120,112,-78
14449,7769,0,2023-03-10T14:07:47.644922,6345823,1594,451,1074,-974,-624,-239,120,112,-78
14450,7770,0,2023-03-10T14:07:47.649335,6345828,1594,451,1074,-974,-624,-239,120,112,-78
14451,7771,0,2023-03-10T14:07:47.653458,6345832,1594,451,1074,-974,-624,-239,120,112,-78
14452,7772,0,2023-03-10T14:07:47.657896,6345836,1594,451,1074,-974,-624,-239,120,112,-78
14453,7773,0,2023-03-10T14:07:47.662387,6345840,1599,456,1081,-975,-632,-257,120,118,-76
14454,7774,0,2023-03-10T14:07:47.667533,6345845,1599,456,1081,-975,-632,-257,120,118,-76
14455,7775,0,2023-03-10T14:07:47.671972,6345850,1599,456,1081,-975,-632,-257,120,118,-76
14456,7776,0,2023-03-10T14:07:47.676495,6345854,1599,456,1081,-975,-632,-257,120,118,-76
14457,7777,0,2023-03-10T14:07:47.681031,6345860,1615,462,1076,-1026,-657,-306,120,118,-76
14458,7778,0,2023-03-10T14:07:47.686101,6345865,1615,462,1076,-1026,-657,-306,120,118,-76
14459,7779,0,2023-03-10T14:07:47.690847,6345869,1615,462,1076,-1026,-657,-306,120,118,-76
14460,7780,0,2023-03-10T14:07:47.695452,6345874,1615,462,1076,-1026,-657,-306,120,118,-76
14461,7781,0,2023-03-10T14:07:47.700247,6345878,1586,453,1056,-1020,-668,-260,120,118,-76
14462,7782,0,2023-03-10T14:07:47.705246,6345883,1586,453,1056,-1020,-668,-260,120,118,-76
14463,7783,0,2023-03-10T14:07:47.709535,6345888,1586,453,1056,-1020,-668,-260,120,118,-76
14464,7784,0,2023-03-10T14:07:47.714109,6345892,1586,453,1056,-1020,-668,-260,120,118,-76
14465,7785,0,2023-03-10T14:07:47.718434,6345896,1586,453,1056,-1020,-668,-260,120,118,-76
14466,7786,0,2023-03-10T14:07:47.723067,6345902,1605,459,1079,-1011,-588,-288,120,118,-76
14467,7787,0,2023-03-10T14:07:47.728266,6345907,1605,459,1079,-1011,-588,-288,120,118,-76
14468,7788,0,2023-03-10T14:07:47.732772,6345911,1605,459,1079,-1011,-588,-288,120,118,-76
14469,7789,0,2023-03-10T14:07:47.738086,6345916,1605,459,1079,-1011,-588,-288,120,118,-76
14470,7790,0,2023-03-10T14:07:47.743210,6345921,1608,462,1067,-1002,-616,-265,120,118,-76
14471,7791,0,2023-03-10T14:07:47.748221,6345926,1608,462,1067,-1002,-616,-265,120,118,-76
14472,7792,0,2023-03-10T14:07:47.752723,6345931,1608,462,1067,-1002,-616,-265,120,118,-76
14473,7793,0,2023-03-10T14:07:47.757357,6345935,1608,462,1067,-1002,-616,-265,120,118,-76
14474,7794,0,2023-03-10T14:07:47.762095,6345940,1602,453,1073,-995,-644,-248,120,118,-76
14475,7795,0,2023-03-10T14:07:47.767081,6345946,1602,453,1073,-995,-644,-248,120,118,-76
14476,7796,0,2023-03-10T14:07:47.771671,6345950,1602,453,1073,-995,-644,-248,120,118,-76
14477,7797,0,2023-03-10T14:07:47.776093,6345955,1602,453,1073,-995,-644,-248,120,118,-76
14478,7798,0,2023-03-10T14:07:47.781017,6345959,1605,459,1053,-1026,-638,-296,120,118,-76
14479,7799,0,2023-03-10T14:07:47.786319,6345965,1605,459,1053,-1026,-638,-296,120,118,-76
14480,7800,0,2023-03-10T14:07:47.790964,6345969,1605,459,1053,-1026,-638,-296,120,118,-76
14481,7801,0,2023-03-10T14:07:47.795196,6345973,1605,459,1053,-1026,-638,-296,120,118,-76
14482,7802,0,2023-03-10T14:07:47.800128,6345978,1605,452,1073,-993,-623,-239,125,111,-81
14483,7803,0,2023-03-10T14:07:47.805052,6345984,1605,452,1073,-993,-623,-239,125,111,-81
14484,7804,0,2023-03-10T14:07:47.809405,6345988,1605,452,1073,-993,-623,-239,125,111,-81
14485,7805,0,2023-03-10T14:07:47.813998,6345992,1605,452,1073,-993,-623,-239,125,111,-81
14486,7806,0,2023-03-10T14:07:47.819429,6345998,1591,457,1069,-970,-641,-254,125,111,-81
14487,7807,0,2023-03-10T14:07:47.824234,6346003,1591,457,1069,-970,-641,-254,125,111,-81
14488,7808,0,2023-03-10T14:07:47.828786,6346007,1591,457,1069,-970,-641,-254,125,111,-81
14489,7809,0,2023-03-10T14:07:47.833214,6346011,1591,457,1069,-970,-641,-254,125,111,-81
14490,7810,0,2023-03-10T14:07:47.838071,6346016,1591,457,1069,-970,-641,-254,125,111,-81
14491,7811,0,2023-03-10T14:07:47.843173,6346021,1623,460,1061,-1040,-631,-302,125,111,-81
14492,7812,0,2023-03-10T14:07:47.848142,6346027,1623,460,1061,-1040,-631,-302,125,111,-81
14493,7813,0,2023-03-10T14:07:47.852672,6346031,1623,460,1061,-1040,-631,-302,125,111,-81
14494,7814,0,2023-03-10T14:07:47.857169,6346036,1623,460,1061,-1040,-631,-302,125,111,-81
14495,7815,0,2023-03-10T14:07:47.862051,6346040,1597,450,1067,-1002,-636,-265,125,111,-81
14496,7816,0,2023-03-10T14:07:47.867264,6346045,1597,450,1067,-1002,-636,-265,125,111,-81
14497,7817,0,2023-03-10T14:07:47.871846,6346050,1597,450,1067,-1002,-636,-265,125,111,-81
14498,7818,0,2023-03-10T14:07:47.876374,6346054,1597,450,1067,-1002,-636,-265,125,111,-81
14499,7819,0,2023-03-10T14:07:47.881038,6346059,1602,458,1063,-1025,-605,-273,125,111,-81
14500,7820,0,2023-03-10T14:07:47.886060,6346064,1602,458,1063,-1025,-605,-273,125,111,-81
14501,7821,0,2023-03-10T14:07:47.890767,6346068,1602,458,1063,-1025,-605,-273,125,111,-81
14502,7822,0,2023-03-10T14:07:47.895836,6346074,1602,458,1063,-1025,-605,-273,125,111,-81
14503,7823,0,2023-03-10T14:07:47.900713,6346079,1609,457,1088,-970,-658,-250,125,111,-81
14504,7824,0,2023-03-10T14:07:47.905806,6346084,1609,457,1088,-970,-658,-250,125,111,-81
14505,7825,0,2023-03-10T14:07:47.910247,6346089,1609,457,1088,-970,-658,-250,125,111,-81
14506,7826,0,2023-03-10T14:07:47.914898,6346093,1609,457,1088,-970,-658,-250,125,111,-81
14507,7827,0,2023-03-10T14:07:47.920028,6346098,1593,455,1076,-1012,-624,-265,124,118,-84
14508,7828,0,2023-03-10T14:07:47.924396,6346102,1593,455,1076,-1012,-624,-265,124,118,-84
14509,7829,0,2023-03-10T14:07:47.928836,6346107,1593,455,1076,-1012,-624,-265,124,118,-84
14510,7830,0,2023-03-10T14:07:47.933241,6346112,1593,455,1076,-1012,-624,-265,124,118,-84
14511,7831,0,2023-03-10T14:07:47.938220,6346117,1593,455,1076,-1012,-624,-265,124,118,-84
14512,7832,0,2023-03-10T14:07:47.943132,6346122,1616,460,1069,-1015,-646,-288,124,118,-84
14513,7833,0,2023-03-10T14:07:47.948287,6346126,1616,460,1069,-1015,-646,-288,124,118,-84
14514,7834,0,2023-03-10T14:07:47.953150,6346131,1616,460,1069,-1015,-646,-288,124,118,-84
14515,7835,0,2023-03-10T14:07:47.957746,6346136,1616,460,1069,-1015,-646,-288,124,118,-84
14516,7836,0,2023-03-10T14:07:47.962832,6346141,1593,447,1072,-987,-631,-251,124,118,-84
14517,7837,0,2023-03-10T14:07:47.967988,6346146,1593,447,1072,-987,-631,-251,124,118,-84
14518,7838,0,2023-03-10T14:07:47.972629,6346150,1593,447,1072,-987,-631,-251,124,118,-84
14519,7839,0,2023-03-10T14:07:47.977075,6346156,1593,447,1072,-987,-631,-251,124,118,-84
14520,7840,0,2023-03-10T14:07:47.981468,6346160,1610,458,1071,-1005,-640,-272,124,118,-84
14521,7841,0,2023-03-10T14:07:47.986313,6346165,1610,458,1071,-1005,-640,-272,124,118,-84
14522,7842,0,2023-03-10T14:07:47.990894,6346169,1610,458,1071,-1005,-640,-272,124,118,-84
14523,7843,0,2023-03-10T14:07:47.995724,6346174,1610,458,1071,-1005,-640,-272,124,118,-84
14524,7844,0,2023-03-10T14:07:48.000542,6346179,1602,457,1077,-997,-627,-260,124,118,-84
14525,7845,0,2023-03-10T14:07:48.004934,6346183,1602,457,1077,-997,-627,-260,124,118,-84
14526,7846,0,2023-03-10T14:07:48.009371,6346187,1602,457,1077,-997,-627,-260,124,118,-84
14527,7847,0,2023-03-10T14:07:48.013881,6346192,1602,457,1077,-997,-627,-260,124,118,-84
14528,7848,0,2023-03-10T14:07:48.018828,6346198,1602,457,1077,-997,-627,-260,124,118,-84
14529,7849,0,2023-03-10T14:07:48.023389,6346202,1606,454,1067,-1028,-636,-273,124,118,-84
14530,7850,0,2023-03-10T14:07:48.028789,6346207,1606,454,1067,-1028,-636,-273,124,118,-84
14531,7851,0,2023-03-10T14:07:48.033001,6346211,1606,454,1067,-1028,-636,-273,124,118,-84
14532,7852,0,2023-03-10T14:07:48.037675,6346216,1606,454,1067,-1028,-636,-273,124,118,-84
14533,7853,0,2023-03-10T14:07:48.042910,6346221,1593,454,1065,-1011,-629,-274,124,118,-84
14534,7854,0,2023-03-10T14:07:48.047257,6346225,1593,454,1065,-1011,-629,-274,124,118,-84
14535,7855,0,2023-03-10T14:07:48.051760,6346230,1593,454,1065,-1011,-629,-274,124,118,-84
14536,7856,0,2023-03-10T14:07:48.056175,6346234,1593,454,1065,-1011,-629,-274,124,118,-84
14537,7857,0,2023-03-10T14:07:48.061208,6346238,1611,460,1081,-991,-627,-241,123,109,-77
14538,7858,0,2023-03-10T14:07:48.066037,6346245,1611,460,1081,-991,-627,-241,123,109,-77
14539,7859,0,2023-03-10T14:07:48.070611,6346249,1611,460,1081,-991,-627,-241,123,109,-77
14540,7860,0,2023-03-10T14:07:48.075645,6346254,1611,460,1081,-991,-627,-241,123,109,-77
14541,7861,0,2023-03-10T14:07:48.080823,6346259,1613,457,1077,-972,-647,-241,123,109,-77
14542,7862,0,2023-03-10T14:07:48.085566,6346264,1613,457,1077,-972,-647,-241,123,109,-77
14543,7863,0,2023-03-10T14:07:48.090124,6346268,1613,457,1077,-972,-647,-241,123,109,-77
14544,7864,0,2023-03-10T14:07:48.094538,6346272,1613,457,1077,-972,-647,-241,123,109,-77
14545,7865,0,2023-03-10T14:07:48.098792,6346277,1613,457,1077,-972,-647,-241,123,109,-77
14546,7866,0,2023-03-10T14:07:48.103259,6346281,1600,456,1054,-1025,-631,-278,123,109,-77
14547,7867,0,2023-03-10T14:07:48.107996,6346287,1600,456,1054,-1025,-631,-278,123,109,-77
14548,7868,0,2023-03-10T14:07:48.112633,6346291,1600,456,1054,-1025,-631,-278,123,109,-77
14549,7869,0,2023-03-10T14:07:48.117278,6346296,1600,456,1054,-1025,-631,-278,123,109,-77
14550,7870,0,2023-03-10T14:07:48.121776,6346300,1600,450,1058,-1000,-647,-263,123,109,-77
14551,7871,0,2023-03-10T14:07:48.126803,6346305,1600,450,1058,-1000,-647,-263,123,109,-77
14552,7872,0,2023-03-10T14:07:48.130976,6346309,1600,450,1058,-1000,-647,-263,123,109,-77
14553,7873,0,2023-03-10T14:07:48.135696,6346314,1600,450,1058,-1000,-647,-263,123,109,-77
14554,7874,0,2023-03-10T14:07:48.140535,6346318,1617,463,1063,-1010,-619,-289,123,109,-77
14555,7875,0,2023-03-10T14:07:48.145634,6346323,1617,463,1063,-1010,-619,-289,123,109,-77
14556,7876,0,2023-03-10T14:07:48.150154,6346329,1617,463,1063,-1010,-619,-289,123,109,-77
14557,7877,0,2023-03-10T14:07:48.154432,6346333,1617,463,1063,-1010,-619,-289,123,109,-77
14558,7878,0,2023-03-10T14:07:48.158994,6346337,1617,463,1063,-1010,-619,-289,123,109,-77
14559,7879,0,2023-03-10T14:07:48.163668,6346342,1615,453,1068,-1009,-662,-263,123,109,-77
14560,7880,0,2023-03-10T14:07:48.168686,6346347,1615,453,1068,-1009,-662,-263,123,109,-77
14561,7881,0,2023-03-10T14:07:48.173074,6346351,1615,453,1068,-1009,-662,-263,123,109,-77
14562,7882,0,2023-03-10T14:07:48.177427,6346356,1615,453,1068,-1009,-662,-263,123,109,-77
14563,7883,0,2023-03-10T14:07:48.182538,6346360,1595,457,1058,-1002,-664,-265,125,121,-83
14564,7884,0,2023-03-10T14:07:48.187551,6346365,1595,457,1058,-1002,-664,-265,125,121,-83
14565,7885,0,2023-03-10T14:07:48.192147,6346371,1595,457,1058,-1002,-664,-265,125,121,-83
14566,7886,0,2023-03-10T14:07:48.197258,6346376,1595,457,1058,-1002,-664,-265,125,121,-83
14567,7887,0,2023-03-10T14:07:48.202343,6346381,1605,450,1071,-1028,-605,-276,125,121,-83
14568,7888,0,2023-03-10T14:07:48.207289,6346386,1605,450,1071,-1028,-605,-276,125,121,-83
14569,7889,0,2023-03-10T14:07:48.211827,6346390,1605,450,1071,-1028,-605,-276,125,121,-83
14570,7890,0,2023-03-10T14:07:48.216441,6346394,1605,450,1071,-1028,-605,-276,125,121,-83
14571,7891,0,2023-03-10T14:07:48.221585,6346400,1621,466,1069,-1002,-619,-273,125,121,-83
14572,7892,0,2023-03-10T14:07:48.226708,6346404,1621,466,1069,-1002,-619,-273,125,121,-83
14573,7893,0,2023-03-10T14:07:48.231328,6346409,1621,466,1069,-1002,-619,-273,125,121,-83
14574,7894,0,2023-03-10T14:07:48.235761,6346414,1621,466,1069,-1002,-619,-273,125,121,-83
14575,7895,0,2023-03-10T14:07:48.240714,6346419,1608,447,1064,-998,-652,-222,125,121,-83
14576,7896,0,2023-03-10T14:07:48.245814,6346424,1608,447,1064,-998,-652,-222,125,121,-83
14577,7897,0,2023-03-10T14:07:48.250358,6346429,1608,447,1064,-998,-652,-222,125,121,-83
14578,7898,0,2023-03-10T14:07:48.254839,6346433,1608,447,1064,-998,-652,-222,125,121,-83
14579,7899,0,2023-03-10T14:07:48.260210,6346438,1603,455,1060,-998,-634,-275,125,121,-83
14580,7900,0,2023-03-10T14:07:48.265290,6346443,1603,455,1060,-998,-634,-275,125,121,-83
14581,7901,0,2023-03-10T14:07:48.269663,6346448,1603,455,1060,-998,-634,-275,125,121,-83
14582,7902,0,2023-03-10T14:07:48.274170,6346452,1603,455,1060,-998,-634,-275,125,121,-83
14583,7903,0,2023-03-10T14:07:48.279078,6346458,1603,455,1060,-998,-634,-275,125,121,-83
14584,7904,0,2023-03-10T14:07:48.283729,6346462,1621,455,1050,-1027,-625,-276,125,121,-83
14585,7905,0,2023-03-10T14:07:48.288743,6346467,1621,455,1050,-1027,-625,-276,125,121,-83
14586,7906,0,2023-03-10T14:07:48.293269,6346472,1621,455,1050,-1027,-625,-276,125,121,-83
14587,7907,0,2023-03-10T14:07:48.298300,6346477,1621,455,1050,-1027,-625,-276,125,121,-83
14588,7908,0,2023-03-10T14:07:48.302746,6346481,1592,452,1059,-990,-651,-257,118,112,-86
14589,7909,0,2023-03-10T14:07:48.307699,6346486,1592,452,1059,-990,-651,-257,118,112,-86
14590,7910,0,2023-03-10T14:07:48.312171,6346490,1592,452,1059,-990,-651,-257,118,112,-86
14591,7911,0,2023-03-10T14:07:48.316747,6346494,1592,452,1059,-990,-651,-257,118,112,-86
14592,7912,0,2023-03-10T14:07:48.321784,6346501,1620,454,1078,-1026,-602,-282,118,112,-86
14593,7913,0,2023-03-10T14:07:48.326624,6346505,1620,454,1078,-1026,-602,-282,118,112,-86
14594,7914,0,2023-03-10T14:07:48.331077,6346510,1620,454,1078,-1026,-602,-282,118,112,-86
14595,7915,0,2023-03-10T14:07:48.336092,6346514,1620,454,1078,-1026,-602,-282,118,112,-86
14596,7916,0,2023-03-10T14:07:48.340522,6346519,1605,449,1071,-1006,-635,-274,118,112,-86
14597,7917,0,2023-03-10T14:07:48.345479,6346524,1605,449,1071,-1006,-635,-274,118,112,-86
14598,7918,0,2023-03-10T14:07:48.350423,6346528,1605,449,1071,-1006,-635,-274,118,112,-86
14599,7919,0,2023-03-10T14:07:48.354959,6346533,1605,449,1071,-1006,-635,-274,118,112,-86
14600,7920,0,2023-03-10T14:07:48.360022,6346539,1598,451,1055,-1011,-630,-253,118,112,-86
14601,7921,0,2023-03-10T14:07:48.365038,6346544,1598,451,1055,-1011,-630,-253,118,112,-86
14602,7922,0,2023-03-10T14:07:48.369416,6346548,1598,451,1055,-1011,-630,-253,118,112,-86
14603,7923,0,2023-03-10T14:07:48.374055,6346552,1598,451,1055,-1011,-630,-253,118,112,-86
14604,7924,0,2023-03-10T14:07:48.379611,6346558,1608,456,1076,-967,-623,-234,118,112,-86
14605,7925,0,2023-03-10T14:07:48.384448,6346563,1608,456,1076,-967,-623,-234,118,112,-86
14606,7926,0,2023-03-10T14:07:48.388945,6346567,1608,456,1076,-967,-623,-234,118,112,-86
14607,7927,0,2023-03-10T14:07:48.393445,6346571,1608,456,1076,-967,-623,-234,118,112,-86
14608,7928,0,2023-03-10T14:07:48.397744,6346576,1608,456,1076,-967,-623,-234,118,112,-86
14609,7929,0,2023-03-10T14:07:48.402763,6346580,1620,460,1062,-1020,-655,-288,118,112,-86
14610,7930,0,2023-03-10T14:07:48.407839,6346587,1620,460,1062,-1020,-655,-288,118,112,-86
14611,7931,0,2023-03-10T14:07:48.412234,6346591,1620,460,1062,-1020,-655,-288,118,112,-86
14612,7932,0,2023-03-10T14:07:48.416880,6346595,1620,460,1062,-1020,-655,-288,118,112,-86
14613,7933,0,2023-03-10T14:07:48.422115,6346600,1602,447,1044,-1023,-648,-260,118,112,-86
14614,7934,0,2023-03-10T14:07:48.427093,6346605,1602,447,1044,-1023,-648,-260,118,112,-86
14615,7935,0,2023-03-10T14:07:48.431427,6346610,1602,447,1044,-1023,-648,-260,118,112,-86
14616,7936,0,2023-03-10T14:07:48.436341,6346614,1602,447,1044,-1023,-648,-260,118,112,-86
14617,7937,0,2023-03-10T14:07:48.441741,6346619,1617,456,1076,-1001,-617,-281,125,109,-81
14618,7938,0,2023-03-10T14:07:48.446310,6346625,1617,456,1076,-1001,-617,-281,125,109,-81
14619,7939,0,2023-03-10T14:07:48.450769,6346629,1617,456,1076,-1001,-617,-281,125,109,-81
14620,7940,0,2023-03-10T14:07:48.455352,6346634,1617,456,1076,-1001,-617,-281,125,109,-81
14621,7941,0,2023-03-10T14:07:48.460157,6346639,1598,453,1054,-1012,-655,-277,125,109,-81
14622,7942,0,2023-03-10T14:07:48.465255,6346644,1598,453,1054,-1012,-655,-277,125,109,-81
14623,7943,0,2023-03-10T14:07:48.469745,6346648,1598,453,1054,-1012,-655,-277,125,109,-81
14624,7944,0,2023-03-10T14:07:48.474271,6346652,1598,453,1054,-1012,-655,-277,125,109,-81
14625,7945,0,2023-03-10T14:07:48.479372,6346657,1598,453,1054,-1012,-655,-277,125,109,-81
14626,7946,0,2023-03-10T14:07:48.484129,6346662,1614,456,1078,-1003,-610,-277,125,109,-81
14627,7947,0,2023-03-10T14:07:48.489081,6346668,1614,456,1078,-1003,-610,-277,125,109,-81
14628,7948,0,2023-03-10T14:07:48.493621,6346672,1614,456,1078,-1003,-610,-277,125,109,-81
14629,7949,0,2023-03-10T14:07:48.498774,6346677,1614,456,1078,-1003,-610,-277,125,109,-81
14630,7950,0,2023-03-10T14:07:48.503673,6346682,1604,457,1064,-1020,-611,-274,125,109,-81
14631,7951,0,2023-03-10T14:07:48.508610,6346687,1604,457,1064,-1020,-611,-274,125,109,-81
14632,7952,0,2023-03-10T14:07:48.513009,6346691,1604,457,1064,-1020,-611,-274,125,109,-81
14633,7953,0,2023-03-10T14:07:48.517883,6346696,1604,457,1064,-1020,-611,-274,125,109,-81
14634,7954,0,2023-03-10T14:07:48.522698,6346701,1598,444,1058,-983,-694,-221,125,109,-81
14635,7955,0,2023-03-10T14:07:48.527526,6346705,1598,444,1058,-983,-694,-221,125,109,-81
14636,7956,0,2023-03-10T14:07:48.532077,6346711,1598,444,1058,-983,-694,-221,125,109,-81
14637,7957,0,2023-03-10T14:07:48.536406,6346715,1598,444,1058,-983,-694,-221,125,109,-81
14638,7958,0,2023-03-10T14:07:48.541639,6346720,1625,457,1070,-994,-633,-258,125,109,-81
14639,7959,0,2023-03-10T14:07:48.546599,6346725,1625,457,1070,-994,-633,-258,125,109,-81
14640,7960,0,2023-03-10T14:07:48.551292,6346729,1625,457,1070,-994,-633,-258,125,109,-81
14641,7961,0,2023-03-10T14:07:48.556532,6346735,1625,457,1070,-994,-633,-258,125,109,-81
14642,7962,0,2023-03-10T14:07:48.561090,6346739,1604,452,1049,-1037,-610,-276,124,118,-90
14643,7963,0,2023-03-10T14:07:48.566760,6346744,1604,452,1049,-1037,-610,-276,124,118,-90
14644,7964,0,2023-03-10T14:07:48.571294,6346749,1604,452,1049,-1037,-610,-276,124,118,-90
14645,7965,0,2023-03-10T14:07:48.576352,6346755,1604,452,1049,-1037,-610,-276,124,118,-90
14646,7966,0,2023-03-10T14:07:48.581311,6346760,1612,448,1070,-1001,-608,-276,124,118,-90
14647,7967,0,2023-03-10T14:07:48.586619,6346765,1612,448,1070,-1001,-608,-276,124,118,-90
14648,7968,0,2023-03-10T14:07:48.591113,6346769,1612,448,1070,-1001,-608,-276,124,118,-90
14649,7969,0,2023-03-10T14:07:48.596481,6346775,1612,448,1070,-1001,-608,-276,124,118,-90
14650,7970,0,2023-03-10T14:07:48.601352,6346780,1607,451,1061,-1002,-647,-268,124,118,-90
14651,7971,0,2023-03-10T14:07:48.606619,6346784,1607,451,1061,-1002,-647,-268,124,118,-90
14652,7972,0,2023-03-10T14:07:48.611474,6346789,1607,451,1061,-1002,-647,-268,124,118,-90
14653,7973,0,2023-03-10T14:07:48.616108,6346795,1607,451,1061,-1002,-647,-268,124,118,-90
14654,7974,0,2023-03-10T14:07:48.621290,6346800,1609,451,1068,-1015,-604,-273,124,118,-90
14655,7975,0,2023-03-10T14:07:48.626213,6346805,1609,451,1068,-1015,-604,-273,124,118,-90
14656,7976,0,2023-03-10T14:07:48.630534,6346809,1609,451,1068,-1015,-604,-273,124,118,-90
14657,7977,0,2023-03-10T14:07:48.635090,6346813,1609,451,1068,-1015,-604,-273,124,118,-90
14658,7978,0,2023-03-10T14:07:48.640113,6346818,1613,464,1055,-1006,-648,-272,124,118,-90
14659,7979,0,2023-03-10T14:07:48.645204,6346823,1613,464,1055,-1006,-648,-272,124,118,-90
14660,7980,0,2023-03-10T14:07:48.649691,6346828,1613,464,1055,-1006,-648,-272,124,118,-90
14661,7981,0,2023-03-10T14:07:48.654125,6346832,1613,464,1055,-1006,-648,-272,124,118,-90
14662,7982,0,2023-03-10T14:07:48.658971,6346838,1613,464,1055,-1006,-648,-272,124,118,-90
14663,7983,0,2023-03-10T14:07:48.663497,6346842,1602,445,1067,-972,-632,-221,124,118,-90
14664,7984,0,2023-03-10T14:07:48.668440,6346847,1602,445,1067,-972,-632,-221,124,118,-90
14665,7985,0,2023-03-10T14:07:48.672856,6346851,1602,445,1067,-972,-632,-221,124,118,-90
14666,7986,0,2023-03-10T14:07:48.677189,6346856,1602,445,1067,-972,-632,-221,124,118,-90
14667,7987,0,2023-03-10T14:07:48.682367,6346861,1605,452,1055,-1005,-651,-274,124,118,-90
14668,7988,0,2023-03-10T14:07:48.687279,6346865,1605,452,1055,-1005,-651,-274,124,118,-90
14669,7989,0,2023-03-10T14:07:48.691774,6346870,1605,452,1055,-1005,-651,-274,124,118,-90
14670,7990,0,2023-03-10T14:07:48.696437,6346874,1605,452,1055,-1005,-651,-274,124,118,-90
14671,7991,0,2023-03-10T14:07:48.700807,6346880,1624,453,1062,-1021,-620,-269,121,115,-77
14672,7992,0,2023-03-10T14:07:48.705421,6346884,1624,453,1062,-1021,-620,-269,121,115,-77
14673,7993,0,2023-03-10T14:07:48.709842,6346888,1624,453,1062,-1021,-620,-269,121,115,-77
14674,7994,0,2023-03-10T14:07:48.714263,6346893,1624,453,1062,-1021,-620,-269,121,115,-77
14675,7995,0,2023-03-10T14:07:48.719205,6346898,1624,453,1062,-1021,-620,-269,121,115,-77
14676,7996,0,2023-03-10T14:07:48.723575,6346902,1613,453,1062,-981,-654,-263,121,115,-77
14677,7997,0,2023-03-10T14:07:48.728821,6346907,1613,453,1062,-981,-654,-263,121,115,-77
14678,7998,0,2023-03-10T14:07:48.733424,6346911,1613,453,1062,-981,-654,-263,121,115,-77
14679,7999,0,2023-03-10T14:07:48.737927,6346916,1613,453,1062,-981,-654,-263,121,115,-77
14680,8000,0,2023-03-10T14:07:48.742165,6346920,1617,456,1058,-1016,-607,-281,121,115,-77
14681,8001,0,2023-03-10T14:07:48.747391,6346926,1617,456,1058,-1016,-607,-281,121,115,-77
14682,8002,0,2023-03-10T14:07:48.751847,6346930,1617,456,1058,-1016,-607,-281,121,115,-77
14683,8003,0,2023-03-10T14:07:48.757098,6346936,1617,456,1058,-1016,-607,-281,121,115,-77
14684,8004,0,2023-03-10T14:07:48.762048,6346940,1602,448,1077,-1007,-597,-266,121,115,-77
14685,8005,0,2023-03-10T14:07:48.767255,6346946,1602,448,1077,-1007,-597,-266,121,115,-77
14686,8006,0,2023-03-10T14:07:48.771942,6346950,1602,448,1077,-1007,-597,-266,121,115,-77
14687,8007,0,2023-03-10T14:07:48.777140,6346955,1602,448,1077,-1007,-597,-266,121,115,-77
14688,8008,0,2023-03-10T14:07:48.782396,6346960,1610,459,1061,-1012,-650,-285,121,115,-77
14689,8009,0,2023-03-10T14:07:48.787338,6346966,1610,459,1061,-1012,-650,-285,121,115,-77
14690,8010,0,2023-03-10T14:07:48.791704,6346971,1610,459,1061,-1012,-650,-285,121,115,-77
14691,8011,0,2023-03-10T14:07:48.796370,6346975,1610,459,1061,-1012,-650,-285,121,115,-77
14692,8012,0,2023-03-10T14:07:48.801518,6346980,1618,455,1066,-985,-633,-246,121,115,-77
14693,8013,0,2023-03-10T14:07:48.806357,6346985,1618,455,1066,-985,-633,-246,121,115,-77
14694,8014,0,2023-03-10T14:07:48.810739,6346989,1618,455,1066,-985,-633,-246,121,115,-77
14695,8015,0,2023-03-10T14:07:48.815121,6346993,1618,455,1066,-985,-633,-246,121,115,-77
14696,8016,0,2023-03-10T14:07:48.820538,6346999,1600,448,1054,-979,-649,-244,122,116,-86
14697,8017,0,2023-03-10T14:07:48.825411,6347003,1600,448,1054,-979,-649,-244,122,116,-86
14698,8018,0,2023-03-10T14:07:48.830068,6347009,1600,448,1054,-979,-649,-244,122,116,-86
14699,8019,0,2023-03-10T14:07:48.834296,6347013,1600,448,1054,-979,-649,-244,122,116,-86
14700,8020,0,2023-03-10T14:07:48.839304,6347018,1600,448,1054,-979,-649,-244,122,116,-86
14701,8021,0,2023-03-10T14:07:48.844033,6347022,1619,453,1049,-1033,-634,-274,122,116,-86
14702,8022,0,2023-03-10T14:07:48.849207,6347028,1619,453,1049,-1033,-634,-274,122,116,-86
14703,8023,0,2023-03-10T14:07:48.853640,6347032,1619,453,1049,-1033,-634,-274,122,116,-86
14704,8024,0,2023-03-10T14:07:48.858592,6347037,1619,453,1049,-1033,-634,-274,122,116,-86
14705,8025,0,2023-03-10T14:07:48.863603,6347041,1629,456,1056,-990,-642,-268,122,116,-86
14706,8026,0,2023-03-10T14:07:48.868623,6347047,1629,456,1056,-990,-642,-268,122,116,-86
14707,8027,0,2023-03-10T14:07:48.873128,6347052,1629,456,1056,-990,-642,-268,122,116,-86
14708,8028,0,2023-03-10T14:07:48.878045,6347057,1629,456,1056,-990,-642,-268,122,116,-86
14709,8029,0,2023-03-10T14:07:48.882353,6347061,1618,465,1055,-1012,-591,-277,122,116,-86
14710,8030,0,2023-03-10T14:07:48.887511,6347066,1618,465,1055,-1012,-591,-277,122,116,-86
14711,8031,0,2023-03-10T14:07:48.892000,6347070,1618,465,1055,-1012,-591,-277,122,116,-86
14712,8032,0,2023-03-10T14:07:48.896475,6347075,1618,465,1055,-1012,-591,-277,122,116,-86
14713,8033,0,2023-03-10T14:07:48.901395,6347080,1610,455,1067,-976,-626,-237,122,116,-86
14714,8034,0,2023-03-10T14:07:48.906317,6347084,1610,455,1067,-976,-626,-237,122,116,-86
14715,8035,0,2023-03-10T14:07:48.910636,6347089,1610,455,1067,-976,-626,-237,122,116,-86
14716,8036,0,2023-03-10T14:07:48.914988,6347094,1610,455,1067,-976,-626,-237,122,116,-86
14717,8037,0,2023-03-10T14:07:48.920142,6347098,1610,455,1067,-976,-626,-237,122,116,-86
14718,8038,0,2023-03-10T14:07:48.924439,6347103,1599,451,1066,-1012,-626,-267,122,116,-86
14719,8039,0,2023-03-10T14:07:48.929669,6347108,1599,451,1066,-1012,-626,-267,122,116,-86
14720,8040,0,2023-03-10T14:07:48.934213,6347113,1599,451,1066,-1012,-626,-267,122,116,-86
14721,8041,0,2023-03-10T14:07:48.939377,6347118,1599,451,1066,-1012,-626,-267,122,116,-86
14722,8042,0,2023-03-10T14:07:48.943835,6347122,1622,456,1056,-1034,-658,-294,122,116,-86
14723,8043,0,2023-03-10T14:07:48.948633,6347127,1622,456,1056,-1034,-658,-294,122,116,-86
14724,8044,0,2023-03-10T14:07:48.953179,6347131,1622,456,1056,-1034,-658,-294,122,116,-86
14725,8045,0,2023-03-10T14:07:48.957584,6347136,1622,456,1056,-1034,-658,-294,122,116,-86
14726,8046,0,2023-03-10T14:07:48.962779,6347141,1620,453,1069,-984,-626,-258,112,112,-80
14727,8047,0,2023-03-10T14:07:48.967936,6347146,1620,453,1069,-984,-626,-258,112,112,-80
14728,8048,0,2023-03-10T14:07:48.972368,6347151,1620,453,1069,-984,-626,-258,112,112,-80
14729,8049,0,2023-03-10T14:07:48.978617,6347157,1620,453,1069,-984,-626,-258,112,112,-80
14730,8050,0,2023-03-10T14:07:48.983550,6347162,1616,452,1052,-1004,-635,-269,112,112,-80
14731,8051,0,2023-03-10T14:07:48.987890,6347166,1616,452,1052,-1004,-635,-269,112,112,-80
14732,8052,0,2023-03-10T14:07:48.992287,6347170,1616,452,1052,-1004,-635,-269,112,112,-80
14733,8053,0,2023-03-10T14:07:48.997298,6347175,1616,452,1052,-1004,-635,-269,112,112,-80
14734,8054,0,2023-03-10T14:07:49.001987,6347181,1604,449,1059,-997,-627,-253,112,112,-80
14735,8055,0,2023-03-10T14:07:49.006993,6347186,1604,449,1059,-997,-627,-253,112,112,-80
14736,8056,0,2023-03-10T14:07:49.011349,6347190,1604,449,1059,-997,-627,-253,112,112,-80
14737,8057,0,2023-03-10T14:07:49.016022,6347194,1604,449,1059,-997,-627,-253,112,112,-80
14738,8058,0,2023-03-10T14:07:49.020845,6347199,1622,457,1060,-1011,-629,-288,112,112,-80
14739,8059,0,2023-03-10T14:07:49.025254,6347203,1622,457,1060,-1011,-629,-288,112,112,-80
14740,8060,0,2023-03-10T14:07:49.029715,6347208,1622,457,1060,-1011,-629,-288,112,112,-80
14741,8061,0,2023-03-10T14:07:49.034262,6347212,1622,457,1060,-1011,-629,-288,112,112,-80
14742,8062,0,2023-03-10T14:07:49.039130,6347217,1622,457,1060,-1011,-629,-288,112,112,-80
14743,8063,0,2023-03-10T14:07:49.043659,6347223,1625,457,1064,-1011,-638,-274,112,112,-80
14744,8064,0,2023-03-10T14:07:49.048436,6347227,1625,457,1064,-1011,-638,-274,112,112,-80
14745,8065,0,2023-03-10T14:07:49.053173,6347232,1625,457,1064,-1011,-638,-274,112,112,-80
14746,8066,0,2023-03-10T14:07:49.057655,6347236,1625,457,1064,-1011,-638,-274,112,112,-80
14747,8067,0,2023-03-10T14:07:49.062262,6347241,1609,451,1042,-1016,-642,-266,112,112,-80
14748,8068,0,2023-03-10T14:07:49.067511,6347246,1609,451,1042,-1016,-642,-266,112,112,-80
14749,8069,0,2023-03-10T14:07:49.071841,6347250,1609,451,1042,-1016,-642,-266,112,112,-80
14750,8070,0,2023-03-10T14:07:49.076667,6347255,1609,451,1042,-1016,-642,-266,112,112,-80
14751,8071,0,2023-03-10T14:07:49.081534,6347260,1629,452,1070,-989,-620,-250,125,109,-81
14752,8072,0,2023-03-10T14:07:49.086711,6347265,1629,452,1070,-989,-620,-250,125,109,-81
14753,8073,0,2023-03-10T14:07:49.091063,6347270,1629,452,1070,-989,-620,-250,125,109,-81
14754,8074,0,2023-03-10T14:07:49.095537,6347274,1629,452,1070,-989,-620,-250,125,109,-81
14755,8075,0,2023-03-10T14:07:49.099977,6347278,1629,452,1070,-989,-620,-250,125,109,-81
14756,8076,0,2023-03-10T14:07:49.104289,6347283,1603,449,1056,-969,-659,-227,125,109,-81
14757,8077,0,2023-03-10T14:07:49.108743,6347287,1603,449,1056,-969,-659,-227,125,109,-81
14758,8078,0,2023-03-10T14:07:49.113078,6347291,1603,449,1056,-969,-659,-227,125,109,-81
14759,8079,0,2023-03-10T14:07:49.117149,6347295,1603,449,1056,-969,-659,-227,125,109,-81
14760,8080,0,2023-03-10T14:07:49.121689,6347299,1638,464,1053,-1022,-634,-298,125,109,-81
14761,8081,0,2023-03-10T14:07:49.126895,6347305,1638,464,1053,-1022,-634,-298,125,109,-81
14762,8082,0,2023-03-10T14:07:49.131339,6347310,1638,464,1053,-1022,-634,-298,125,109,-81
14763,8083,0,2023-03-10T14:07:49.136110,6347315,1638,464,1053,-1022,-634,-298,125,109,-81
14764,8084,0,2023-03-10T14:07:49.141400,6347320,1614,448,1042,-1012,-636,-270,125,109,-81
14765,8085,0,2023-03-10T14:07:49.146312,6347325,1614,448,1042,-1012,-636,-270,125,109,-81
14766,8086,0,2023-03-10T14:07:49.150671,6347329,1614,448,1042,-1012,-636,-270,125,109,-81
14767,8087,0,2023-03-10T14:07:49.155317,6347333,1614,448,1042,-1012,-636,-270,125,109,-81
14768,8088,0,2023-03-10T14:07:49.160675,6347339,1614,452,1054,-1003,-639,-265,125,109,-81
14769,8089,0,2023-03-10T14:07:49.165639,6347343,1614,452,1054,-1003,-639,-265,125,109,-81
14770,8090,0,2023-03-10T14:07:49.170196,6347348,1614,452,1054,-1003,-639,-265,125,109,-81
14771,8091,0,2023-03-10T14:07:49.174755,6347353,1614,452,1054,-1003,-639,-265,125,109,-81
14772,8092,0,2023-03-10T14:07:49.179674,6347358,1614,452,1054,-1003,-639,-265,125,109,-81
14773,8093,0,2023-03-10T14:07:49.184246,6347363,1624,458,1064,-1021,-607,-284,125,109,-81
14774,8094,0,2023-03-10T14:07:49.189114,6347368,1624,458,1064,-1021,-607,-284,125,109,-81
14775,8095,0,2023-03-10T14:07:49.193477,6347372,1624,458,1064,-1021,-607,-284,125,109,-81
14776,8096,0,2023-03-10T14:07:49.198623,6347376,1624,458,1064,-1021,-607,-284,125,109,-81
14777,8097,0,2023-03-10T14:07:49.203581,6347382,1608,447,1059,-995,-654,-259,119,113,-89
14778,8098,0,2023-03-10T14:07:49.208448,6347386,1608,447,1059,-995,-654,-259,119,113,-89
14779,8099,0,2023-03-10T14:07:49.212976,6347392,1608,447,1059,-995,-654,-259,119,113,-89
14780,8100,0,2023-03-10T14:07:49.217482,6347396,1608,447,1059,-995,-654,-259,119,113,-89
14781,8101,0,2023-03-10T14:07:49.222026,6347401,1626,460,1059,-1011,-625,-275,119,113,-89
14782,8102,0,2023-03-10T14:07:49.227030,6347405,1626,460,1059,-1011,-625,-275,119,113,-89
14783,8103,0,2023-03-10T14:07:49.231467,6347410,1626,460,1059,-1011,-625,-275,119,113,-89
14784,8104,0,2023-03-10T14:07:49.235999,6347414,1626,460,1059,-1011,-625,-275,119,113,-89
14785,8105,0,2023-03-10T14:07:49.240385,6347418,1626,460,1059,-1011,-625,-275,119,113,-89
14786,8106,0,2023-03-10T14:07:49.245311,6347423,1599,438,1057,-993,-631,-229,119,113,-89
14787,8107,0,2023-03-10T14:07:49.250401,6347428,1599,438,1057,-993,-631,-229,119,113,-89
14788,8108,0,2023-03-10T14:07:49.254992,6347433,1599,438,1057,-993,-631,-229,119,113,-89
14789,8109,0,2023-03-10T14:07:49.260080,6347439,1599,438,1057,-993,-631,-229,119,113,-89
14790,8110,0,2023-03-10T14:07:49.264556,6347443,1635,457,1059,-1000,-655,-284,119,113,-89
14791,8111,0,2023-03-10T14:07:49.269405,6347448,1635,457,1059,-1000,-655,-284,119,113,-89
14792,8112,0,2023-03-10T14:07:49.274038,6347452,1635,457,1059,-1000,-655,-284,119,113,-89
14793,8113,0,2023-03-10T14:07:49.278346,6347457,1635,457,1059,-1000,-655,-284,119,113,-89
14794,8114,0,2023-03-10T14:07:49.283194,6347461,1618,448,1052,-1011,-623,-254,119,113,-89
14795,8115,0,2023-03-10T14:07:49.288453,6347466,1618,448,1052,-1011,-623,-254,119,113,-89
14796,8116,0,2023-03-10T14:07:49.293186,6347471,1618,448,1052,-1011,-623,-254,119,113,-89
14797,8117,0,2023-03-10T14:07:49.297781,6347475,1618,448,1052,-1011,-623,-254,119,113,-89
14798,8118,0,2023-03-10T14:07:49.303148,6347482,1628,458,1058,-1000,-640,-277,119,113,-89
14799,8119,0,2023-03-10T14:07:49.308240,6347487,1628,458,1058,-1000,-640,-277,119,113,-89
14800,8120,0,2023-03-10T14:07:49.312725,6347491,1628,458,1058,-1000,-640,-277,119,113,-89
14801,8121,0,2023-03-10T14:07:49.317521,6347496,1628,458,1058,-1000,-640,-277,119,113,-89
14802,8122,0,2023-03-10T14:07:49.322461,6347501,1607,444,1055,-1026,-633,-263,119,113,-89
14803,8123,0,2023-03-10T14:07:49.327631,6347506,1607,444,1055,-1026,-633,-263,119,113,-89
14804,8124,0,2023-03-10T14:07:49.332199,6347510,1607,444,1055,-1026,-633,-263,119,113,-89
14805,8125,0,2023-03-10T14:07:49.336558,6347515,1607,444,1055,-1026,-633,-263,119,113,-89
14806,8126,0,2023-03-10T14:07:49.341624,6347520,1616,451,1054,-1012,-607,-280,119,113,-85
14807,8127,0,2023-03-10T14:07:49.346585,6347525,1616,451,1054,-1012,-607,-280,119,113,-85
14808,8128,0,2023-03-10T14:07:49.351063,6347530,1616,451,1054,-1012,-607,-280,119,113,-85
14809,8129,0,2023-03-10T14:07:49.355608,6347534,1616,451,1054,-1012,-607,-280,119,113,-85
14810,8130,0,2023-03-10T14:07:49.360333,6347539,1616,451,1054,-1012,-607,-280,119,113,-85
14811,8131,0,2023-03-10T14:07:49.364626,6347543,1629,450,1056,-1011,-648,-267,119,113,-85
14812,8132,0,2023-03-10T14:07:49.369758,6347548,1629,450,1056,-1011,-648,-267,119,113,-85
14813,8133,0,2023-03-10T14:07:49.373987,6347552,1629,450,1056,-1011,-648,-267,119,113,-85
14814,8134,0,2023-03-10T14:07:49.378765,6347557,1629,450,1056,-1011,-648,-267,119,113,-85
14815,8135,0,2023-03-10T14:07:49.383051,6347561,1617,450,1048,-1004,-634,-261,119,113,-85
14816,8136,0,2023-03-10T14:07:49.387962,6347567,1617,450,1048,-1004,-634,-261,119,113,-85
14817,8137,0,2023-03-10T14:07:49.392338,6347571,1617,450,1048,-1004,-634,-261,119,113,-85
14818,8138,0,2023-03-10T14:07:49.396771,6347575,1617,450,1048,-1004,-634,-261,119,113,-85
14819,8139,0,2023-03-10T14:07:49.401198,6347580,1616,448,1047,-979,-638,-240,119,113,-85
14820,8140,0,2023-03-10T14:07:49.406350,6347585,1616,448,1047,-979,-638,-240,119,113,-85
14821,8141,0,2023-03-10T14:07:49.410750,6347589,1616,448,1047,-979,-638,-240,119,113,-85
14822,8142,0,2023-03-10T14:07:49.415033,6347593,1616,448,1047,-979,-638,-240,119,113,-85
14823,8143,0,2023-03-10T14:07:49.420548,6347598,1616,448,1047,-979,-638,-240,119,113,-85
14824,8144,0,2023-03-10T14:07:49.425033,6347603,1623,452,1056,-972,-625,-245,119,113,-85
14825,8145,0,2023-03-10T14:07:49.429922,6347609,1623,452,1056,-972,-625,-245,119,113,-85
14826,8146,0,2023-03-10T14:07:49.434511,6347613,1623,452,1056,-972,-625,-245,119,113,-85
14827,8147,0,2023-03-10T14:07:49.439968,6347618,1623,452,1056,-972,-625,-245,119,113,-85
14828,8148,0,2023-03-10T14:07:49.444662,6347623,1638,462,1047,-1036,-653,-298,119,113,-85
14829,8149,0,2023-03-10T14:07:49.449607,6347628,1638,462,1047,-1036,-653,-298,119,113,-85
14830,8150,0,2023-03-10T14:07:49.454295,6347632,1638,462,1047,-1036,-653,-298,119,113,-85
14831,8151,0,2023-03-10T14:07:49.459057,6347637,1638,462,1047,-1036,-653,-298,119,113,-85
14832,8152,0,2023-03-10T14:07:49.463688,6347642,1604,442,1036,-1003,-670,-227,119,109,-85
14833,8153,0,2023-03-10T14:07:49.468302,6347646,1604,442,1036,-1003,-670,-227,119,109,-85
14834,8154,0,2023-03-10T14:07:49.472826,6347651,1604,442,1036,-1003,-670,-227,119,109,-85
14835,8155,0,2023-03-10T14:07:49.477215,6347656,1604,442,1036,-1003,-670,-227,119,109,-85
14836,8156,0,2023-03-10T14:07:49.482195,6347661,1621,451,1072,-991,-592,-273,119,109,-85
14837,8157,0,2023-03-10T14:07:49.487299,6347666,1621,451,1072,-991,-592,-273,119,109,-85
14838,8158,0,2023-03-10T14:07:49.491717,6347670,1621,451,1072,-991,-592,-273,119,109,-85
14839,8159,0,2023-03-10T14:07:49.496297,6347674,1621,451,1072,-991,-592,-273,119,109,-85
14840,8160,0,2023-03-10T14:07:49.501660,6347680,1631,458,1051,-1042,-613,-303,119,109,-85
14841,8161,0,2023-03-10T14:07:49.506665,6347685,1631,458,1051,-1042,-613,-303,119,109,-85
14842,8162,0,2023-03-10T14:07:49.511775,6347689,1631,458,1051,-1042,-613,-303,119,109,-85
14843,8163,0,2023-03-10T14:07:49.516419,6347695,1631,458,1051,-1042,-613,-303,119,109,-85
14844,8164,0,2023-03-10T14:07:49.521714,6347700,1626,450,1055,-1005,-645,-264,119,109,-85
14845,8165,0,2023-03-10T14:07:49.526765,6347705,1626,450,1055,-1005,-645,-264,119,109,-85
14846,8166,0,2023-03-10T14:07:49.531359,6347710,1626,450,1055,-1005,-645,-264,119,109,-85
14847,8167,0,2023-03-10T14:07:49.535884,6347714,1626,450,1055,-1005,-645,-264,119,109,-85
14848,8168,0,2023-03-10T14:07:49.540920,6347719,1626,450,1055,-1005,-645,-264,119,109,-85
14849,8169,0,2023-03-10T14:07:49.545270,6347723,1616,451,1044,-1005,-653,-267,119,109,-85
14850,8170,0,2023-03-10T14:07:49.550445,6347728,1616,451,1044,-1005,-653,-267,119,109,-85
14851,8171,0,2023-03-10T14:07:49.554970,6347734,1616,451,1044,-1005,-653,-267,119,109,-85
14852,8172,0,2023-03-10T14:07:49.559710,6347738,1616,451,1044,-1005,-653,-267,119,109,-85
14853,8173,0,2023-03-10T14:07:49.563989,6347743,1630,448,1054,-1005,-617,-271,119,109,-85
14854,8174,0,2023-03-10T14:07:49.568927,6347748,1630,448,1054,-1005,-617,-271,119,109,-85
14855,8175,0,2023-03-10T14:07:49.573418,6347752,1630,448,1054,-1005,-617,-271,119,109,-85
14856,8176,0,2023-03-10T14:07:49.577984,6347756,1630,448,1054,-1005,-617,-271,119,109,-85
14857,8177,0,2023-03-10T14:07:49.583128,6347761,1611,449,1049,-998,-667,-262,119,109,-85
14858,8178,0,2023-03-10T14:07:49.588245,6347766,1611,449,1049,-998,-667,-262,119,109,-85
14859,8179,0,2023-03-10T14:07:49.592689,6347771,1611,449,1049,-998,-667,-262,119,109,-85
14860,8180,0,2023-03-10T14:07:49.597010,6347776,1611,449,1049,-998,-667,-262,119,109,-85
14861,8181,0,2023-03-10T14:07:49.601711,6347781,1635,455,1057,-1018,-613,-276,117,107,-83
14862,8182,0,2023-03-10T14:07:49.606973,6347785,1635,455,1057,-1018,-613,-276,117,107,-83
14863,8183,0,2023-03-10T14:07:49.611557,6347790,1635,455,1057,-1018,-613,-276,117,107,-83
14864,8184,0,2023-03-10T14:07:49.615850,6347794,1635,455,1057,-1018,-613,-276,117,107,-83
14865,8185,0,2023-03-10T14:07:49.620726,6347799,1635,455,1057,-1018,-613,-276,117,107,-83
14866,8186,0,2023-03-10T14:07:49.625047,6347803,1609,446,1057,-983,-632,-254,117,107,-83
14867,8187,0,2023-03-10T14:07:49.629968,6347808,1609,446,1057,-983,-632,-254,117,107,-83
14868,8188,0,2023-03-10T14:07:49.634601,6347812,1609,446,1057,-983,-632,-254,117,107,-83
14869,8189,0,2023-03-10T14:07:49.639760,6347819,1609,446,1057,-983,-632,-254,117,107,-83
14870,8190,0,2023-03-10T14:07:49.644094,6347823,1614,444,1047,-1018,-650,-271,117,107,-83
14871,8191,0,2023-03-10T14:07:49.648949,6347828,1614,444,1047,-1018,-650,-271,117,107,-83
14872,8192,0,2023-03-10T14:07:49.653524,6347832,1614,444,1047,-1018,-650,-271,117,107,-83
14873,8193,0,2023-03-10T14:07:49.657985,6347836,1614,444,1047,-1018,-650,-271,117,107,-83
14874,8194,0,2023-03-10T14:07:49.662923,6347841,1625,452,1061,-1002,-623,-268,117,107,-83
14875,8195,0,2023-03-10T14:07:49.668168,6347846,1625,452,1061,-1002,-623,-268,117,107,-83
14876,8196,0,2023-03-10T14:07:49.672779,6347851,1625,452,1061,-1002,-623,-268,117,107,-83
14877,8197,0,2023-03-10T14:07:49.677461,6347855,1625,452,1061,-1002,-623,-268,117,107,-83
14878,8198,0,2023-03-10T14:07:49.682558,6347860,1626,453,1045,-1008,-651,-270,117,107,-83
14879,8199,0,2023-03-10T14:07:49.687388,6347866,1626,453,1045,-1008,-651,-270,117,107,-83
14880,8200,0,2023-03-10T14:07:49.691907,6347871,1626,453,1045,-1008,-651,-270,117,107,-83
14881,8201,0,2023-03-10T14:07:49.696259,6347875,1626,453,1045,-1008,-651,-270,117,107,-83
14882,8202,0,2023-03-10T14:07:49.700642,6347879,1626,453,1045,-1008,-651,-270,117,107,-83
14883,8203,0,2023-03-10T14:07:49.705288,6347884,1620,448,1047,-1015,-622,-260,117,107,-83
14884,8204,0,2023-03-10T14:07:49.710159,6347888,1620,448,1047,-1015,-622,-260,117,107,-83
14885,8205,0,2023-03-10T14:07:49.714534,6347893,1620,448,1047,-1015,-622,-260,117,107,-83
14886,8206,0,2023-03-10T14:07:49.719598,6347898,1620,448,1047,-1015,-622,-260,117,107,-83
14887,8207,0,2023-03-10T14:07:49.724275,6347902,1610,447,1054,-1003,-648,-264,115,115,-79
14888,8208,0,2023-03-10T14:07:49.728591,6347908,1610,447,1054,-1003,-648,-264,115,115,-79
14889,8209,0,2023-03-10T14:07:49.733166,6347912,1610,447,1054,-1003,-648,-264,115,115,-79
14890,8210,0,2023-03-10T14:07:49.737693,6347916,1610,447,1054,-1003,-648,-264,115,115,-79
14891,8211,0,2023-03-10T14:07:49.742700,6347921,1632,455,1060,-1022,-619,-282,115,115,-79
14892,8212,0,2023-03-10T14:07:49.747628,6347926,1632,455,1060,-1022,-619,-282,115,115,-79
14893,8213,0,2023-03-10T14:07:49.752051,6347930,1632,455,1060,-1022,-619,-282,115,115,-79
14894,8214,0,2023-03-10T14:07:49.756540,6347935,1632,455,1060,-1022,-619,-282,115,115,-79
14895,8215,0,2023-03-10T14:07:49.761622,6347940,1622,457,1049,-998,-659,-254,115,115,-79
14896,8216,0,2023-03-10T14:07:49.766835,6347945,1622,457,1049,-998,-659,-254,115,115,-79
14897,8217,0,2023-03-10T14:07:49.771357,6347950,1622,457,1049,-998,-659,-254,115,115,-79
14898,8218,0,2023-03-10T14:07:49.775715,6347954,1622,457,1049,-998,-659,-254,115,115,-79
14899,8219,0,2023-03-10T14:07:49.780355,6347959,1622,457,1049,-998,-659,-254,115,115,-79
14900,8220,0,2023-03-10T14:07:49.784772,6347963,1626,452,1049,-1016,-618,-274,115,115,-79
14901,8221,0,2023-03-10T14:07:49.789696,6347968,1626,452,1049,-1016,-618,-274,115,115,-79
14902,8222,0,2023-03-10T14:07:49.794145,6347972,1626,452,1049,-1016,-618,-274,115,115,-79
14903,8223,0,2023-03-10T14:07:49.798534,6347977,1626,452,1049,-1016,-618,-274,115,115,-79
14904,8224,0,2023-03-10T14:07:49.803472,6347982,1615,449,1040,-981,-656,-237,115,115,-79
14905,8225,0,2023-03-10T14:07:49.808547,6347987,1615,449,1040,-981,-656,-237,115,115,-79
14906,8226,0,2023-03-10T14:07:49.813542,6347992,1615,449,1040,-981,-656,-237,115,115,-79
14907,8227,0,2023-03-10T14:07:49.818637,6347997,1615,449,1040,-981,-656,-237,115,115,-79
14908,8228,0,2023-03-10T14:07:49.823650,6348002,1631,450,1057,-995,-605,-266,115,115,-79
14909,8229,0,2023-03-10T14:07:49.828632,6348007,1631,450,1057,-995,-605,-266,115,115,-79
14910,8230,0,2023-03-10T14:07:49.833325,6348011,1631,450,1057,-995,-605,-266,115,115,-79
14911,8231,0,2023-03-10T14:07:49.838479,6348017,1631,450,1057,-995,-605,-266,115,115,-79
14912,8232,0,2023-03-10T14:07:49.843529,6348022,1632,456,1038,-1027,-653,-292,115,115,-79
14913,8233,0,2023-03-10T14:07:49.848544,6348026,1632,456,1038,-1027,-653,-292,115,115,-79
14914,8234,0,2023-03-10T14:07:49.853006,6348032,1632,456,1038,-1027,-653,-292,115,115,-79
14915,8235,0,2023-03-10T14:07:49.857293,6348036,1632,456,1038,-1027,-653,-292,115,115,-79
14916,8236,0,2023-03-10T14:07:49.862421,6348041,1631,453,1055,-988,-621,-233,120,104,-78
14917,8237,0,2023-03-10T14:07:49.867349,6348046,1631,453,1055,-988,-621,-233,120,104,-78
14918,8238,0,2023-03-10T14:07:49.871792,6348050,1631,453,1055,-988,-621,-233,120,104,-78
14919,8239,0,2023-03-10T14:07:49.876092,6348055,1631,453,1055,-988,-621,-233,120,104,-78
14920,8240,0,2023-03-10T14:07:49.881166,6348059,1631,453,1055,-988,-621,-233,120,104,-78
14921,8241,0,2023-03-10T14:07:49.885743,6348064,1618,450,1051,-1000,-615,-269,120,104,-78
14922,8242,0,2023-03-10T14:07:49.891322,6348069,1618,450,1051,-1000,-615,-269,120,104,-78
14923,8243,0,2023-03-10T14:07:49.895558,6348075,1618,450,1051,-1000,-615,-269,120,104,-78
14924,8244,0,2023-03-10T14:07:49.900424,6348079,1618,450,1051,-1000,-615,-269,120,104,-78
14925,8245,0,2023-03-10T14:07:49.904962,6348084,1645,458,1045,-1029,-671,-302,120,104,-78
14926,8246,0,2023-03-10T14:07:49.909884,6348088,1645,458,1045,-1029,-671,-302,120,104,-78
14927,8247,0,2023-03-10T14:07:49.914451,6348093,1645,458,1045,-1029,-671,-302,120,104,-78
14928,8248,0,2023-03-10T14:07:49.919472,6348098,1645,458,1045,-1029,-671,-302,120,104,-78
14929,8249,0,2023-03-10T14:07:49.924205,6348102,1616,444,1040,-1013,-632,-259,120,104,-78
14930,8250,0,2023-03-10T14:07:49.929104,6348107,1616,444,1040,-1013,-632,-259,120,104,-78
14931,8251,0,2023-03-10T14:07:49.933613,6348111,1616,444,1040,-1013,-632,-259,120,104,-78
14932,8252,0,2023-03-10T14:07:49.938311,6348116,1616,444,1040,-1013,-632,-259,120,104,-78
14933,8253,0,2023-03-10T14:07:49.943185,6348122,1650,464,1044,-1011,-650,-303,120,104,-78
14934,8254,0,2023-03-10T14:07:49.948197,6348127,1650,464,1044,-1011,-650,-303,120,104,-78
14935,8255,0,2023-03-10T14:07:49.952702,6348131,1650,464,1044,-1011,-650,-303,120,104,-78
14936,8256,0,2023-03-10T14:07:49.957172,6348136,1650,464,1044,-1011,-650,-303,120,104,-78
14937,8257,0,2023-03-10T14:07:49.962203,6348140,1604,444,1037,-976,-669,-216,120,104,-78
14938,8258,0,2023-03-10T14:07:49.967236,6348145,1604,444,1037,-976,-669,-216,120,104,-78
14939,8259,0,2023-03-10T14:07:49.971619,6348150,1604,444,1037,-976,-669,-216,120,104,-78
14940,8260,0,2023-03-10T14:07:49.976290,6348154,1604,444,1037,-976,-669,-216,120,104,-78
14941,8261,0,2023-03-10T14:07:49.981376,6348160,1604,444,1037,-976,-669,-216,120,104,-78
14942,8262,0,2023-03-10T14:07:49.985692,6348165,1629,456,1054,-1014,-593,-281,117,115,-79
14943,8263,0,2023-03-10T14:07:49.990703,6348169,1629,456,1054,-1014,-593,-281,117,115,-79
14944,8264,0,2023-03-10T14:07:49.995288,6348174,1629,456,1054,-1014,-593,-281,117,115,-79
14945,8265,0,2023-03-10T14:07:50.000268,6348179,1629,456,1054,-1014,-593,-281,117,115,-79
14946,8266,0,2023-03-10T14:07:50.004838,6348183,1629,456,1054,-1014,-593,-281,117,115,-79
14947,8267,0,2023-03-10T14:07:50.009396,6348188,1629,456,1054,-1014,-593,-281,117,115,-79
14948,8268,0,2023-03-10T14:07:50.014103,6348192,1629,456,1054,-1014,-593,-281,117,115,-79
14949,8269,0,2023-03-10T14:07:50.019115,6348197,1629,456,1054,-1014,-593,-281,117,115,-79
14950,8270,0,2023-03-10T14:07:50.024121,6348203,1629,456,1054,-1014,-593,-281,117,115,-79
14951,8271,0,2023-03-10T14:07:50.028585,6348207,1629,456,1054,-1014,-593,-281,117,115,-79
14952,8272,0,2023-03-10T14:07:50.032993,6348212,1629,456,1054,-1014,-593,-281,117,115,-79
14953,8273,0,2023-03-10T14:07:50.038175,6348217,1629,456,1054,-1014,-593,-281,117,115,-79
14954,8274,0,2023-03-10T14:07:50.043066,6348222,1640,455,1053,-1002,-607,-275,117,115,-79
14955,8275,0,2023-03-10T14:07:50.047600,6348226,1640,455,1053,-1002,-607,-275,117,115,-79
14956,8276,0,2023-03-10T14:07:50.052105,6348230,1640,455,1053,-1002,-607,-275,117,115,-79
14957,8277,0,2023-03-10T14:07:50.056767,6348235,1640,455,1053,-1002,-607,-275,117,115,-79
14958,8278,0,2023-03-10T14:07:50.061627,6348240,1640,455,1053,-1002,-607,-275,117,115,-79
14959,8279,0,2023-03-10T14:07:50.066269,6348244,1631,454,1047,-992,-664,-278,117,115,-79
14960,8280,0,2023-03-10T14:07:50.071397,6348250,1631,454,1047,-992,-664,-278,117,115,-79
14961,8281,0,2023-03-10T14:07:50.075806,6348255,1631,454,1047,-992,-664,-278,117,115,-79
14962,8282,0,2023-03-10T14:07:50.080422,6348259,1631,454,1047,-992,-664,-278,117,115,-79
14963,8283,0,2023-03-10T14:07:50.085043,6348263,1628,451,1043,-999,-606,-253,117,115,-79
14964,8284,0,2023-03-10T14:07:50.089409,6348268,1628,451,1043,-999,-606,-253,117,115,-79
14965,8285,0,2023-03-10T14:07:50.094070,6348272,1628,451,1043,-999,-606,-253,117,115,-79
14966,8286,0,2023-03-10T14:07:50.098540,6348277,1628,451,1043,-999,-606,-253,117,115,-79
14967,8287,0,2023-03-10T14:07:50.103648,6348281,1642,454,1061,-967,-667,-252,111,113,-83
14968,8288,0,2023-03-10T14:07:50.108735,6348288,1642,454,1061,-967,-667,-252,111,113,-83
14969,8289,0,2023-03-10T14:07:50.113487,6348292,1642,454,1061,-967,-667,-252,111,113,-83
14970,8290,0,2023-03-10T14:07:50.118657,6348297,1642,454,1061,-967,-667,-252,111,113,-83
14971,8291,0,2023-03-10T14:07:50.123415,6348302,1617,449,1031,-1022,-680,-271,111,113,-83
14972,8292,0,2023-03-10T14:07:50.128708,6348307,1617,449,1031,-1022,-680,-271,111,113,-83
14973,8293,0,2023-03-10T14:07:50.134317,6348312,1617,449,1031,-1022,-680,-271,111,113,-83
14974,8294,0,2023-03-10T14:07:50.139725,6348318,1617,449,1031,-1022,-680,-271,111,113,-83
14975,8295,0,2023-03-10T14:07:50.144682,6348323,1636,450,1041,-1013,-605,-269,111,113,-83
14976,8296,0,2023-03-10T14:07:50.149796,6348328,1636,450,1041,-1013,-605,-269,111,113,-83
14977,8297,0,2023-03-10T14:07:50.154783,6348333,1636,450,1041,-1013,-605,-269,111,113,-83
14978,8298,0,2023-03-10T14:07:50.159924,6348338,1636,450,1041,-1013,-605,-269,111,113,-83
14979,8299,0,2023-03-10T14:07:50.164487,6348343,1650,464,1047,-1007,-603,-294,111,113,-83
14980,8300,0,2023-03-10T14:07:50.169739,6348348,1650,464,1047,-1007,-603,-294,111,113,-83
14981,8301,0,2023-03-10T14:07:50.174425,6348353,1650,464,1047,-1007,-603,-294,111,113,-83
14982,8302,0,2023-03-10T14:07:50.179216,6348357,1650,464,1047,-1007,-603,-294,111,113,-83
14983,8303,0,2023-03-10T14:07:50.184308,6348362,1611,441,1038,-1006,-623,-230,111,113,-83
14984,8304,0,2023-03-10T14:07:50.189412,6348367,1611,441,1038,-1006,-623,-230,111,113,-83
14985,8305,0,2023-03-10T14:07:50.193962,6348372,1611,441,1038,-1006,-623,-230,111,113,-83
14986,8306,0,2023-03-10T14:07:50.198484,6348377,1611,441,1038,-1006,-623,-230,111,113,-83
14987,8307,0,2023-03-10T14:07:50.203949,6348382,1620,450,1051,-988,-630,-275,111,113,-83
14988,8308,0,2023-03-10T14:07:50.209105,6348388,1620,450,1051,-988,-630,-275,111,113,-83
14989,8309,0,2023-03-10T14:07:50.213933,6348392,1620,450,1051,-988,-630,-275,111,113,-83
14990,8310,0,2023-03-10T14:07:50.218200,6348397,1620,450,1051,-988,-630,-275,111,113,-83
14991,8311,0,2023-03-10T14:07:50.222453,6348401,1641,456,1038,-1027,-643,-288,111,113,-83
14992,8312,0,2023-03-10T14:07:50.227342,6348406,1641,456,1038,-1027,-643,-288,111,113,-83
14993,8313,0,2023-03-10T14:07:50.231786,6348410,1641,456,1038,-1027,-643,-288,111,113,-83
14994,8314,0,2023-03-10T14:07:50.236378,6348414,1641,456,1038,-1027,-643,-288,111,113,-83
14995,8315,0,2023-03-10T14:07:50.241283,6348420,1641,456,1038,-1027,-643,-288,111,113,-83
14996,8316,0,2023-03-10T14:07:50.245566,6348424,1638,454,1049,-987,-654,-256,116,110,-82
14997,8317,0,2023-03-10T14:07:50.251084,6348430,1638,454,1049,-987,-654,-256,116,110,-82
14998,8318,0,2023-03-10T14:07:50.255457,6348434,1638,454,1049,-987,-654,-256,116,110,-82
14999,8319,0,2023-03-10T14:07:50.260610,6348439,1638,454,1049,-987,-654,-256,116,110,-82
15000,8320,0,2023-03-10T14:07:50.265336,6348443,1620,446,1030,-1021,-644,-271,116,110,-82
15001,8321,0,2023-03-10T14:07:50.270194,6348448,1620,446,1030,-1021,-644,-271,116,110,-82
15002,8322,0,2023-03-10T14:07:50.274640,6348453,1620,446,1030,-1021,-644,-271,116,110,-82
15003,8323,0,2023-03-10T14:07:50.279551,6348459,1620,446,1030,-1021,-644,-271,116,110,-82
15004,8324,0,2023-03-10T14:07:50.284033,6348463,1638,451,1050,-1007,-617,-281,116,110,-82
15005,8325,0,2023-03-10T14:07:50.289452,6348468,1638,451,1050,-1007,-617,-281,116,110,-82
15006,8326,0,2023-03-10T14:07:50.293930,6348472,1638,451,1050,-1007,-617,-281,116,110,-82
15007,8327,0,2023-03-10T14:07:50.298451,6348477,1638,451,1050,-1007,-617,-281,116,110,-82
15008,8328,0,2023-03-10T14:07:50.303150,6348481,1621,451,1039,-994,-650,-263,116,110,-82
15009,8329,0,2023-03-10T14:07:50.308184,6348487,1621,451,1039,-994,-650,-263,116,110,-82
15010,8330,0,2023-03-10T14:07:50.312799,6348491,1621,451,1039,-994,-650,-263,116,110,-82
15011,8331,0,2023-03-10T14:07:50.317923,6348496,1621,451,1039,-994,-650,-263,116,110,-82
15012,8332,0,2023-03-10T14:07:50.323128,6348502,1652,460,1045,-1014,-626,-282,116,110,-82
15013,8333,0,2023-03-10T14:07:50.328393,6348507,1652,460,1045,-1014,-626,-282,116,110,-82
15014,8334,0,2023-03-10T14:07:50.332906,6348511,1652,460,1045,-1014,-626,-282,116,110,-82
15015,8335,0,2023-03-10T14:07:50.338744,6348517,1652,460,1045,-1014,-626,-282,116,110,-82
15016,8336,0,2023-03-10T14:07:50.343818,6348522,1616,450,1042,-974,-639,-235,116,110,-82
15017,8337,0,2023-03-10T14:07:50.349066,6348527,1616,450,1042,-974,-639,-235,116,110,-82
15018,8338,0,2023-03-10T14:07:50.353833,6348532,1616,450,1042,-974,-639,-235,116,110,-82
15019,8339,0,2023-03-10T14:07:50.358448,6348536,1616,450,1042,-974,-639,-235,116,110,-82
15020,8340,0,2023-03-10T14:07:50.363683,6348541,1635,448,1050,-1024,-626,-277,109,107,-81
15021,8341,0,2023-03-10T14:07:50.369001,6348548,1635,448,1050,-1024,-626,-277,109,107,-81
15022,8342,0,2023-03-10T14:07:50.373610,6348552,1635,448,1050,-1024,-626,-277,109,107,-81
15023,8343,0,2023-03-10T14:07:50.378159,6348557,1635,448,1050,-1024,-626,-277,109,107,-81
15024,8344,0,2023-03-10T14:07:50.383570,6348562,1635,448,1050,-1024,-626,-277,109,107,-81
15025,8345,0,2023-03-10T14:07:50.388281,6348566,1635,448,1050,-1024,-626,-277,109,107,-81
15026,8346,0,2023-03-10T14:07:50.393020,6348571,1635,448,1050,-1024,-626,-277,109,107,-81
15027,8347,0,2023-03-10T14:07:50.397545,6348576,1635,448,1050,-1024,-626,-277,109,107,-81
15028,8348,0,2023-03-10T14:07:50.402205,6348580,1635,448,1050,-1024,-626,-277,109,107,-81
15029,8349,0,2023-03-10T14:07:50.406910,6348585,1648,451,1037,-1007,-635,-266,109,107,-81
15030,8350,0,2023-03-10T14:07:50.412205,6348591,1648,451,1037,-1007,-635,-266,109,107,-81
15031,8351,0,2023-03-10T14:07:50.417101,6348595,1648,451,1037,-1007,-635,-266,109,107,-81
15032,8352,0,2023-03-10T14:07:50.422569,6348601,1624,451,1032,-1010,-626,-279,109,107,-81
15033,8353,0,2023-03-10T14:07:50.428116,6348606,1624,451,1032,-1010,-626,-279,109,107,-81
15034,8354,0,2023-03-10T14:07:50.432955,6348611,1624,451,1032,-1010,-626,-279,109,107,-81
15035,8355,0,2023-03-10T14:07:50.438175,6348616,1624,451,1032,-1010,-626,-279,109,107,-81
15036,8356,0,2023-03-10T14:07:50.443734,6348622,1625,448,1049,-1017,-613,-263,109,107,-81
15037,8357,0,2023-03-10T14:07:50.449176,6348627,1625,448,1049,-1017,-613,-263,109,107,-81
15038,8358,0,2023-03-10T14:07:50.454088,6348633,1625,448,1049,-1017,-613,-263,109,107,-81
15039,8359,0,2023-03-10T14:07:50.459225,6348637,1625,448,1049,-1017,-613,-263,109,107,-81
15040,8360,0,2023-03-10T14:07:50.463834,6348642,1646,461,1040,-1008,-661,-297,109,107,-81
15041,8361,0,2023-03-10T14:07:50.468750,6348647,1646,461,1040,-1008,-661,-297,109,107,-81
15042,8362,0,2023-03-10T14:07:50.473179,6348652,1646,461,1040,-1008,-661,-297,109,107,-81
15043,8363,0,2023-03-10T14:07:50.477615,6348656,1646,461,1040,-1008,-661,-297,109,107,-81
15044,8364,0,2023-03-10T14:07:50.483131,6348661,1621,443,1034,-1019,-627,-240,109,107,-81
15045,8365,0,2023-03-10T14:07:50.488163,6348666,1621,443,1034,-1019,-627,-240,109,107,-81
15046,8366,0,2023-03-10T14:07:50.492797,6348672,1621,443,1034,-1019,-627,-240,109,107,-81
15047,8367,0,2023-03-10T14:07:50.497450,6348676,1621,443,1034,-1019,-627,-240,109,107,-81
15048,8368,0,2023-03-10T14:07:50.502407,6348681,1648,454,1044,-1010,-639,-281,109,107,-81
15049,8369,0,2023-03-10T14:07:50.507390,6348686,1648,454,1044,-1010,-639,-281,113,119,-83
15050,8370,0,2023-03-10T14:07:50.511908,6348690,1648,454,1044,-1010,-639,-281,113,119,-83
15051,8371,0,2023-03-10T14:07:50.516684,6348695,1648,454,1044,-1010,-639,-281,113,119,-83
15052,8372,0,2023-03-10T14:07:50.522821,6348701,1624,443,1039,-1012,-640,-246,113,119,-83
15053,8373,0,2023-03-10T14:07:50.527828,6348706,1624,443,1039,-1012,-640,-246,113,119,-83
15054,8374,0,2023-03-10T14:07:50.532483,6348710,1624,443,1039,-1012,-640,-246,113,119,-83
15055,8375,0,2023-03-10T14:07:50.537435,6348716,1624,443,1039,-1012,-640,-246,113,119,-83
15056,8376,0,2023-03-10T14:07:50.544123,6348723,1652,460,1040,-1000,-633,-289,113,119,-83
15057,8377,0,2023-03-10T14:07:50.549580,6348728,1652,460,1040,-1000,-633,-289,113,119,-83
15058,8378,0,2023-03-10T14:07:50.554396,6348733,1652,460,1040,-1000,-633,-289,113,119,-83
15059,8379,0,2023-03-10T14:07:50.559103,6348737,1652,460,1040,-1000,-633,-289,113,119,-83
15060,8380,0,2023-03-10T14:07:50.564523,6348743,1636,451,1041,-982,-624,-237,113,119,-83
15061,8381,0,2023-03-10T14:07:50.570238,6348748,1636,451,1041,-982,-624,-237,113,119,-83
15062,8382,0,2023-03-10T14:07:50.574951,6348753,1636,451,1041,-982,-624,-237,113,119,-83
15063,8383,0,2023-03-10T14:07:50.581399,6348760,1636,451,1041,-982,-624,-237,113,119,-83
15064,8384,0,2023-03-10T14:07:50.586204,6348765,1636,446,1040,-997,-632,-270,113,119,-83
15065,8385,0,2023-03-10T14:07:50.591444,6348770,1636,446,1040,-997,-632,-270,113,119,-83
15066,8386,0,2023-03-10T14:07:50.596186,6348774,1636,446,1040,-997,-632,-270,113,119,-83
15067,8387,0,2023-03-10T14:07:50.601701,6348780,1636,446,1040,-997,-632,-270,113,119,-83
15068,8388,0,2023-03-10T14:07:50.606584,6348785,1631,452,1034,-1024,-638,-288,113,119,-83
15069,8389,0,2023-03-10T14:07:50.611694,6348790,1631,452,1034,-1024,-638,-288,113,119,-83
15070,8390,0,2023-03-10T14:07:50.616393,6348794,1631,452,1034,-1024,-638,-288,113,119,-83
15071,8391,0,2023-03-10T14:07:50.622084,6348801,1631,452,1034,-1024,-638,-288,113,119,-83
15072,8392,0,2023-03-10T14:07:50.627199,6348806,1648,454,1042,-1014,-634,-278,130,112,-82
15073,8393,0,2023-03-10T14:07:50.632401,6348811,1648,454,1042,-1014,-634,-278,130,112,-82
15074,8394,0,2023-03-10T14:07:50.636913,6348815,1648,454,1042,-1014,-634,-278,130,112,-82
15075,8395,0,2023-03-10T14:07:50.642371,6348821,1648,454,1042,-1014,-634,-278,130,112,-82
15076,8396,0,2023-03-10T14:07:50.647513,6348826,1636,452,1039,-1012,-634,-283,130,112,-82
15077,8397,0,2023-03-10T14:07:50.652798,6348831,1636,452,1039,-1012,-634,-283,130,112,-82
15078,8398,0,2023-03-10T14:07:50.657188,6348835,1636,452,1039,-1012,-634,-283,130,112,-82
15079,8399,0,2023-03-10T14:07:50.662367,6348840,1636,452,1039,-1012,-634,-283,130,112,-82
15080,8400,0,2023-03-10T14:07:50.666808,6348846,1627,443,1039,-1016,-611,-269,130,112,-82
15081,8401,0,2023-03-10T14:07:50.671743,6348850,1627,443,1039,-1016,-611,-269,130,112,-82
15082,8402,0,2023-03-10T14:07:50.676671,6348855,1627,443,1039,-1016,-611,-269,130,112,-82
15083,8403,0,2023-03-10T14:07:50.682266,6348860,1627,443,1039,-1016,-611,-269,130,112,-82
15084,8404,0,2023-03-10T14:07:50.687082,6348865,1634,450,1037,-1001,-705,-290,130,112,-82
15085,8405,0,2023-03-10T14:07:50.692033,6348870,1634,450,1037,-1001,-705,-290,130,112,-82
15086,8406,0,2023-03-10T14:07:50.696695,6348875,1634,450,1037,-1001,-705,-290,130,112,-82
15087,8407,0,2023-03-10T14:07:50.702289,6348880,1634,450,1037,-1001,-705,-290,130,112,-82
15088,8408,0,2023-03-10T14:07:50.706813,6348886,1645,452,1045,-1017,-629,-266,130,112,-82
15089,8409,0,2023-03-10T14:07:50.711877,6348891,1645,452,1045,-1017,-629,-266,130,112,-82
15090,8410,0,2023-03-10T14:07:50.716530,6348895,1645,452,1045,-1017,-629,-266,130,112,-82
15091,8411,0,2023-03-10T14:07:50.722494,6348901,1645,452,1045,-1017,-629,-266,130,112,-82
15092,8412,0,2023-03-10T14:07:50.727371,6348906,1631,450,1032,-1003,-610,-269,130,112,-82
15093,8413,0,2023-03-10T14:07:50.732306,6348910,1631,450,1032,-1003,-610,-269,130,112,-82
15094,8414,0,2023-03-10T14:07:50.737005,6348915,1631,450,1032,-1003,-610,-269,130,112,-82
15095,8415,0,2023-03-10T14:07:50.742778,6348920,1631,450,1032,-1003,-610,-269,130,112,-82
15096,8416,0,2023-03-10T14:07:50.747292,6348925,1634,443,1049,-1019,-619,-275,119,109,-81
15097,8417,0,2023-03-10T14:07:50.752372,6348931,1634,443,1049,-1019,-619,-275,119,109,-81
15098,8418,0,2023-03-10T14:07:50.756972,6348936,1634,443,1049,-1019,-619,-275,119,109,-81
15099,8419,0,2023-03-10T14:07:50.761458,6348940,1634,443,1049,-1019,-619,-275,119,109,-81
15100,8420,0,2023-03-10T14:07:50.766100,6348945,1633,447,1034,-1003,-676,-270,119,109,-81
15101,8421,0,2023-03-10T14:07:50.771138,6348950,1633,447,1034,-1003,-676,-270,119,109,-81
15102,8422,0,2023-03-10T14:07:50.775814,6348954,1633,447,1034,-1003,-676,-270,119,109,-81
15103,8423,0,2023-03-10T14:07:50.781222,6348959,1633,447,1034,-1003,-676,-270,119,109,-81
15104,8424,0,2023-03-10T14:07:50.785888,6348964,1640,446,1046,-1003,-607,-264,119,109,-81
15105,8425,0,2023-03-10T14:07:50.790878,6348969,1640,446,1046,-1003,-607,-264,119,109,-81
15106,8426,0,2023-03-10T14:07:50.795529,6348974,1640,446,1046,-1003,-607,-264,119,109,-81
15107,8427,0,2023-03-10T14:07:50.800133,6348979,1640,446,1046,-1003,-607,-264,119,109,-81
15108,8428,0,2023-03-10T14:07:50.804782,6348983,1640,454,1028,-1007,-658,-287,119,109,-81
15109,8429,0,2023-03-10T14:07:50.810142,6348989,1640,454,1028,-1007,-658,-287,119,109,-81
15110,8430,0,2023-03-10T14:07:50.815061,6348993,1640,454,1028,-1007,-658,-287,119,109,-81
15111,8431,0,2023-03-10T14:07:50.819711,6348998,1640,454,1028,-1007,-658,-287,119,109,-81
15112,8432,0,2023-03-10T14:07:50.824454,6349002,1640,454,1046,-1000,-617,-251,119,109,-81
15113,8433,0,2023-03-10T14:07:50.829867,6349007,1640,454,1046,-1000,-617,-251,119,109,-81
15114,8434,0,2023-03-10T14:07:50.834506,6349012,1640,454,1046,-1000,-617,-251,119,109,-81
15115,8435,0,2023-03-10T14:07:50.839369,6349018,1640,454,1046,-1000,-617,-251,119,109,-81
15116,8436,0,2023-03-10T14:07:50.844491,6349023,1622,448,1046,-996,-620,-248,119,109,-81
15117,8437,0,2023-03-10T14:07:50.849538,6349028,1622,448,1046,-996,-620,-248,119,109,-81
15118,8438,0,2023-03-10T14:07:50.854593,6349033,1622,448,1046,-996,-620,-248,119,109,-81
15119,8439,0,2023-03-10T14:07:50.859208,6349037,1622,448,1046,-996,-620,-248,119,109,-81
15120,8440,0,2023-03-10T14:07:50.864554,6349043,1658,452,1042,-1018,-668,-298,119,109,-81
15121,8441,0,2023-03-10T14:07:50.869855,6349048,1658,452,1042,-1018,-668,-298,119,109,-81
15122,8442,0,2023-03-10T14:07:50.874663,6349052,1658,452,1042,-1018,-668,-298,119,109,-81
15123,8443,0,2023-03-10T14:07:50.879890,6349059,1658,452,1042,-1018,-668,-298,119,109,-81
15124,8444,0,2023-03-10T14:07:50.885436,6349064,1634,447,1029,-1012,-634,-249,118,108,-84
15125,8445,0,2023-03-10T14:07:50.890516,6349069,1634,447,1029,-1012,-634,-249,118,108,-84
15126,8446,0,2023-03-10T14:07:50.895625,6349074,1634,447,1029,-1012,-634,-249,118,108,-84
15127,8447,0,2023-03-10T14:07:50.902718,6349081,1634,447,1029,-1012,-634,-249,118,108,-84
15128,8448,0,2023-03-10T14:07:50.907742,6349086,1655,449,1050,-966,-657,-253,118,108,-84
15129,8449,0,2023-03-10T14:07:50.913035,6349091,1655,449,1050,-966,-657,-253,118,108,-84
15130,8450,0,2023-03-10T14:07:50.918769,6349096,1655,449,1050,-966,-657,-253,118,108,-84
15131,8451,0,2023-03-10T14:07:50.923380,6349102,1625,439,1021,-1020,-681,-269,118,108,-84
15132,8452,0,2023-03-10T14:07:50.928741,6349107,1625,439,1021,-1020,-681,-269,118,108,-84
15133,8453,0,2023-03-10T14:07:50.933510,6349112,1625,439,1021,-1020,-681,-269,118,108,-84
15134,8454,0,2023-03-10T14:07:50.938066,6349116,1625,439,1021,-1020,-681,-269,118,108,-84
15135,8455,0,2023-03-10T14:07:50.943328,6349121,1646,457,1034,-1029,-593,-296,118,108,-84
15136,8456,0,2023-03-10T14:07:50.948511,6349127,1646,457,1034,-1029,-593,-296,118,108,-84
15137,8457,0,2023-03-10T14:07:50.953350,6349131,1646,457,1034,-1029,-593,-296,118,108,-84
15138,8458,0,2023-03-10T14:07:50.958202,6349136,1646,457,1034,-1029,-593,-296,118,108,-84
15139,8459,0,2023-03-10T14:07:50.962505,6349140,1646,457,1034,-1029,-593,-296,118,108,-84
15140,8460,0,2023-03-10T14:07:50.966964,6349146,1651,452,1042,-1010,-613,-288,118,108,-84
15141,8461,0,2023-03-10T14:07:50.971714,6349150,1651,452,1042,-1010,-613,-288,118,108,-84
15142,8462,0,2023-03-10T14:07:50.976670,6349155,1651,452,1042,-1010,-613,-288,118,108,-84
15143,8463,0,2023-03-10T14:07:50.981161,6349160,1651,452,1042,-1010,-613,-288,118,108,-84
15144,8464,0,2023-03-10T14:07:50.985605,6349164,1626,449,1022,-1027,-634,-272,118,108,-84
15145,8465,0,2023-03-10T14:07:50.990597,6349169,1626,449,1022,-1027,-634,-272,118,108,-84
15146,8466,0,2023-03-10T14:07:50.995133,6349173,1626,449,1022,-1027,-634,-272,118,108,-84
15147,8467,0,2023-03-10T14:07:51.000186,6349178,1626,449,1022,-1027,-634,-272,118,108,-84
15148,8468,0,2023-03-10T14:07:51.004675,6349184,1646,449,1039,-1009,-626,-273,121,113,-87
15149,8469,0,2023-03-10T14:07:51.009409,6349188,1646,449,1039,-1009,-626,-273,121,113,-87
15150,8470,0,2023-03-10T14:07:51.013765,6349193,1646,449,1039,-1009,-626,-273,121,113,-87
15151,8471,0,2023-03-10T14:07:51.018107,6349197,1646,449,1039,-1009,-626,-273,121,113,-87
15152,8472,0,2023-03-10T14:07:51.023115,6349202,1650,451,1037,-998,-665,-280,121,113,-87
15153,8473,0,2023-03-10T14:07:51.028129,6349206,1650,451,1037,-998,-665,-280,121,113,-87
15154,8474,0,2023-03-10T14:07:51.032517,6349211,1650,451,1037,-998,-665,-280,121,113,-87
15155,8475,0,2023-03-10T14:07:51.037128,6349215,1650,451,1037,-998,-665,-280,121,113,-87
15156,8476,0,2023-03-10T14:07:51.041886,6349220,1650,451,1037,-998,-665,-280,121,113,-87
15157,8477,0,2023-03-10T14:07:51.046319,6349224,1637,447,1031,-1001,-629,-259,121,113,-87
15158,8478,0,2023-03-10T14:07:51.051189,6349230,1637,447,1031,-1001,-629,-259,121,113,-87
15159,8479,0,2023-03-10T14:07:51.055499,6349234,1637,447,1031,-1001,-629,-259,121,113,-87
15160,8480,0,2023-03-10T14:07:51.060623,6349239,1637,447,1031,-1001,-629,-259,121,113,-87
15161,8481,0,2023-03-10T14:07:51.064932,6349244,1665,456,1038,-992,-648,-278,121,113,-87
15162,8482,0,2023-03-10T14:07:51.069797,6349248,1665,456,1038,-992,-648,-278,121,113,-87
15163,8483,0,2023-03-10T14:07:51.074322,6349252,1665,456,1038,-992,-648,-278,121,113,-87
15164,8484,0,2023-03-10T14:07:51.079213,6349257,1665,456,1038,-992,-648,-278,121,113,-87
15165,8485,0,2023-03-10T14:07:51.084239,6349262,1615,441,1017,-983,-678,-228,121,113,-87
15166,8486,0,2023-03-10T14:07:51.089104,6349267,1615,441,1017,-983,-678,-228,121,113,-87
15167,8487,0,2023-03-10T14:07:51.093530,6349273,1615,441,1017,-983,-678,-228,121,113,-87
15168,8488,0,2023-03-10T14:07:51.098000,6349277,1615,441,1017,-983,-678,-228,121,113,-87
15169,8489,0,2023-03-10T14:07:51.103083,6349282,1648,453,1030,-1021,-598,-295,121,113,-87
15170,8490,0,2023-03-10T14:07:51.108054,6349287,1648,453,1030,-1021,-598,-295,121,113,-87
15171,8491,0,2023-03-10T14:07:51.112422,6349291,1648,453,1030,-1021,-598,-295,121,113,-87
15172,8492,0,2023-03-10T14:07:51.116608,6349295,1648,453,1030,-1021,-598,-295,121,113,-87
15173,8493,0,2023-03-10T14:07:51.121461,6349300,1648,453,1030,-1021,-598,-295,121,113,-87
15174,8494,0,2023-03-10T14:07:51.126059,6349304,1655,457,1030,-1012,-617,-286,121,113,-87
15175,8495,0,2023-03-10T14:07:51.130823,6349309,1655,457,1030,-1012,-617,-286,121,113,-87
15176,8496,0,2023-03-10T14:07:51.135319,6349314,1655,457,1030,-1012,-617,-286,121,113,-87
15177,8497,0,2023-03-10T14:07:51.140889,6349320,1655,457,1030,-1012,-617,-286,121,113,-87
15178,8498,0,2023-03-10T14:07:51.145238,6349324,1623,448,1026,-1021,-623,-270,123,119,-87
15179,8499,0,2023-03-10T14:07:51.150032,6349329,1623,448,1026,-1021,-623,-270,123,119,-87
15180,8500,0,2023-03-10T14:07:51.154508,6349333,1623,448,1026,-1021,-623,-270,123,119,-87
15181,8501,0,2023-03-10T14:07:51.158969,6349337,1623,448,1026,-1021,-623,-270,123,119,-87
15182,8502,0,2023-03-10T14:07:51.164130,6349342,1640,448,1034,-990,-640,-260,123,119,-87
15183,8503,0,2023-03-10T14:07:51.169110,6349347,1640,448,1034,-990,-640,-260,123,119,-87
15184,8504,0,2023-03-10T14:07:51.173748,6349352,1640,448,1034,-990,-640,-260,123,119,-87
15185,8505,0,2023-03-10T14:07:51.178725,6349358,1640,448,1034,-990,-640,-260,123,119,-87
15186,8506,0,2023-03-10T14:07:51.183767,6349363,1642,449,1042,-992,-628,-264,123,119,-87
15187,8507,0,2023-03-10T14:07:51.188771,6349367,1642,449,1042,-992,-628,-264,123,119,-87
15188,8508,0,2023-03-10T14:07:51.193151,6349372,1642,449,1042,-992,-628,-264,123,119,-87
15189,8509,0,2023-03-10T14:07:51.197901,6349376,1642,449,1042,-992,-628,-264,123,119,-87
15190,8510,0,2023-03-10T14:07:51.203478,6349382,1654,449,1032,-1033,-653,-287,123,119,-87
15191,8511,0,2023-03-10T14:07:51.208208,6349386,1654,449,1032,-1033,-653,-287,123,119,-87
15192,8512,0,2023-03-10T14:07:51.212724,6349391,1654,449,1032,-1033,-653,-287,123,119,-87
15193,8513,0,2023-03-10T14:07:51.217061,6349395,1654,449,1032,-1033,-653,-287,123,119,-87
15194,8514,0,2023-03-10T14:07:51.222094,6349401,1654,449,1032,-1033,-653,-287,123,119,-87
15195,8515,0,2023-03-10T14:07:51.226544,6349405,1626,442,1016,-1001,-671,-256,123,119,-87
15196,8516,0,2023-03-10T14:07:51.231278,6349410,1626,442,1016,-1001,-671,-256,123,119,-87
15197,8517,0,2023-03-10T14:07:51.235696,6349414,1626,442,1016,-1001,-671,-256,123,119,-87
15198,8518,0,2023-03-10T14:07:51.240849,6349419,1626,442,1016,-1001,-671,-256,123,119,-87
15199,8519,0,2023-03-10T14:07:51.245165,6349424,1654,454,1040,-1013,-595,-285,123,119,-87
15200,8520,0,2023-03-10T14:07:51.249841,6349428,1654,454,1040,-1013,-595,-285,123,119,-87
15201,8521,0,2023-03-10T14:07:51.254625,6349432,1654,454,1040,-1013,-595,-285,123,119,-87
15202,8522,0,2023-03-10T14:07:51.259234,6349437,1654,454,1040,-1013,-595,-285,123,119,-87
15203,8523,0,2023-03-10T14:07:51.263660,6349442,1647,456,1035,-1006,-629,-289,123,119,-87
15204,8524,0,2023-03-10T14:07:51.268969,6349447,1647,456,1035,-1006,-629,-289,122,112,-82
15205,8525,0,2023-03-10T14:07:51.274769,6349453,1647,456,1035,-1006,-629,-289,122,112,-82
15206,8526,0,2023-03-10T14:07:51.279210,6349458,1647,456,1035,-1006,-629,-289,122,112,-82
15207,8527,0,2023-03-10T14:07:51.284100,6349463,1639,447,1031,-1017,-628,-275,122,112,-82
15208,8528,0,2023-03-10T14:07:51.289122,6349467,1639,447,1031,-1017,-628,-275,122,112,-82
15209,8529,0,2023-03-10T14:07:51.293618,6349472,1639,447,1031,-1017,-628,-275,122,112,-82
15210,8530,0,2023-03-10T14:07:51.298227,6349476,1639,447,1031,-1017,-628,-275,122,112,-82
15211,8531,0,2023-03-10T14:07:51.303391,6349481,1643,446,1040,-1001,-611,-277,122,112,-82
15212,8532,0,2023-03-10T14:07:51.308637,6349487,1643,446,1040,-1001,-611,-277,122,112,-82
15213,8533,0,2023-03-10T14:07:51.313304,6349492,1643,446,1040,-1001,-611,-277,122,112,-82
15214,8534,0,2023-03-10T14:07:51.317726,6349497,1643,446,1040,-1001,-611,-277,122,112,-82
15215,8535,0,2023-03-10T14:07:51.321906,6349501,1643,446,1040,-1001,-611,-277,122,112,-82
15216,8536,0,2023-03-10T14:07:51.326396,6349505,1633,442,1027,-982,-678,-231,122,112,-82
15217,8537,0,2023-03-10T14:07:51.331197,6349509,1633,442,1027,-982,-678,-231,122,112,-82
15218,8538,0,2023-03-10T14:07:51.335555,6349514,1633,442,1027,-982,-678,-231,122,112,-82
15219,8539,0,2023-03-10T14:07:51.340641,6349519,1633,442,1027,-982,-678,-231,122,112,-82
15220,8540,0,2023-03-10T14:07:51.344958,6349523,1650,455,1040,-1005,-625,-276,122,112,-82
15221,8541,0,2023-03-10T14:07:51.349736,6349529,1650,455,1040,-1005,-625,-276,122,112,-82
15222,8542,0,2023-03-10T14:07:51.354282,6349533,1650,455,1040,-1005,-625,-276,122,112,-82
15223,8543,0,2023-03-10T14:07:51.359105,6349538,1650,455,1040,-1005,-625,-276,122,112,-82
15224,8544,0,2023-03-10T14:07:51.364156,6349542,1647,454,1021,-1021,-652,-285,122,112,-82
15225,8545,0,2023-03-10T14:07:51.369182,6349548,1647,454,1021,-1021,-652,-285,122,112,-82
15226,8546,0,2023-03-10T14:07:51.373609,6349552,1647,454,1021,-1021,-652,-285,122,112,-82
15227,8547,0,2023-03-10T14:07:51.378135,6349556,1647,454,1021,-1021,-652,-285,122,112,-82
15228,8548,0,2023-03-10T14:07:51.383125,6349561,1647,454,1021,-1021,-652,-285,122,112,-82
15229,8549,0,2023-03-10T14:07:51.387633,6349566,1641,446,1028,-1012,-626,-272,122,112,-82
15230,8550,0,2023-03-10T14:07:51.392968,6349572,1641,446,1028,-1012,-626,-272,122,112,-82
15231,8551,0,2023-03-10T14:07:51.397480,6349576,1641,446,1028,-1012,-626,-272,122,112,-82
15232,8552,0,2023-03-10T14:07:51.402566,6349581,1641,446,1028,-1012,-626,-272,122,112,-82
15233,8553,0,2023-03-10T14:07:51.407051,6349586,1629,446,1027,-1013,-637,-282,124,118,-92
15234,8554,0,2023-03-10T14:07:51.412048,6349591,1629,446,1027,-1013,-637,-282,124,118,-92
15235,8555,0,2023-03-10T14:07:51.416498,6349595,1629,446,1027,-1013,-637,-282,124,118,-92
15236,8556,0,2023-03-10T14:07:51.421130,6349599,1629,446,1027,-1013,-637,-282,124,118,-92
15237,8557,0,2023-03-10T14:07:51.425630,6349604,1649,447,1038,-1018,-611,-281,124,118,-92
15238,8558,0,2023-03-10T14:07:51.430703,6349609,1649,447,1038,-1018,-611,-281,124,118,-92
15239,8559,0,2023-03-10T14:07:51.435095,6349614,1649,447,1038,-1018,-611,-281,124,118,-92
15240,8560,0,2023-03-10T14:07:51.440135,6349619,1649,447,1038,-1018,-611,-281,124,118,-92
15241,8561,0,2023-03-10T14:07:51.444718,6349623,1646,453,1031,-1019,-658,-290,124,118,-92
15242,8562,0,2023-03-10T14:07:51.449489,6349628,1646,453,1031,-1019,-658,-290,124,118,-92
15243,8563,0,2023-03-10T14:07:51.454074,6349632,1646,453,1031,-1019,-658,-290,124,118,-92
15244,8564,0,2023-03-10T14:07:51.458553,6349637,1646,453,1031,-1019,-658,-290,124,118,-92
15245,8565,0,2023-03-10T14:07:51.463723,6349642,1646,453,1031,-1019,-658,-290,124,118,-92
15246,8566,0,2023-03-10T14:07:51.468503,6349647,1642,441,1027,-1016,-624,-262,124,118,-92
15247,8567,0,2023-03-10T14:07:51.473479,6349652,1642,441,1027,-1016,-624,-262,124,118,-92
15248,8568,0,2023-03-10T14:07:51.478184,6349657,1642,441,1027,-1016,-624,-262,124,118,-92
15249,8569,0,2023-03-10T14:07:51.482667,6349661,1642,441,1027,-1016,-624,-262,124,118,-92
15250,8570,0,2023-03-10T14:07:51.487107,6349666,1634,453,1030,-1006,-635,-270,124,118,-92
15251,8571,0,2023-03-10T14:07:51.492204,6349671,1634,453,1030,-1006,-635,-270,124,118,-92
15252,8572,0,2023-03-10T14:07:51.496478,6349675,1634,453,1030,-1006,-635,-270,124,118,-92
15253,8573,0,2023-03-10T14:07:51.501303,6349680,1634,453,1030,-1006,-635,-270,124,118,-92
15254,8574,0,2023-03-10T14:07:51.505615,6349684,1652,450,1035,-1001,-631,-251,124,118,-92
15255,8575,0,2023-03-10T14:07:51.510855,6349689,1652,450,1035,-1001,-631,-251,124,118,-92
15256,8576,0,2023-03-10T14:07:51.515391,6349694,1652,450,1035,-1001,-631,-251,124,118,-92
15257,8577,0,2023-03-10T14:07:51.520279,6349699,1652,450,1035,-1001,-631,-251,124,118,-92
15258,8578,0,2023-03-10T14:07:51.524621,6349703,1644,448,1035,-990,-643,-262,119,111,-81
15259,8579,0,2023-03-10T14:07:51.529522,6349708,1644,448,1035,-990,-643,-262,119,111,-81
15260,8580,0,2023-03-10T14:07:51.534168,6349713,1644,448,1035,-990,-643,-262,119,111,-81
15261,8581,0,2023-03-10T14:07:51.538480,6349717,1644,448,1035,-990,-643,-262,119,111,-81
15262,8582,0,2023-03-10T14:07:51.543522,6349722,1644,448,1035,-990,-643,-262,119,111,-81
15263,8583,0,2023-03-10T14:07:51.547944,6349726,1635,444,1005,-1015,-678,-273,119,111,-81
15264,8584,0,2023-03-10T14:07:51.552771,6349731,1635,444,1005,-1015,-678,-273,119,111,-81
15265,8585,0,2023-03-10T14:07:51.557678,6349735,1635,444,1005,-1015,-678,-273,119,111,-81
15266,8586,0,2023-03-10T14:07:51.562214,6349741,1635,444,1005,-1015,-678,-273,119,111,-81
15267,8587,0,2023-03-10T14:07:51.567016,6349745,1635,444,1005,-1015,-678,-273,119,111,-81
15268,8588,0,2023-03-10T14:07:51.571510,6349750,1635,444,1005,-1015,-678,-273,119,111,-81
15269,8589,0,2023-03-10T14:07:51.576213,6349755,1635,444,1005,-1015,-678,-273,119,111,-81
15270,8590,0,2023-03-10T14:07:51.581241,6349760,1635,444,1005,-1015,-678,-273,119,111,-81
15271,8591,0,2023-03-10T14:07:51.585827,6349764,1654,458,1024,-996,-619,-291,119,111,-81
15272,8592,0,2023-03-10T14:07:51.590858,6349769,1654,458,1024,-996,-619,-291,119,111,-81
15273,8593,0,2023-03-10T14:07:51.595248,6349773,1654,458,1024,-996,-619,-291,119,111,-81
15274,8594,0,2023-03-10T14:07:51.599801,6349778,1654,458,1024,-996,-619,-291,119,111,-81
15275,8595,0,2023-03-10T14:07:51.604696,6349783,1640,439,1026,-1003,-621,-245,119,111,-81
15276,8596,0,2023-03-10T14:07:51.609712,6349789,1640,439,1026,-1003,-621,-245,119,111,-81
15277,8597,0,2023-03-10T14:07:51.614175,6349793,1640,439,1026,-1003,-621,-245,119,111,-81
15278,8598,0,2023-03-10T14:07:51.618495,6349797,1640,439,1026,-1003,-621,-245,119,111,-81
15279,8599,0,2023-03-10T14:07:51.622826,6349801,1640,439,1026,-1003,-621,-245,119,111,-81
15280,8600,0,2023-03-10T14:07:51.627088,6349806,1645,447,1038,-1011,-615,-279,119,111,-81
15281,8601,0,2023-03-10T14:07:51.631433,6349810,1645,447,1038,-1011,-615,-279,119,111,-81
15282,8602,0,2023-03-10T14:07:51.636115,6349814,1645,447,1038,-1011,-615,-279,119,111,-81
15283,8603,0,2023-03-10T14:07:51.641473,6349820,1645,447,1038,-1011,-615,-279,119,111,-81
15284,8604,0,2023-03-10T14:07:51.646026,6349825,1649,442,1024,-1016,-714,-269,122,116,-78
15285,8605,0,2023-03-10T14:07:51.650987,6349830,1649,442,1024,-1016,-714,-269,122,116,-78
15286,8606,0,2023-03-10T14:07:51.655587,6349834,1649,442,1024,-1016,-714,-269,122,116,-78
15287,8607,0,2023-03-10T14:07:51.661107,6349840,1649,442,1024,-1016,-714,-269,122,116,-78
15288,8608,0,2023-03-10T14:07:51.665466,6349844,1653,453,1034,-1002,-629,-283,122,116,-78
15289,8609,0,2023-03-10T14:07:51.670733,6349849,1653,453,1034,-1002,-629,-283,122,116,-78
15290,8610,0,2023-03-10T14:07:51.675439,6349854,1653,453,1034,-1002,-629,-283,122,116,-78
15291,8611,0,2023-03-10T14:07:51.680859,6349859,1653,453,1034,-1002,-629,-283,122,116,-78
15292,8612,0,2023-03-10T14:07:51.685283,6349863,1643,449,1021,-1014,-599,-277,122,116,-78
15293,8613,0,2023-03-10T14:07:51.690151,6349869,1643,449,1021,-1014,-599,-277,122,116,-78
15294,8614,0,2023-03-10T14:07:51.694419,6349873,1643,449,1021,-1014,-599,-277,122,116,-78
15295,8615,0,2023-03-10T14:07:51.698975,6349878,1643,449,1021,-1014,-599,-277,122,116,-78
15296,8616,0,2023-03-10T14:07:51.703753,6349883,1636,440,1041,-987,-611,-252,122,116,-78
15297,8617,0,2023-03-10T14:07:51.708532,6349887,1636,440,1041,-987,-611,-252,122,116,-78
15298,8618,0,2023-03-10T14:07:51.712890,6349891,1636,440,1041,-987,-611,-252,122,116,-78
15299,8619,0,2023-03-10T14:07:51.717395,6349896,1636,440,1041,-987,-611,-252,122,116,-78
15300,8620,0,2023-03-10T14:07:51.722231,6349900,1636,440,1041,-987,-611,-252,122,116,-78
15301,8621,0,2023-03-10T14:07:51.726682,6349905,1645,446,1023,-1014,-676,-281,122,116,-78
15302,8622,0,2023-03-10T14:07:51.731652,6349911,1645,446,1023,-1014,-676,-281,122,116,-78
15303,8623,0,2023-03-10T14:07:51.736070,6349915,1645,446,1023,-1014,-676,-281,122,116,-78
15304,8624,0,2023-03-10T14:07:51.741114,6349920,1645,446,1023,-1014,-676,-281,122,116,-78
15305,8625,0,2023-03-10T14:07:51.745558,6349924,1656,449,1032,-1022,-614,-283,122,116,-78
15306,8626,0,2023-03-10T14:07:51.751098,6349929,1656,449,1032,-1022,-614,-283,122,116,-78
15307,8627,0,2023-03-10T14:07:51.755532,6349934,1656,449,1032,-1022,-614,-283,122,116,-78
15308,8628,0,2023-03-10T14:07:51.761264,6349939,1656,449,1032,-1022,-614,-283,122,116,-78
15309,8629,0,2023-03-10T14:07:51.765743,6349944,1657,450,1018,-1001,-701,-270,122,116,-78
15310,8630,0,2023-03-10T14:07:51.770822,6349949,1657,450,1018,-1001,-701,-270,122,116,-78
15311,8631,0,2023-03-10T14:07:51.775300,6349954,1657,450,1018,-1001,-701,-270,122,116,-78
15312,8632,0,2023-03-10T14:07:51.779826,6349959,1657,450,1018,-1001,-701,-270,122,116,-78
15313,8633,0,2023-03-10T14:07:51.784087,6349963,1648,449,1021,-1010,-648,-267,122,116,-78
15314,8634,0,2023-03-10T14:07:51.789110,6349968,1648,449,1021,-1010,-648,-267,118,122,-92
15315,8635,0,2023-03-10T14:07:51.793683,6349972,1648,449,1021,-1010,-648,-267,118,122,-92
15316,8636,0,2023-03-10T14:07:51.798143,6349977,1648,449,1021,-1010,-648,-267,118,122,-92
15317,8637,0,2023-03-10T14:07:51.803555,6349982,1648,449,1021,-1010,-648,-267,118,122,-92
15318,8638,0,2023-03-10T14:07:51.807971,6349986,1635,444,1031,-1010,-583,-269,118,122,-92
15319,8639,0,2023-03-10T14:07:51.813071,6349991,1635,444,1031,-1010,-583,-269,118,122,-92
15320,8640,0,2023-03-10T14:07:51.817556,6349997,1635,444,1031,-1010,-583,-269,118,122,-92
15321,8641,0,2023-03-10T14:07:51.822434,6350001,1635,444,1031,-1010,-583,-269,118,122,-92
15322,8642,0,2023-03-10T14:07:51.826634,6350006,1672,460,1038,-1009,-628,-311,118,122,-92
15323,8643,0,2023-03-10T14:07:51.831360,6350010,1672,460,1038,-1009,-628,-311,118,122,-92
15324,8644,0,2023-03-10T14:07:51.835647,6350014,1672,460,1038,-1009,-628,-311,118,122,-92
15325,8645,0,2023-03-10T14:07:51.840713,6350019,1672,460,1038,-1009,-628,-311,118,122,-92
15326,8646,0,2023-03-10T14:07:51.845131,6350023,1639,448,1021,-1010,-631,-242,118,122,-92
15327,8647,0,2023-03-10T14:07:51.849959,6350028,1639,448,1021,-1010,-631,-242,118,122,-92
15328,8648,0,2023-03-10T14:07:51.854157,6350032,1639,448,1021,-1010,-631,-242,118,122,-92
15329,8649,0,2023-03-10T14:07:51.858666,6350038,1639,448,1021,-1010,-631,-242,118,122,-92
15330,8650,0,2023-03-10T14:07:51.864211,6350043,1658,451,1024,-998,-639,-277,118,122,-92
15331,8651,0,2023-03-10T14:07:51.869058,6350048,1658,451,1024,-998,-639,-277,118,122,-92
15332,8652,0,2023-03-10T14:07:51.873326,6350052,1658,451,1024,-998,-639,-277,118,122,-92
15333,8653,0,2023-03-10T14:07:51.878283,6350056,1658,451,1024,-998,-639,-277,118,122,-92
15334,8654,0,2023-03-10T14:07:51.883541,6350062,1658,451,1024,-998,-639,-277,118,122,-92
15335,8655,0,2023-03-10T14:07:51.888432,6350066,1647,445,1014,-1029,-651,-276,118,122,-92
15336,8656,0,2023-03-10T14:07:51.893790,6350072,1647,445,1014,-1029,-651,-276,118,122,-92
15337,8657,0,2023-03-10T14:07:51.898338,6350076,1647,445,1014,-1029,-651,-276,118,122,-92
15338,8658,0,2023-03-10T14:07:51.904353,6350083,1666,451,1023,-1006,-634,-288,118,122,-92
15339,8659,0,2023-03-10T14:07:51.909584,6350088,1666,451,1023,-1006,-634,-288,121,113,-81
15340,8660,0,2023-03-10T14:07:51.914109,6350093,1666,451,1023,-1006,-634,-288,121,113,-81
15341,8661,0,2023-03-10T14:07:51.919415,6350097,1666,451,1023,-1006,-634,-288,121,113,-81
15342,8662,0,2023-03-10T14:07:51.925298,6350104,1664,455,1021,-1013,-636,-290,121,113,-81
15343,8663,0,2023-03-10T14:07:51.930188,6350108,1664,455,1021,-1013,-636,-290,121,113,-81
15344,8664,0,2023-03-10T14:07:51.935020,6350113,1664,455,1021,-1013,-636,-290,121,113,-81
15345,8665,0,2023-03-10T14:07:51.940094,6350118,1664,455,1021,-1013,-636,-290,121,113,-81
15346,8666,0,2023-03-10T14:07:51.945387,6350124,1632,443,1015,-1005,-642,-245,121,113,-81
15347,8667,0,2023-03-10T14:07:51.950344,6350129,1632,443,1015,-1005,-642,-245,121,113,-81
15348,8668,0,2023-03-10T14:07:51.954746,6350133,1632,443,1015,-1005,-642,-245,121,113,-81
15349,8669,0,2023-03-10T14:07:51.959614,6350138,1632,443,1015,-1005,-642,-245,121,113,-81
15350,8670,0,2023-03-10T14:07:51.964442,6350143,1665,453,1037,-1011,-617,-301,121,113,-81
15351,8671,0,2023-03-10T14:07:51.969516,6350148,1665,453,1037,-1011,-617,-301,121,113,-81
15352,8672,0,2023-03-10T14:07:51.974106,6350152,1665,453,1037,-1011,-617,-301,121,113,-81
15353,8673,0,2023-03-10T14:07:51.978689,6350157,1665,453,1037,-1011,-617,-301,121,113,-81
15354,8674,0,2023-03-10T14:07:51.983123,6350161,1665,453,1037,-1011,-617,-301,121,113,-81
15355,8675,0,2023-03-10T14:07:51.987462,6350166,1651,449,1014,-1018,-663,-274,121,113,-81
15356,8676,0,2023-03-10T14:07:51.992527,6350171,1651,449,1014,-1018,-663,-274,121,113,-81
15357,8677,0,2023-03-10T14:07:51.996877,6350176,1651,449,1014,-1018,-663,-274,121,113,-81
15358,8678,0,2023-03-10T14:07:52.002104,6350181,1651,449,1014,-1018,-663,-274,121,113,-81
15359,8679,0,2023-03-10T14:07:52.006825,6350185,1666,449,1019,-994,-634,-273,121,113,-81
15360,8680,0,2023-03-10T14:07:52.011710,6350190,1666,449,1019,-994,-634,-273,121,113,-81
15361,8681,0,2023-03-10T14:07:52.016083,6350194,1666,449,1019,-994,-634,-273,121,113,-81
15362,8682,0,2023-03-10T14:07:52.020608,6350199,1666,449,1019,-994,-634,-273,121,113,-81
15363,8683,0,2023-03-10T14:07:52.025205,6350203,1639,444,1011,-1024,-624,-272,121,113,-81
15364,8684,0,2023-03-10T14:07:52.030063,6350209,1639,444,1011,-1024,-624,-272,121,113,-81
15365,8685,0,2023-03-10T14:07:52.034425,6350213,1639,444,1011,-1024,-624,-272,121,113,-81
15366,8686,0,2023-03-10T14:07:52.038910,6350218,1639,444,1011,-1024,-624,-272,121,113,-81
15367,8687,0,2023-03-10T14:07:52.044073,6350223,1639,444,1011,-1024,-624,-272,121,113,-81
15368,8688,0,2023-03-10T14:07:52.048472,6350227,1654,450,1027,-1002,-635,-269,123,113,-79
15369,8689,0,2023-03-10T14:07:52.053526,6350232,1654,450,1027,-1002,-635,-269,123,113,-79
15370,8690,0,2023-03-10T14:07:52.058348,6350236,1654,450,1027,-1002,-635,-269,123,113,-79
15371,8691,0,2023-03-10T14:07:52.063844,6350242,1654,450,1027,-1002,-635,-269,123,113,-79
15372,8692,0,2023-03-10T14:07:52.068350,6350246,1661,454,1025,-1001,-635,-285,123,113,-79
15373,8693,0,2023-03-10T14:07:52.073463,6350252,1661,454,1025,-1001,-635,-285,123,113,-79
15374,8694,0,2023-03-10T14:07:52.077918,6350257,1661,454,1025,-1001,-635,-285,123,113,-79
15375,8695,0,2023-03-10T14:07:52.083352,6350262,1661,454,1025,-1001,-635,-285,123,113,-79
15376,8696,0,2023-03-10T14:07:52.088107,6350267,1655,444,1016,-1014,-637,-263,123,113,-79
15377,8697,0,2023-03-10T14:07:52.092935,6350271,1655,444,1016,-1014,-637,-263,123,113,-79
15378,8698,0,2023-03-10T14:07:52.097375,6350276,1655,444,1016,-1014,-637,-263,123,113,-79
15379,8699,0,2023-03-10T14:07:52.101788,6350280,1655,444,1016,-1014,-637,-263,123,113,-79
15380,8700,0,2023-03-10T14:07:52.106194,6350284,1637,440,1019,-997,-646,-257,123,113,-79
15381,8701,0,2023-03-10T14:07:52.111147,6350289,1637,440,1019,-997,-646,-257,123,113,-79
15382,8702,0,2023-03-10T14:07:52.115574,6350295,1637,440,1019,-997,-646,-257,123,113,-79
15383,8703,0,2023-03-10T14:07:52.120443,6350299,1637,440,1019,-997,-646,-257,123,113,-79
15384,8704,0,2023-03-10T14:07:52.125369,6350304,1664,443,1027,-1032,-627,-297,123,113,-79
15385,8705,0,2023-03-10T14:07:52.130541,6350309,1664,443,1027,-1032,-627,-297,123,113,-79
15386,8706,0,2023-03-10T14:07:52.135333,6350314,1664,443,1027,-1032,-627,-297,123,113,-79
15387,8707,0,2023-03-10T14:07:52.139901,6350318,1664,443,1027,-1032,-627,-297,123,113,-79
15388,8708,0,2023-03-10T14:07:52.144294,6350323,1664,443,1027,-1032,-627,-297,123,113,-79
15389,8709,0,2023-03-10T14:07:52.148644,6350327,1635,437,1009,-1004,-712,-257,123,113,-79
15390,8710,0,2023-03-10T14:07:52.153861,6350332,1635,437,1009,-1004,-712,-257,123,113,-79
15391,8711,0,2023-03-10T14:07:52.158289,6350337,1635,437,1009,-1004,-712,-257,123,113,-79
15392,8712,0,2023-03-10T14:07:52.163275,6350342,1635,437,1009,-1004,-712,-257,123,113,-79
15393,8713,0,2023-03-10T14:07:52.167741,6350346,1676,456,1030,-1010,-615,-290,128,112,-84
15394,8714,0,2023-03-10T14:07:52.172171,6350351,1676,456,1030,-1010,-615,-290,128,112,-84
15395,8715,0,2023-03-10T14:07:52.176631,6350355,1676,456,1030,-1010,-615,-290,128,112,-84
15396,8716,0,2023-03-10T14:07:52.182143,6350361,1676,456,1030,-1010,-615,-290,128,112,-84
15397,8717,0,2023-03-10T14:07:52.186632,6350365,1636,435,1020,-1012,-587,-260,128,112,-84
15398,8718,0,2023-03-10T14:07:52.192063,6350370,1636,435,1020,-1012,-587,-260,128,112,-84
15399,8719,0,2023-03-10T14:07:52.196762,6350375,1636,435,1020,-1012,-587,-260,128,112,-84
15400,8720,0,2023-03-10T14:07:52.201295,6350380,1636,435,1020,-1012,-587,-260,128,112,-84
15401,8721,0,2023-03-10T14:07:52.205837,6350385,1649,444,1033,-1004,-628,-293,128,112,-84
15402,8722,0,2023-03-10T14:07:52.210893,6350390,1649,444,1033,-1004,-628,-293,128,112,-84
15403,8723,0,2023-03-10T14:07:52.215297,6350394,1649,444,1033,-1004,-628,-293,128,112,-84
15404,8724,0,2023-03-10T14:07:52.220192,6350399,1649,444,1033,-1004,-628,-293,128,112,-84
15405,8725,0,2023-03-10T14:07:52.224647,6350403,1659,445,1029,-1035,-623,-286,128,112,-84
15406,8726,0,2023-03-10T14:07:52.229523,6350408,1659,445,1029,-1035,-623,-286,128,112,-84
15407,8727,0,2023-03-10T14:07:52.234012,6350412,1659,445,1029,-1035,-623,-286,128,112,-84
15408,8728,0,2023-03-10T14:07:52.238415,6350417,1659,445,1029,-1035,-623,-286,128,112,-84
15409,8729,0,2023-03-10T14:07:52.243975,6350423,1659,445,1029,-1035,-623,-286,128,112,-84
15410,8730,0,2023-03-10T14:07:52.248243,6350427,1652,443,1020,-999,-660,-250,128,112,-84
15411,8731,0,2023-03-10T14:07:52.253102,6350432,1652,443,1020,-999,-660,-250,128,112,-84
15412,8732,0,2023-03-10T14:07:52.257518,6350436,1652,443,1020,-999,-660,-250,128,112,-84
15413,8733,0,2023-03-10T14:07:52.262460,6350441,1652,443,1020,-999,-660,-250,128,112,-84
15414,8734,0,2023-03-10T14:07:52.267024,6350445,1657,443,1015,-1020,-629,-285,128,112,-84
15415,8735,0,2023-03-10T14:07:52.271925,6350450,1657,443,1015,-1020,-629,-285,128,112,-84
15416,8736,0,2023-03-10T14:07:52.276291,6350455,1657,443,1015,-1020,-629,-285,128,112,-84
15417,8737,0,2023-03-10T14:07:52.281360,6350459,1657,443,1015,-1020,-629,-285,128,112,-84
15418,8738,0,2023-03-10T14:07:52.285970,6350465,1643,446,1012,-1018,-631,-283,128,112,-84
15419,8739,0,2023-03-10T14:07:52.290171,6350469,1643,446,1012,-1018,-631,-283,128,112,-84
15420,8740,0,2023-03-10T14:07:52.294569,6350473,1643,446,1012,-1018,-631,-283,128,112,-84
15421,8741,0,2023-03-10T14:07:52.299085,6350478,1643,446,1012,-1018,-631,-283,128,112,-84
15422,8742,0,2023-03-10T14:07:52.303864,6350482,1643,446,1012,-1018,-631,-283,128,112,-84
15423,8743,0,2023-03-10T14:07:52.308269,6350487,1669,451,1034,-987,-650,-264,112,104,-78
15424,8744,0,2023-03-10T14:07:52.312884,6350491,1669,451,1034,-987,-650,-264,112,104,-78
15425,8745,0,2023-03-10T14:07:52.317309,6350496,1669,451,1034,-987,-650,-264,112,104,-78
15426,8746,0,2023-03-10T14:07:52.322149,6350500,1669,451,1034,-987,-650,-264,112,104,-78
15427,8747,0,2023-03-10T14:07:52.326705,6350505,1649,448,1025,-1010,-628,-269,112,104,-78
15428,8748,0,2023-03-10T14:07:52.331555,6350510,1649,448,1025,-1010,-628,-269,112,104,-78
15429,8749,0,2023-03-10T14:07:52.335965,6350515,1649,448,1025,-1010,-628,-269,112,104,-78
15430,8750,0,2023-03-10T14:07:52.341053,6350520,1649,448,1025,-1010,-628,-269,112,104,-78
15431,8751,0,2023-03-10T14:07:52.345549,6350524,1659,448,1013,-1033,-639,-299,112,104,-78
15432,8752,0,2023-03-10T14:07:52.350877,6350529,1659,448,1013,-1033,-639,-299,112,104,-78
15433,8753,0,2023-03-10T14:07:52.355126,6350534,1659,448,1013,-1033,-639,-299,112,104,-78
15434,8754,0,2023-03-10T14:07:52.360349,6350538,1659,448,1013,-1033,-639,-299,112,104,-78
15435,8755,0,2023-03-10T14:07:52.365070,6350543,1649,444,1016,-1005,-643,-261,112,104,-78
15436,8756,0,2023-03-10T14:07:52.369849,6350548,1649,444,1016,-1005,-643,-261,112,104,-78
15437,8757,0,2023-03-10T14:07:52.374322,6350553,1649,444,1016,-1005,-643,-261,112,104,-78
15438,8758,0,2023-03-10T14:07:52.378804,6350558,1649,444,1016,-1005,-643,-261,112,104,-78
15439,8759,0,2023-03-10T14:07:52.383129,6350562,1649,444,1016,-1005,-643,-261,112,104,-78
15440,8760,0,2023-03-10T14:07:52.387479,6350566,1668,452,1017,-1010,-640,-291,112,104,-78
15441,8761,0,2023-03-10T14:07:52.392022,6350571,1668,452,1017,-1010,-640,-291,112,104,-78
15442,8762,0,2023-03-10T14:07:52.396492,6350575,1668,452,1017,-1010,-640,-291,112,104,-78
15443,8763,0,2023-03-10T14:07:52.401009,6350579,1668,452,1017,-1010,-640,-291,112,104,-78
15444,8764,0,2023-03-10T14:07:52.405368,6350584,1658,449,1017,-1015,-623,-273,112,104,-78
15445,8765,0,2023-03-10T14:07:52.410440,6350589,1658,449,1017,-1015,-623,-273,112,104,-78
15446,8766,0,2023-03-10T14:07:52.415072,6350594,1658,449,1017,-1015,-623,-273,112,104,-78
15447,8767,0,2023-03-10T14:07:52.420245,6350599,1658,449,1017,-1015,-623,-273,112,104,-78
15448,8768,0,2023-03-10T14:07:52.425190,6350604,1644,439,1024,-1017,-619,-264,119,115,-78
15449,8769,0,2023-03-10T14:07:52.430177,6350609,1644,439,1024,-1017,-619,-264,119,115,-83
15450,8770,0,2023-03-10T14:07:52.434725,6350613,1644,439,1024,-1017,-619,-264,119,115,-83
15451,8771,0,2023-03-10T14:07:52.439120,6350617,1644,439,1024,-1017,-619,-264,119,115,-83
15452,8772,0,2023-03-10T14:07:52.444503,6350623,1644,439,1024,-1017,-619,-264,119,115,-83
15453,8773,0,2023-03-10T14:07:52.449212,6350627,1659,450,1024,-1012,-704,-288,119,115,-83
15454,8774,0,2023-03-10T14:07:52.454529,6350633,1659,450,1024,-1012,-704,-288,119,115,-83
15455,8775,0,2023-03-10T14:07:52.459008,6350638,1659,450,1024,-1012,-704,-288,119,115,-83
15456,8776,0,2023-03-10T14:07:52.464764,6350644,1659,450,1024,-1012,-704,-288,119,115,-83
15457,8777,0,2023-03-10T14:07:52.469399,6350648,1663,448,1019,-1015,-625,-268,119,115,-83
15458,8778,0,2023-03-10T14:07:52.474543,6350653,1663,448,1019,-1015,-625,-268,119,115,-83
15459,8779,0,2023-03-10T14:07:52.478810,6350657,1663,448,1019,-1015,-625,-268,119,115,-83
15460,8780,0,2023-03-10T14:07:52.484131,6350663,1663,448,1019,-1015,-625,-268,119,115,-83
15461,8781,0,2023-03-10T14:07:52.488545,6350667,1654,448,1006,-1019,-611,-274,119,115,-83
15462,8782,0,2023-03-10T14:07:52.493055,6350671,1654,448,1006,-1019,-611,-274,119,115,-83
15463,8783,0,2023-03-10T14:07:52.497469,6350676,1654,448,1006,-1019,-611,-274,119,115,-83
15464,8784,0,2023-03-10T14:07:52.502330,6350681,1654,448,1006,-1019,-611,-274,119,115,-83
15465,8785,0,2023-03-10T14:07:52.507087,6350686,1650,436,1020,-1013,-622,-260,119,115,-83
15466,8786,0,2023-03-10T14:07:52.512061,6350691,1650,436,1020,-1013,-622,-260,119,115,-83
15467,8787,0,2023-03-10T14:07:52.516513,6350695,1650,436,1020,-1013,-622,-260,119,115,-83
15468,8788,0,2023-03-10T14:07:52.522068,6350701,1650,436,1020,-1013,-622,-260,119,115,-83
15469,8789,0,2023-03-10T14:07:52.526565,6350705,1663,447,1015,-1012,-650,-291,119,115,-83
15470,8790,0,2023-03-10T14:07:52.531627,6350710,1663,447,1015,-1012,-650,-291,119,115,-83
15471,8791,0,2023-03-10T14:07:52.536006,6350714,1663,447,1015,-1012,-650,-291,119,115,-83
15472,8792,0,2023-03-10T14:07:52.540402,6350718,1663,447,1015,-1012,-650,-291,119,115,-83
15473,8793,0,2023-03-10T14:07:52.544728,6350724,1663,447,1015,-1012,-650,-291,119,115,-83
15474,8794,0,2023-03-10T14:07:52.549337,6350728,1660,446,1031,-996,-605,-252,118,110,-82
15475,8795,0,2023-03-10T14:07:52.554294,6350733,1660,446,1031,-996,-605,-252,118,110,-82
15476,8796,0,2023-03-10T14:07:52.558992,6350737,1660,446,1031,-996,-605,-252,118,110,-82
15477,8797,0,2023-03-10T14:07:52.564038,6350743,1660,446,1031,-996,-605,-252,118,110,-82
15478,8798,0,2023-03-10T14:07:52.568480,6350747,1665,450,1022,-976,-695,-274,118,110,-82
15479,8799,0,2023-03-10T14:07:52.573274,6350751,1665,450,1022,-976,-695,-274,118,110,-82
15480,8800,0,2023-03-10T14:07:52.578297,6350756,1665,450,1022,-976,-695,-274,118,110,-82
15481,8801,0,2023-03-10T14:07:52.583592,6350761,1665,450,1022,-976,-695,-274,118,110,-82
15482,8802,0,2023-03-10T14:07:52.588018,6350767,1657,443,1008,-1027,-654,-273,118,110,-82
15483,8803,0,2023-03-10T14:07:52.593069,6350772,1657,443,1008,-1027,-654,-273,118,110,-82
15484,8804,0,2023-03-10T14:07:52.597686,6350776,1657,443,1008,-1027,-654,-273,118,110,-82
15485,8805,0,2023-03-10T14:07:52.602725,6350781,1657,443,1008,-1027,-654,-273,118,110,-82
15486,8806,0,2023-03-10T14:07:52.607371,6350786,1652,441,1015,-1006,-587,-274,118,110,-82
15487,8807,0,2023-03-10T14:07:52.612142,6350791,1652,441,1015,-1006,-587,-274,118,110,-82
15488,8808,0,2023-03-10T14:07:52.616782,6350795,1652,441,1015,-1006,-587,-274,118,110,-82
15489,8809,0,2023-03-10T14:07:52.622365,6350800,1652,441,1015,-1006,-587,-274,118,110,-82
15490,8810,0,2023-03-10T14:07:52.626777,6350806,1688,462,1023,-999,-627,-299,118,110,-82
15491,8811,0,2023-03-10T14:07:52.631633,6350811,1688,462,1023,-999,-627,-299,118,110,-82
15492,8812,0,2023-03-10T14:07:52.636162,6350815,1688,462,1023,-999,-627,-299,118,110,-82
15493,8813,0,2023-03-10T14:07:52.641020,6350820,1688,462,1023,-999,-627,-299,118,110,-82
15494,8814,0,2023-03-10T14:07:52.645583,6350824,1638,438,1007,-1006,-632,-231,118,110,-82
15495,8815,0,2023-03-10T14:07:52.650820,6350829,1638,438,1007,-1006,-632,-231,118,110,-82
15496,8816,0,2023-03-10T14:07:52.655341,6350834,1638,438,1007,-1006,-632,-231,118,110,-82
15497,8817,0,2023-03-10T14:07:52.659896,6350838,1638,438,1007,-1006,-632,-231,118,110,-82
15498,8818,0,2023-03-10T14:07:52.664768,6350843,1638,438,1007,-1006,-632,-231,118,110,-82
15499,8819,0,2023-03-10T14:07:52.669127,6350848,1679,454,1027,-1002,-650,-293,118,110,-82
15500,8820,0,2023-03-10T14:07:52.674017,6350853,1679,454,1027,-1002,-650,-293,118,110,-82
15501,8821,0,2023-03-10T14:07:52.678670,6350857,1679,454,1027,-1002,-650,-293,118,110,-82
15502,8822,0,2023-03-10T14:07:52.683911,6350862,1679,454,1027,-1002,-650,-293,118,110,-82
15503,8823,0,2023-03-10T14:07:52.688337,6350867,1638,439,992,-1028,-702,-257,120,112,-86
15504,8824,0,2023-03-10T14:07:52.693148,6350872,1638,439,992,-1028,-702,-257,120,112,-86
15505,8825,0,2023-03-10T14:07:52.698005,6350876,1638,439,992,-1028,-702,-257,120,112,-86
15506,8826,0,2023-03-10T14:07:52.703153,6350881,1638,439,992,-1028,-702,-257,120,112,-86
15507,8827,0,2023-03-10T14:07:52.708016,6350886,1670,450,1022,-1004,-596,-284,120,112,-86
15508,8828,0,2023-03-10T14:07:52.713065,6350892,1670,450,1022,-1004,-596,-284,120,112,-86
15509,8829,0,2023-03-10T14:07:52.717485,6350896,1670,450,1022,-1004,-596,-284,120,112,-86
15510,8830,0,2023-03-10T14:07:52.722684,6350901,1670,450,1022,-1004,-596,-284,120,112,-86
15511,8831,0,2023-03-10T14:07:52.727030,6350906,1675,454,1015,-1011,-604,-289,120,112,-86
15512,8832,0,2023-03-10T14:07:52.731962,6350911,1675,454,1015,-1011,-604,-289,120,112,-86
15513,8833,0,2023-03-10T14:07:52.736549,6350915,1675,454,1015,-1011,-604,-289,120,112,-86
15514,8834,0,2023-03-10T14:07:52.740939,6350919,1675,454,1015,-1011,-604,-289,120,112,-86
15515,8835,0,2023-03-10T14:07:52.745206,6350924,1644,443,1006,-1009,-632,-263,120,112,-86
15516,8836,0,2023-03-10T14:07:52.749598,6350928,1644,443,1006,-1009,-632,-263,120,112,-86
15517,8837,0,2023-03-10T14:07:52.754101,6350932,1644,443,1006,-1009,-632,-263,120,112,-86
15518,8838,0,2023-03-10T14:07:52.758596,6350938,1644,443,1006,-1009,-632,-263,120,112,-86
15519,8839,0,2023-03-10T14:07:52.763041,6350942,1644,443,1006,-1009,-632,-263,120,112,-86
15520,8840,0,2023-03-10T14:07:52.767655,6350946,1674,449,1020,-1018,-621,-291,120,112,-86
15521,8841,0,2023-03-10T14:07:52.772935,6350951,1674,449,1020,-1018,-621,-291,120,112,-86
15522,8842,0,2023-03-10T14:07:52.777140,6350956,1674,449,1020,-1018,-621,-291,120,112,-86
15523,8843,0,2023-03-10T14:07:52.782096,6350960,1674,449,1020,-1018,-621,-291,120,112,-86
15524,8844,0,2023-03-10T14:07:52.786431,6350965,1653,438,1009,-1016,-664,-254,120,112,-86
15525,8845,0,2023-03-10T14:07:52.791147,6350969,1653,438,1009,-1016,-664,-254,120,112,-86
15526,8846,0,2023-03-10T14:07:52.795785,6350974,1653,438,1009,-1016,-664,-254,120,112,-86
15527,8847,0,2023-03-10T14:07:52.800960,6350980,1653,438,1009,-1016,-664,-254,120,112,-86
15528,8848,0,2023-03-10T14:07:52.805352,6350984,1653,438,1009,-1016,-664,-254,120,112,-86
15529,8849,0,2023-03-10T14:07:52.809819,6350989,1679,449,1016,-1022,-627,-292,116,106,-86
15530,8850,0,2023-03-10T14:07:52.814747,6350993,1679,449,1016,-1022,-627,-292,116,106,-86
15531,8851,0,2023-03-10T14:07:52.819136,6350998,1679,449,1016,-1022,-627,-292,116,106,-86
15532,8852,0,2023-03-10T14:07:52.824534,6351003,1679,449,1016,-1022,-627,-292,116,106,-86
15533,8853,0,2023-03-10T14:07:52.829141,6351007,1642,436,1005,-1007,-626,-255,116,106,-86
15534,8854,0,2023-03-10T14:07:52.834305,6351012,1642,436,1005,-1007,-626,-255,116,106,-86
15535,8855,0,2023-03-10T14:07:52.839103,6351017,1642,436,1005,-1007,-626,-255,116,106,-86
15536,8856,0,2023-03-10T14:07:52.845006,6351024,1642,436,1005,-1007,-626,-255,116,106,-86
15537,8857,0,2023-03-10T14:07:52.849506,6351028,1665,448,1016,-996,-632,-281,116,106,-86
15538,8858,0,2023-03-10T14:07:52.854504,6351033,1665,448,1016,-996,-632,-281,116,106,-86
15539,8859,0,2023-03-10T14:07:52.859181,6351038,1665,448,1016,-996,-632,-281,116,106,-86
15540,8860,0,2023-03-10T14:07:52.863973,6351043,1665,448,1016,-996,-632,-281,116,106,-86
15541,8861,0,2023-03-10T14:07:52.868538,6351047,1678,452,1027,-1015,-645,-284,116,106,-86
15542,8862,0,2023-03-10T14:07:52.873519,6351052,1678,452,1027,-1015,-645,-284,116,106,-86
15543,8863,0,2023-03-10T14:07:52.878082,6351056,1678,452,1027,-1015,-645,-284,116,106,-86
15544,8864,0,2023-03-10T14:07:52.883383,6351062,1678,452,1027,-1015,-645,-284,116,106,-86
15545,8865,0,2023-03-10T14:07:52.887794,6351067,1653,442,1002,-1011,-630,-256,116,106,-86
15546,8866,0,2023-03-10T14:07:52.892896,6351072,1653,442,1002,-1011,-630,-256,116,106,-86
15547,8867,0,2023-03-10T14:07:52.897143,6351076,1653,442,1002,-1011,-630,-256,116,106,-86
15548,8868,0,2023-03-10T14:07:52.902085,6351081,1653,442,1002,-1011,-630,-256,116,106,-86
15549,8869,0,2023-03-10T14:07:52.906644,6351085,1675,454,1015,-1027,-626,-293,116,106,-86
15550,8870,0,2023-03-10T14:07:52.911760,6351090,1675,454,1015,-1027,-626,-293,116,106,-86
15551,8871,0,2023-03-10T14:07:52.916265,6351094,1675,454,1015,-1027,-626,-293,116,106,-86
15552,8872,0,2023-03-10T14:07:52.921765,6351100,1675,454,1015,-1027,-626,-293,116,106,-86
15553,8873,0,2023-03-10T14:07:52.926131,6351105,1650,440,1008,-996,-641,-238,116,106,-86
15554,8874,0,2023-03-10T14:07:52.930630,6351110,1650,440,1008,-996,-641,-238,116,106,-86
15555,8875,0,2023-03-10T14:07:52.935091,6351114,1650,440,1008,-996,-641,-238,116,106,-86
15556,8876,0,2023-03-10T14:07:52.939838,6351118,1650,440,1008,-996,-641,-238,116,106,-86
15557,8877,0,2023-03-10T14:07:52.945176,6351124,1650,440,1008,-996,-641,-238,116,106,-86
15558,8878,0,2023-03-10T14:07:52.949810,6351128,1676,451,1023,-990,-642,-278,124,112,-86
15559,8879,0,2023-03-10T14:07:52.955332,6351133,1676,451,1023,-990,-642,-278,124,112,-86
15560,8880,0,2023-03-10T14:07:52.960064,6351138,1676,451,1023,-990,-642,-278,124,112,-86
15561,8881,0,2023-03-10T14:07:52.965790,6351144,1659,441,1003,-1022,-640,-274,124,112,-86
15562,8882,0,2023-03-10T14:07:52.970674,6351150,1659,441,1003,-1022,-640,-274,124,112,-86
15563,8883,0,2023-03-10T14:07:52.975942,6351154,1659,441,1003,-1022,-640,-274,124,112,-86
15564,8884,0,2023-03-10T14:07:52.981081,6351160,1659,441,1003,-1022,-640,-274,124,112,-86
15565,8885,0,2023-03-10T14:07:52.986171,6351165,1683,447,1015,-1008,-659,-283,124,112,-86
15566,8886,0,2023-03-10T14:07:52.991003,6351170,1683,447,1015,-1008,-659,-283,124,112,-86
15567,8887,0,2023-03-10T14:07:52.995844,6351174,1683,447,1015,-1008,-659,-283,124,112,-86
15568,8888,0,2023-03-10T14:07:53.001385,6351180,1683,447,1015,-1008,-659,-283,124,112,-86
15569,8889,0,2023-03-10T14:07:53.005992,6351184,1642,443,994,-1010,-707,-263,124,112,-86
15570,8890,0,2023-03-10T14:07:53.010881,6351190,1642,443,994,-1010,-707,-263,124,112,-86
15571,8891,0,2023-03-10T14:07:53.015263,6351194,1642,443,994,-1010,-707,-263,124,112,-86
15572,8892,0,2023-03-10T14:07:53.019781,6351199,1642,443,994,-1010,-707,-263,124,112,-86
15573,8893,0,2023-03-10T14:07:53.025085,6351204,1642,443,994,-1010,-707,-263,124,112,-86
15574,8894,0,2023-03-10T14:07:53.030166,6351208,1642,443,994,-1010,-707,-263,124,112,-86
15575,8895,0,2023-03-10T14:07:53.034914,6351213,1642,443,994,-1010,-707,-263,124,112,-86
15576,8896,0,2023-03-10T14:07:53.039432,6351218,1642,443,994,-1010,-707,-263,124,112,-86
15577,8897,0,2023-03-10T14:07:53.044303,6351223,1642,443,994,-1010,-707,-263,124,112,-86
15578,8898,0,2023-03-10T14:07:53.048786,6351227,1667,449,1016,-1013,-582,-289,124,112,-86
15579,8899,0,2023-03-10T14:07:53.053617,6351233,1667,449,1016,-1013,-582,-289,124,112,-86
15580,8900,0,2023-03-10T14:07:53.058067,6351237,1667,449,1016,-1013,-582,-289,124,112,-86
15581,8901,0,2023-03-10T14:07:53.062515,6351241,1667,449,1016,-1013,-582,-289,124,112,-86
15582,8902,0,2023-03-10T14:07:53.067135,6351246,1675,449,1013,-1014,-662,-272,122,106,-90
15583,8903,0,2023-03-10T14:07:53.072159,6351251,1675,449,1013,-1014,-662,-272,122,106,-90
15584,8904,0,2023-03-10T14:07:53.076575,6351255,1675,449,1013,-1014,-662,-272,122,106,-90
15585,8905,0,2023-03-10T14:07:53.081409,6351260,1675,449,1013,-1014,-662,-272,122,106,-90
15586,8906,0,2023-03-10T14:07:53.086382,6351264,1657,443,994,-1001,-660,-271,122,106,-90
15587,8907,0,2023-03-10T14:07:53.091656,6351270,1657,443,994,-1001,-660,-271,122,106,-90
15588,8908,0,2023-03-10T14:07:53.096065,6351275,1657,443,994,-1001,-660,-271,122,106,-90
15589,8909,0,2023-03-10T14:07:53.101715,6351281,1657,443,994,-1001,-660,-271,122,106,-90
15590,8910,0,2023-03-10T14:07:53.106278,6351285,1664,442,1007,-1003,-594,-261,122,106,-90
15591,8911,0,2023-03-10T14:07:53.110748,6351289,1664,442,1007,-1003,-594,-261,122,106,-90
15592,8912,0,2023-03-10T14:07:53.115111,6351294,1664,442,1007,-1003,-594,-261,122,106,-90
15593,8913,0,2023-03-10T14:07:53.119681,6351298,1664,442,1007,-1003,-594,-261,122,106,-90
15594,8914,0,2023-03-10T14:07:53.125128,6351303,1664,442,1007,-1003,-594,-261,122,106,-90
15595,8915,0,2023-03-10T14:07:53.129861,6351308,1671,450,1020,-964,-612,-257,122,106,-90
15596,8916,0,2023-03-10T14:07:53.134922,6351313,1671,450,1020,-964,-612,-257,122,106,-90
15597,8917,0,2023-03-10T14:07:53.139652,6351318,1671,450,1020,-964,-612,-257,122,106,-90
15598,8918,0,2023-03-10T14:07:53.144171,6351323,1671,450,1020,-964,-612,-257,122,106,-90
15599,8919,0,2023-03-10T14:07:53.148551,6351327,1674,450,1007,-1021,-681,-289,122,106,-90
15600,8920,0,2023-03-10T14:07:53.153640,6351332,1674,450,1007,-1021,-681,-289,122,106,-90
15601,8921,0,2023-03-10T14:07:53.157965,6351337,1674,450,1007,-1021,-681,-289,122,106,-90
15602,8922,0,2023-03-10T14:07:53.163497,6351342,1674,450,1007,-1021,-681,-289,122,106,-90
15603,8923,0,2023-03-10T14:07:53.168018,6351346,1656,447,995,-1021,-649,-280,122,106,-90
15604,8924,0,2023-03-10T14:07:53.172488,6351351,1656,447,995,-1021,-649,-280,122,106,-90
15605,8925,0,2023-03-10T14:07:53.176890,6351355,1656,447,995,-1021,-649,-280,122,106,-90
15606,8926,0,2023-03-10T14:07:53.182475,6351362,1656,447,995,-1021,-649,-280,122,106,-90
15607,8927,0,2023-03-10T14:07:53.187162,6351366,1652,431,1017,-1017,-586,-263,122,106,-90
15608,8928,0,2023-03-10T14:07:53.191828,6351371,1652,431,1017,-1017,-586,-263,122,106,-90
15609,8929,0,2023-03-10T14:07:53.196311,6351375,1652,431,1017,-1017,-586,-263,122,106,-90
15610,8930,0,2023-03-10T14:07:53.201762,6351380,1652,431,1017,-1017,-586,-263,122,106,-90
15611,8931,0,2023-03-10T14:07:53.206310,6351385,1673,456,1023,-1015,-630,-295,122,106,-90
15612,8932,0,2023-03-10T14:07:53.211197,6351390,1673,456,1023,-1015,-630,-295,122,106,-90
15613,8933,0,2023-03-10T14:07:53.215284,6351394,1673,456,1023,-1015,-630,-295,122,106,-90
15614,8934,0,2023-03-10T14:07:53.220098,6351398,1673,456,1023,-1015,-630,-295,122,106,-90
15615,8935,0,2023-03-10T14:07:53.225019,6351404,1673,456,1023,-1015,-630,-295,122,106,-90
15616,8936,0,2023-03-10T14:07:53.229686,6351408,1666,445,1009,-1018,-642,-264,122,106,-90
15617,8937,0,2023-03-10T14:07:53.234678,6351414,1666,445,1009,-1018,-642,-264,122,106,-90
15618,8938,0,2023-03-10T14:07:53.239442,6351418,1666,445,1009,-1018,-642,-264,122,106,-90
15619,8939,0,2023-03-10T14:07:53.243961,6351423,1666,445,1009,-1018,-642,-264,122,106,-90
15620,8940,0,2023-03-10T14:07:53.248307,6351427,1678,450,1003,-1009,-632,-290,122,106,-90
15621,8941,0,2023-03-10T14:07:53.252657,6351431,1678,450,1003,-1009,-632,-290,122,106,-90
15622,8942,0,2023-03-10T14:07:53.257266,6351436,1678,450,1003,-1009,-632,-290,122,106,-90
15623,8943,0,2023-03-10T14:07:53.262627,6351441,1678,450,1003,-1009,-632,-290,122,106,-90
15624,8944,0,2023-03-10T14:07:53.267246,6351446,1649,434,999,-995,-649,-230,122,106,-90
15625,8945,0,2023-03-10T14:07:53.271958,6351451,1649,434,999,-995,-649,-230,122,106,-90
15626,8946,0,2023-03-10T14:07:53.276439,6351455,1649,434,999,-995,-649,-230,122,106,-90
15627,8947,0,2023-03-10T14:07:53.280799,6351460,1649,434,999,-995,-649,-230,122,106,-90
15628,8948,0,2023-03-10T14:07:53.285093,6351464,1649,434,999,-995,-649,-230,122,106,-90
15629,8949,0,2023-03-10T14:07:53.289627,6351468,1680,448,1013,-1006,-626,-290,122,106,-90
15630,8950,0,2023-03-10T14:07:53.294795,6351473,1680,448,1013,-1006,-626,-290,122,106,-90
15631,8951,0,2023-03-10T14:07:53.299248,6351477,1680,448,1013,-1006,-626,-290,122,106,-90
15632,8952,0,2023-03-10T14:07:53.304604,6351483,1680,448,1013,-1006,-626,-290,122,106,-90
15633,8953,0,2023-03-10T14:07:53.309585,6351488,1655,443,995,-1031,-667,-268,122,106,-90
15634,8954,0,2023-03-10T14:07:53.314639,6351493,1655,443,995,-1031,-667,-268,122,106,-90
15635,8955,0,2023-03-10T14:07:53.319125,6351498,1655,443,995,-1031,-667,-268,122,106,-90
15636,8956,0,2023-03-10T14:07:53.324030,6351503,1655,443,995,-1031,-667,-268,122,106,-90
15637,8957,0,2023-03-10T14:07:53.328429,6351507,1682,446,1006,-1021,-624,-285,118,118,-82
15638,8958,0,2023-03-10T14:07:53.333559,6351512,1682,446,1006,-1021,-624,-285,118,118,-82
15639,8959,0,2023-03-10T14:07:53.338247,6351517,1682,446,1006,-1021,-624,-285,118,118,-82
15640,8960,0,2023-03-10T14:07:53.343469,6351522,1682,446,1006,-1021,-624,-285,118,118,-82
15641,8961,0,2023-03-10T14:07:53.347861,6351526,1650,441,1000,-1014,-611,-270,118,118,-82
15642,8962,0,2023-03-10T14:07:53.352713,6351532,1650,441,1000,-1014,-611,-270,118,118,-82
15643,8963,0,2023-03-10T14:07:53.357067,6351536,1650,441,1000,-1014,-611,-270,118,118,-82
15644,8964,0,2023-03-10T14:07:53.362566,6351541,1650,441,1000,-1014,-611,-270,118,118,-82
15645,8965,0,2023-03-10T14:07:53.367573,6351546,1664,444,1017,-993,-635,-250,118,118,-82
15646,8966,0,2023-03-10T14:07:53.372408,6351551,1664,444,1017,-993,-635,-250,118,118,-82
15647,8967,0,2023-03-10T14:07:53.377054,6351555,1664,444,1017,-993,-635,-250,118,118,-82
15648,8968,0,2023-03-10T14:07:53.382170,6351561,1664,444,1017,-993,-635,-250,118,118,-82
15649,8969,0,2023-03-10T14:07:53.386554,6351565,1685,453,1011,-1018,-657,-300,118,118,-82
15650,8970,0,2023-03-10T14:07:53.391575,6351570,1685,453,1011,-1018,-657,-300,118,118,-82
15651,8971,0,2023-03-10T14:07:53.396668,6351575,1685,453,1011,-1018,-657,-300,118,118,-82
15652,8972,0,2023-03-10T14:07:53.401598,6351581,1685,453,1011,-1018,-657,-300,118,118,-82
15653,8973,0,2023-03-10T14:07:53.406113,6351585,1685,453,1011,-1018,-657,-300,118,118,-82
15654,8974,0,2023-03-10T14:07:53.410667,6351589,1663,441,995,-1035,-644,-264,118,118,-82
15655,8975,0,2023-03-10T14:07:53.415716,6351594,1663,441,995,-1035,-644,-264,118,118,-82
15656,8976,0,2023-03-10T14:07:53.420005,6351598,1663,441,995,-1035,-644,-264,118,118,-82
15657,8977,0,2023-03-10T14:07:53.424531,6351603,1663,441,995,-1035,-644,-264,118,118,-82
15658,8978,0,2023-03-10T14:07:53.429639,6351607,1678,450,1012,-1006,-627,-287,118,118,-82
15659,8979,0,2023-03-10T14:07:53.434816,6351613,1678,450,1012,-1006,-627,-287,118,118,-82
15660,8980,0,2023-03-10T14:07:53.439100,6351618,1678,450,1012,-1006,-627,-287,118,118,-82
15661,8981,0,2023-03-10T14:07:53.443995,6351623,1678,450,1012,-1006,-627,-287,118,118,-82
15662,8982,0,2023-03-10T14:07:53.448804,6351627,1658,441,999,-1019,-634,-258,120,108,-88
15663,8983,0,2023-03-10T14:07:53.453697,6351632,1658,441,999,-1019,-634,-258,120,108,-88
15664,8984,0,2023-03-10T14:07:53.458026,6351637,1658,441,999,-1019,-634,-258,120,108,-88
15665,8985,0,2023-03-10T14:07:53.462653,6351641,1658,441,999,-1019,-634,-258,120,108,-88
15666,8986,0,2023-03-10T14:07:53.467222,6351646,1680,456,1007,-1008,-642,-295,120,108,-88
15667,8987,0,2023-03-10T14:07:53.471907,6351650,1680,456,1007,-1008,-642,-295,120,108,-88
15668,8988,0,2023-03-10T14:07:53.476370,6351654,1680,456,1007,-1008,-642,-295,120,108,-88
15669,8989,0,2023-03-10T14:07:53.481465,6351661,1680,456,1007,-1008,-642,-295,120,108,-88
15670,8990,0,2023-03-10T14:07:53.486168,6351665,1680,456,1007,-1008,-642,-295,120,108,-88
15671,8991,0,2023-03-10T14:07:53.490561,6351669,1659,441,1004,-1008,-621,-254,120,108,-88
15672,8992,0,2023-03-10T14:07:53.495607,6351674,1659,441,1004,-1008,-621,-254,120,108,-88
15673,8993,0,2023-03-10T14:07:53.500166,6351679,1659,441,1004,-1008,-621,-254,120,108,-88
15674,8994,0,2023-03-10T14:07:53.504549,6351683,1659,441,1004,-1008,-621,-254,120,108,-88
15675,8995,0,2023-03-10T14:07:53.509168,6351687,1672,441,1011,-1002,-642,-269,120,108,-88
15676,8996,0,2023-03-10T14:07:53.514185,6351693,1672,441,1011,-1002,-642,-269,120,108,-88
15677,8997,0,2023-03-10T14:07:53.518637,6351697,1672,441,1011,-1002,-642,-269,120,108,-88
15678,8998,0,2023-03-10T14:07:53.523106,6351702,1672,441,1011,-1002,-642,-269,120,108,-88
15679,8999,0,2023-03-10T14:07:53.527648,6351707,1655,449,991,-1025,-685,-279,120,108,-88
15680,9000,0,2023-03-10T14:07:53.532703,6351711,1655,449,991,-1025,-685,-279,120,108,-88
15681,9001,0,2023-03-10T14:07:53.537277,6351716,1655,449,991,-1025,-685,-279,120,108,-88
15682,9002,0,2023-03-10T14:07:53.541836,6351720,1655,449,991,-1025,-685,-279,120,108,-88
15683,9003,0,2023-03-10T14:07:53.546552,6351725,1676,444,1003,-1012,-615,-262,120,108,-88
15684,9004,0,2023-03-10T14:07:53.551387,6351730,1676,444,1003,-1012,-615,-262,120,108,-88
15685,9005,0,2023-03-10T14:07:53.555953,6351734,1676,444,1003,-1012,-615,-262,120,108,-88
15686,9006,0,2023-03-10T14:07:53.560764,6351739,1676,444,1003,-1012,-615,-262,120,108,-88
15687,9007,0,2023-03-10T14:07:53.565259,6351744,1676,444,1003,-1012,-615,-262,120,108,-88
15688,9008,0,2023-03-10T14:07:53.569671,6351749,1675,449,1011,-1003,-603,-297,120,108,-88
15689,9009,0,2023-03-10T14:07:53.574128,6351753,1675,449,1011,-1003,-603,-297,120,108,-88
15690,9010,0,2023-03-10T14:07:53.579121,6351758,1675,449,1011,-1003,-603,-297,120,108,-88
15691,9011,0,2023-03-10T14:07:53.584629,6351763,1675,449,1011,-1003,-603,-297,120,108,-88
15692,9012,0,2023-03-10T14:07:53.589015,6351767,1647,433,987,-1006,-688,-235,123,113,-83
15693,9013,0,2023-03-10T14:07:53.593980,6351772,1647,433,987,-1006,-688,-235,123,113,-83
15694,9014,0,2023-03-10T14:07:53.598439,6351777,1647,433,987,-1006,-688,-235,123,113,-83
15695,9015,0,2023-03-10T14:07:53.603448,6351782,1647,433,987,-1006,-688,-235,123,113,-83
15696,9016,0,2023-03-10T14:07:53.608130,6351787,1692,459,1021,-1003,-605,-302,123,113,-83
15697,9017,0,2023-03-10T14:07:53.613251,6351792,1692,459,1021,-1003,-605,-302,123,113,-83
15698,9018,0,2023-03-10T14:07:53.617667,6351796,1692,459,1021,-1003,-605,-302,123,113,-83
15699,9019,0,2023-03-10T14:07:53.623147,6351802,1692,459,1021,-1003,-605,-302,123,113,-83
15700,9020,0,2023-03-10T14:07:53.627782,6351806,1663,442,994,-1030,-614,-258,123,113,-83
15701,9021,0,2023-03-10T14:07:53.632768,6351811,1663,442,994,-1030,-614,-258,123,113,-83
15702,9022,0,2023-03-10T14:07:53.637149,6351816,1663,442,994,-1030,-614,-258,123,113,-83
15703,9023,0,2023-03-10T14:07:53.642087,6351820,1663,442,994,-1030,-614,-258,123,113,-83
15704,9024,0,2023-03-10T14:07:53.646429,6351825,1679,447,999,-1002,-633,-278,123,113,-83
15705,9025,0,2023-03-10T14:07:53.651249,6351830,1679,447,999,-1002,-633,-278,123,113,-83
15706,9026,0,2023-03-10T14:07:53.656002,6351835,1679,447,999,-1002,-633,-278,123,113,-83
15707,9027,0,2023-03-10T14:07:53.661099,6351840,1679,447,999,-1002,-633,-278,123,113,-83
15708,9028,0,2023-03-10T14:07:53.666122,6351845,1679,447,999,-1002,-633,-278,123,113,-83
15709,9029,0,2023-03-10T14:07:53.670592,6351849,1665,442,997,-1008,-653,-266,123,113,-83
15710,9030,0,2023-03-10T14:07:53.675609,6351854,1665,442,997,-1008,-653,-266,123,113,-83
15711,9031,0,2023-03-10T14:07:53.679994,6351858,1665,442,997,-1008,-653,-266,123,113,-83
15712,9032,0,2023-03-10T14:07:53.685339,6351864,1665,442,997,-1008,-653,-266,123,113,-83
15713,9033,0,2023-03-10T14:07:53.689765,6351868,1673,435,1013,-1011,-622,-280,123,113,-83
15714,9034,0,2023-03-10T14:07:53.694687,6351874,1673,435,1013,-1011,-622,-280,123,113,-83
15715,9035,0,2023-03-10T14:07:53.699093,6351878,1673,435,1013,-1011,-622,-280,123,113,-83
15716,9036,0,2023-03-10T14:07:53.704790,6351884,1673,435,1013,-1011,-622,-280,123,113,-83
15717,9037,0,2023-03-10T14:07:53.709195,6351888,1655,440,986,-1000,-706,-257,121,105,-83
15718,9038,0,2023-03-10T14:07:53.714235,6351893,1655,440,986,-1000,-706,-257,121,105,-83
15719,9039,0,2023-03-10T14:07:53.718688,6351897,1655,440,986,-1000,-706,-257,121,105,-83
15720,9040,0,2023-03-10T14:07:53.723610,6351902,1655,440,986,-1000,-706,-257,121,105,-83
15721,9041,0,2023-03-10T14:07:53.728017,6351906,1677,448,1018,-976,-609,-257,121,105,-83
15722,9042,0,2023-03-10T14:07:53.733235,6351911,1677,448,1018,-976,-609,-257,121,105,-83
15723,9043,0,2023-03-10T14:07:53.737329,6351917,1677,448,1018,-976,-609,-257,121,105,-83
15724,9044,0,2023-03-10T14:07:53.741665,6351921,1677,448,1018,-976,-609,-257,121,105,-83
15725,9045,0,2023-03-10T14:07:53.746047,6351925,1677,448,1018,-976,-609,-257,121,105,-83
15726,9046,0,2023-03-10T14:07:53.750609,6351929,1655,441,1004,-1034,-586,-290,121,105,-83
15727,9047,0,2023-03-10T14:07:53.755635,6351934,1655,441,1004,-1034,-586,-290,121,105,-83
15728,9048,0,2023-03-10T14:07:53.760360,6351939,1655,441,1004,-1034,-586,-290,121,105,-83
15729,9049,0,2023-03-10T14:07:53.765708,6351944,1655,441,1004,-1034,-586,-290,121,105,-83
15730,9050,0,2023-03-10T14:07:53.769995,6351948,1678,445,1002,-1018,-696,-277,121,105,-83
15731,9051,0,2023-03-10T14:07:53.774606,6351953,1678,445,1002,-1018,-696,-277,121,105,-83
15732,9052,0,2023-03-10T14:07:53.779178,6351958,1678,445,1002,-1018,-696,-277,121,105,-83
15733,9053,0,2023-03-10T14:07:53.784262,6351963,1678,445,1002,-1018,-696,-277,121,105,-83
15734,9054,0,2023-03-10T14:07:53.788939,6351968,1680,448,1011,-997,-613,-282,121,105,-83
15735,9055,0,2023-03-10T14:07:53.793956,6351973,1680,448,1011,-997,-613,-282,121,105,-83
15736,9056,0,2023-03-10T14:07:53.798499,6351977,1680,448,1011,-997,-613,-282,121,105,-83
15737,9057,0,2023-03-10T14:07:53.803457,6351982,1680,448,1011,-997,-613,-282,121,105,-83
15738,9058,0,2023-03-10T14:07:53.808050,6351987,1660,436,989,-1014,-602,-247,121,105,-83
15739,9059,0,2023-03-10T14:07:53.813309,6351991,1660,436,989,-1014,-602,-247,121,105,-83
15740,9060,0,2023-03-10T14:07:53.817510,6351996,1660,436,989,-1014,-602,-247,121,105,-83
15741,9061,0,2023-03-10T14:07:53.822797,6352002,1660,436,989,-1014,-602,-247,121,105,-83
15742,9062,0,2023-03-10T14:07:53.827468,6352006,1659,441,1016,-985,-617,-265,121,105,-83
15743,9063,0,2023-03-10T14:07:53.832449,6352011,1659,441,1016,-985,-617,-265,121,105,-83
15744,9064,0,2023-03-10T14:07:53.837132,6352016,1659,441,1016,-985,-617,-265,121,105,-83
15745,9065,0,2023-03-10T14:07:53.841531,6352020,1659,441,1016,-985,-617,-265,121,105,-83
15746,9066,0,2023-03-10T14:07:53.846019,6352024,1659,441,1016,-985,-617,-265,121,105,-83
15747,9067,0,2023-03-10T14:07:53.850493,6352029,1673,443,1001,-1035,-646,-289,127,113,-89
15748,9068,0,2023-03-10T14:07:53.855606,6352034,1673,443,1001,-1035,-646,-289,127,113,-89
15749,9069,0,2023-03-10T14:07:53.860183,6352038,1673,443,1001,-1035,-646,-289,127,113,-89
15750,9070,0,2023-03-10T14:07:53.865338,6352044,1673,443,1001,-1035,-646,-289,127,113,-89
15751,9071,0,2023-03-10T14:07:53.870196,6352049,1684,449,1010,-997,-647,-272,127,113,-89
15752,9072,0,2023-03-10T14:07:53.875175,6352054,1684,449,1010,-997,-647,-272,127,113,-89
15753,9073,0,2023-03-10T14:07:53.879686,6352058,1684,449,1010,-997,-647,-272,127,113,-89
15754,9074,0,2023-03-10T14:07:53.884004,6352063,1684,449,1010,-997,-647,-272,127,113,-89
15755,9075,0,2023-03-10T14:07:53.888473,6352067,1676,448,997,-1010,-644,-272,127,113,-89
15756,9076,0,2023-03-10T14:07:53.893255,6352072,1676,448,997,-1010,-644,-272,127,113,-89
15757,9077,0,2023-03-10T14:07:53.897727,6352076,1676,448,997,-1010,-644,-272,127,113,-89
15758,9078,0,2023-03-10T14:07:53.902128,6352080,1676,448,997,-1010,-644,-272,127,113,-89
15759,9079,0,2023-03-10T14:07:53.906392,6352086,1676,448,997,-1010,-644,-272,127,113,-89
15760,9080,0,2023-03-10T14:07:53.910873,6352090,1656,433,997,-1018,-625,-257,127,113,-89
