,Unnamed: 0,imu,server_time,arduino_time,ax,ay,az,gx,gy,gz,mx,my,mz
16227,9547,0,2023-03-10T14:07:56.140096,6354319,1708,453,972,-996,-640,-281,114,100,-80
16228,9548,0,2023-03-10T14:07:56.145100,6354324,1708,453,972,-996,-640,-281,114,100,-80
16229,9549,0,2023-03-10T14:07:56.149544,6354328,1708,453,972,-996,-640,-281,114,100,-80
16230,9550,0,2023-03-10T14:07:56.153968,6354332,1682,431,968,-990,-627,-226,120,114,-94
16231,9551,0,2023-03-10T14:07:56.158724,6354337,1682,431,968,-990,-627,-226,120,114,-94
16232,9552,0,2023-03-10T14:07:56.163120,6354341,1682,431,968,-990,-627,-226,120,114,-94
16233,9553,0,2023-03-10T14:07:56.167506,6354347,1682,431,968,-990,-627,-226,120,114,-94
16234,9554,0,2023-03-10T14:07:56.172024,6354351,1706,440,996,-1002,-628,-274,120,114,-94
16235,9555,0,2023-03-10T14:07:56.176999,6354356,1706,440,996,-1002,-628,-274,120,114,-94
16236,9556,0,2023-03-10T14:07:56.182087,6354361,1706,440,996,-1002,-628,-274,120,114,-94
16237,9557,0,2023-03-10T14:07:56.186546,6354365,1706,440,996,-1002,-628,-274,120,114,-94
16238,9558,0,2023-03-10T14:07:56.191340,6354370,1689,433,959,-1041,-660,-268,120,114,-94
16239,9559,0,2023-03-10T14:07:56.196331,6354375,1689,433,959,-1041,-660,-268,120,114,-94
16240,9560,0,2023-03-10T14:07:56.200990,6354379,1689,433,959,-1041,-660,-268,120,114,-94
16241,9561,0,2023-03-10T14:07:56.206376,6354385,1689,433,959,-1041,-660,-268,120,114,-94
16242,9562,0,2023-03-10T14:07:56.210948,6354390,1717,439,977,-990,-624,-273,120,114,-94
16243,9563,0,2023-03-10T14:07:56.216245,6354395,1717,439,977,-990,-624,-273,120,114,-94
16244,9564,0,2023-03-10T14:07:56.220529,6354400,1717,439,977,-990,-624,-273,120,114,-94
16245,9565,0,2023-03-10T14:07:56.225391,6354404,1717,439,977,-990,-624,-273,120,114,-94
16246,9566,0,2023-03-10T14:07:56.229751,6354409,1717,439,977,-990,-624,-273,120,114,-94
16247,9567,0,2023-03-10T14:07:56.234322,6354413,1692,428,963,-989,-620,-270,120,114,-94
16248,9568,0,2023-03-10T14:07:56.239292,6354418,1692,428,963,-989,-620,-270,120,114,-94
16249,9569,0,2023-03-10T14:07:56.244417,6354423,1692,428,963,-989,-620,-270,120,114,-94
16250,9570,0,2023-03-10T14:07:56.249040,6354427,1692,428,963,-989,-620,-270,120,114,-94
16251,9571,0,2023-03-10T14:07:56.253569,6354433,1690,439,967,-1000,-611,-266,120,114,-94
16252,9572,0,2023-03-10T14:07:56.258593,6354438,1690,439,967,-1000,-611,-266,120,114,-94
16253,9573,0,2023-03-10T14:07:56.263393,6354442,1690,439,967,-1000,-611,-266,120,114,-94
16254,9574,0,2023-03-10T14:07:56.268622,6354447,1690,439,967,-1000,-611,-266,120,114,-94
16255,9575,0,2023-03-10T14:07:56.272918,6354452,1701,442,983,-970,-645,-249,120,114,-94
16256,9576,0,2023-03-10T14:07:56.277791,6354456,1701,442,983,-970,-645,-249,120,114,-94
16257,9577,0,2023-03-10T14:07:56.283227,6354462,1701,442,983,-970,-645,-249,120,114,-94
16258,9578,0,2023-03-10T14:07:56.287630,6354466,1701,442,983,-970,-645,-249,120,114,-94
16259,9579,0,2023-03-10T14:07:56.292174,6354470,1701,439,978,-1026,-633,-273,118,102,-82
16260,9580,0,2023-03-10T14:07:56.297513,6354477,1701,439,978,-1026,-633,-273,118,102,-82
16261,9581,0,2023-03-10T14:07:56.302806,6354482,1701,439,978,-1026,-633,-273,118,102,-82
16262,9582,0,2023-03-10T14:07:56.307237,6354486,1701,439,978,-1026,-633,-273,118,102,-82
16263,9583,0,2023-03-10T14:07:56.311954,6354491,1697,434,959,-1020,-632,-280,118,102,-82
16264,9584,0,2023-03-10T14:07:56.317260,6354496,1697,434,959,-1020,-632,-280,118,102,-82
16265,9585,0,2023-03-10T14:07:56.322321,6354501,1697,434,959,-1020,-632,-280,118,102,-82
16266,9586,0,2023-03-10T14:07:56.326793,6354505,1697,434,959,-1020,-632,-280,118,102,-82
16267,9587,0,2023-03-10T14:07:56.331123,6354510,1689,428,969,-991,-640,-254,118,102,-82
16268,9588,0,2023-03-10T14:07:56.336048,6354514,1689,428,969,-991,-640,-254,118,102,-82
16269,9589,0,2023-03-10T14:07:56.340534,6354520,1689,428,969,-991,-640,-254,118,102,-82
16270,9590,0,2023-03-10T14:07:56.345097,6354524,1689,428,969,-991,-640,-254,118,102,-82
16271,9591,0,2023-03-10T14:07:56.349745,6354529,1689,428,969,-991,-640,-254,118,102,-82
16272,9592,0,2023-03-10T14:07:56.354306,6354533,1709,444,972,-1007,-610,-285,118,102,-82
16273,9593,0,2023-03-10T14:07:56.359239,6354538,1709,444,972,-1007,-610,-285,118,102,-82
16274,9594,0,2023-03-10T14:07:56.364273,6354543,1709,444,972,-1007,-610,-285,118,102,-82
16275,9595,0,2023-03-10T14:07:56.368813,6354547,1709,444,972,-1007,-610,-285,118,102,-82
16276,9596,0,2023-03-10T14:07:56.373300,6354552,1702,443,965,-991,-630,-254,118,102,-82
16277,9597,0,2023-03-10T14:07:56.378479,6354557,1702,443,965,-991,-630,-254,118,102,-82
16278,9598,0,2023-03-10T14:07:56.383824,6354563,1702,443,965,-991,-630,-254,118,102,-82
16279,9599,0,2023-03-10T14:07:56.388082,6354567,1702,443,965,-991,-630,-254,118,102,-82
16280,9600,0,2023-03-10T14:07:56.392982,6354572,1694,437,981,-968,-616,-242,118,102,-82
16281,9601,0,2023-03-10T14:07:56.397922,6354577,1694,437,981,-968,-616,-242,118,102,-82
16282,9602,0,2023-03-10T14:07:56.402730,6354581,1694,437,981,-968,-616,-242,118,102,-82
16283,9603,0,2023-03-10T14:07:56.407217,6354586,1694,437,981,-968,-616,-242,118,102,-82
16284,9604,0,2023-03-10T14:07:56.411550,6354590,1686,438,968,-1008,-639,-265,120,102,-88
16285,9605,0,2023-03-10T14:07:56.416547,6354595,1686,438,968,-1008,-639,-265,120,102,-88
16286,9606,0,2023-03-10T14:07:56.421190,6354599,1686,438,968,-1008,-639,-265,120,102,-88
16287,9607,0,2023-03-10T14:07:56.426645,6354606,1686,438,968,-1008,-639,-265,120,102,-88
16288,9608,0,2023-03-10T14:07:56.431077,6354610,1716,443,972,-1022,-613,-278,120,102,-88
16289,9609,0,2023-03-10T14:07:56.435487,6354614,1716,443,972,-1022,-613,-278,120,102,-88
16290,9610,0,2023-03-10T14:07:56.440107,6354619,1716,443,972,-1022,-613,-278,120,102,-88
16291,9611,0,2023-03-10T14:07:56.445559,6354624,1716,443,972,-1022,-613,-278,120,102,-88
16292,9612,0,2023-03-10T14:07:56.450129,6354629,1689,431,971,-986,-661,-248,120,102,-88
16293,9613,0,2023-03-10T14:07:56.454813,6354633,1689,431,971,-986,-661,-248,120,102,-88
16294,9614,0,2023-03-10T14:07:56.459539,6354638,1689,431,971,-986,-661,-248,120,102,-88
16295,9615,0,2023-03-10T14:07:56.464558,6354643,1689,431,971,-986,-661,-248,120,102,-88
16296,9616,0,2023-03-10T14:07:56.469263,6354648,1689,431,971,-986,-661,-248,120,102,-88
16297,9617,0,2023-03-10T14:07:56.473799,6354653,1716,440,966,-1007,-618,-288,120,102,-88
16298,9618,0,2023-03-10T14:07:56.478837,6354658,1716,440,966,-1007,-618,-288,120,102,-88
16299,9619,0,2023-03-10T14:07:56.484146,6354663,1716,440,966,-1007,-618,-288,120,102,-88
16300,9620,0,2023-03-10T14:07:56.488406,6354667,1716,440,966,-1007,-618,-288,120,102,-88
16301,9621,0,2023-03-10T14:07:56.493175,6354672,1674,428,972,-972,-607,-227,120,102,-88
16302,9622,0,2023-03-10T14:07:56.498107,6354677,1674,428,972,-972,-607,-227,120,102,-88
16303,9623,0,2023-03-10T14:07:56.502492,6354681,1674,428,972,-972,-607,-227,120,102,-88
16304,9624,0,2023-03-10T14:07:56.507425,6354686,1674,428,972,-972,-607,-227,120,102,-88
16305,9625,0,2023-03-10T14:07:56.511937,6354691,1708,445,987,-991,-642,-272,120,102,-88
16306,9626,0,2023-03-10T14:07:56.516876,6354696,1708,445,987,-991,-642,-272,120,102,-88
16307,9627,0,2023-03-10T14:07:56.522041,6354701,1708,445,987,-991,-642,-272,120,102,-88
16308,9628,0,2023-03-10T14:07:56.527149,6354706,1708,445,987,-991,-642,-272,120,102,-88
16309,9629,0,2023-03-10T14:07:56.531736,6354710,1700,438,976,-1029,-626,-283,126,106,-88
16310,9630,0,2023-03-10T14:07:56.536234,6354715,1700,438,976,-1029,-626,-283,126,106,-88
16311,9631,0,2023-03-10T14:07:56.540536,6354719,1700,438,976,-1029,-626,-283,126,106,-88
16312,9632,0,2023-03-10T14:07:56.545491,6354724,1700,438,976,-1029,-626,-283,126,106,-88
16313,9633,0,2023-03-10T14:07:56.550011,6354728,1700,438,976,-1029,-626,-283,126,106,-88
16314,9634,0,2023-03-10T14:07:56.554317,6354734,1709,436,972,-1003,-636,-268,126,106,-88
16315,9635,0,2023-03-10T14:07:56.559255,6354738,1709,436,972,-1003,-636,-268,126,106,-88
16316,9636,0,2023-03-10T14:07:56.564758,6354744,1709,436,972,-1003,-636,-268,126,106,-88
16317,9637,0,2023-03-10T14:07:56.569357,6354748,1709,436,972,-1003,-636,-268,126,106,-88
16318,9638,0,2023-03-10T14:07:56.573807,6354753,1692,430,970,-1003,-621,-266,126,106,-88
16319,9639,0,2023-03-10T14:07:56.578734,6354757,1692,430,970,-1003,-621,-266,126,106,-88
16320,9640,0,2023-03-10T14:07:56.584345,6354762,1692,430,970,-1003,-621,-266,126,106,-88
16321,9641,0,2023-03-10T14:07:56.588633,6354767,1692,430,970,-1003,-621,-266,126,106,-88
16322,9642,0,2023-03-10T14:07:56.593250,6354771,1708,446,966,-998,-636,-278,126,106,-88
16323,9643,0,2023-03-10T14:07:56.598392,6354778,1708,446,966,-998,-636,-278,126,106,-88
16324,9644,0,2023-03-10T14:07:56.603176,6354782,1708,446,966,-998,-636,-278,126,106,-88
16325,9645,0,2023-03-10T14:07:56.608274,6354787,1708,446,966,-998,-636,-278,126,106,-88
16326,9646,0,2023-03-10T14:07:56.612730,6354791,1697,435,978,-977,-625,-246,126,106,-88
16327,9647,0,2023-03-10T14:07:56.617785,6354796,1697,435,978,-977,-625,-246,126,106,-88
16328,9648,0,2023-03-10T14:07:56.622707,6354801,1697,435,978,-977,-625,-246,126,106,-88
16329,9649,0,2023-03-10T14:07:56.627709,6354806,1697,435,978,-977,-625,-246,126,106,-88
16330,9650,0,2023-03-10T14:07:56.632052,6354810,1694,434,976,-1006,-632,-271,126,106,-88
16331,9651,0,2023-03-10T14:07:56.637122,6354816,1694,434,976,-1006,-632,-271,126,106,-88
16332,9652,0,2023-03-10T14:07:56.642095,6354821,1694,434,976,-1006,-632,-271,126,106,-88
16333,9653,0,2023-03-10T14:07:56.646644,6354826,1694,434,976,-1006,-632,-271,126,106,-88
16334,9654,0,2023-03-10T14:07:56.650975,6354830,1701,437,958,-1010,-660,-273,126,106,-88
16335,9655,0,2023-03-10T14:07:56.656057,6354835,1701,437,958,-1010,-660,-273,126,106,-88
16336,9656,0,2023-03-10T14:07:56.660706,6354839,1701,437,958,-1010,-660,-273,126,106,-88
16337,9657,0,2023-03-10T14:07:56.665055,6354844,1701,437,958,-1010,-660,-273,126,106,-88
16338,9658,0,2023-03-10T14:07:56.669704,6354848,1701,437,958,-1010,-660,-273,126,106,-88
16339,9659,0,2023-03-10T14:07:56.673986,6354852,1708,440,980,-990,-611,-260,116,104,-82
16340,9660,0,2023-03-10T14:07:56.679184,6354857,1708,440,980,-990,-611,-260,116,104,-82
16341,9661,0,2023-03-10T14:07:56.683564,6354863,1708,440,980,-990,-611,-260,116,104,-82
16342,9662,0,2023-03-10T14:07:56.688071,6354867,1708,440,980,-990,-611,-260,116,104,-82
16343,9663,0,2023-03-10T14:07:56.692637,6354872,1695,438,960,-1001,-646,-285,116,104,-82
16344,9664,0,2023-03-10T14:07:56.697748,6354877,1695,438,960,-1001,-646,-285,116,104,-82
16345,9665,0,2023-03-10T14:07:56.702802,6354881,1695,438,960,-1001,-646,-285,116,104,-82
16346,9666,0,2023-03-10T14:07:56.707069,6354886,1695,438,960,-1001,-646,-285,116,104,-82
16347,9667,0,2023-03-10T14:07:56.711483,6354890,1712,435,975,-994,-617,-260,116,104,-82
16348,9668,0,2023-03-10T14:07:56.715702,6354894,1712,435,975,-994,-617,-260,116,104,-82
16349,9669,0,2023-03-10T14:07:56.720064,6354898,1712,435,975,-994,-617,-260,116,104,-82
16350,9670,0,2023-03-10T14:07:56.724593,6354904,1712,435,975,-994,-617,-260,116,104,-82
16351,9671,0,2023-03-10T14:07:56.729054,6354908,1712,435,975,-994,-617,-260,116,104,-82
16352,9672,0,2023-03-10T14:07:56.733445,6354912,1680,436,969,-973,-645,-244,116,104,-82
16353,9673,0,2023-03-10T14:07:56.738297,6354917,1680,436,969,-973,-645,-244,116,104,-82
16354,9674,0,2023-03-10T14:07:56.743118,6354922,1680,436,969,-973,-645,-244,116,104,-82
16355,9675,0,2023-03-10T14:07:56.747682,6354926,1680,436,969,-973,-645,-244,116,104,-82
16356,9676,0,2023-03-10T14:07:56.752058,6354931,1717,440,975,-1020,-619,-283,116,104,-82
16357,9677,0,2023-03-10T14:07:56.757257,6354935,1717,440,975,-1020,-619,-283,116,104,-82
16358,9678,0,2023-03-10T14:07:56.762400,6354941,1717,440,975,-1020,-619,-283,116,104,-82
16359,9679,0,2023-03-10T14:07:56.767048,6354946,1717,440,975,-1020,-619,-283,116,104,-82
16360,9680,0,2023-03-10T14:07:56.771619,6354951,1703,439,964,-1006,-660,-267,116,104,-82
16361,9681,0,2023-03-10T14:07:56.776670,6354956,1703,439,964,-1006,-660,-267,116,104,-82
16362,9682,0,2023-03-10T14:07:56.781118,6354960,1703,439,964,-1006,-660,-267,116,104,-82
16363,9683,0,2023-03-10T14:07:56.786282,6354965,1703,439,964,-1006,-660,-267,116,104,-82
16364,9684,0,2023-03-10T14:07:56.790753,6354969,1715,431,970,-1000,-625,-256,116,104,-82
16365,9685,0,2023-03-10T14:07:56.795965,6354974,1715,431,970,-1000,-625,-256,119,105,-85
16366,9686,0,2023-03-10T14:07:56.800519,6354979,1715,431,970,-1000,-625,-256,119,105,-85
16367,9687,0,2023-03-10T14:07:56.805292,6354984,1715,431,970,-1000,-625,-256,119,105,-85
16368,9688,0,2023-03-10T14:07:56.809720,6354989,1715,431,970,-1000,-625,-256,119,105,-85
16369,9689,0,2023-03-10T14:07:56.814222,6354993,1690,434,963,-1010,-616,-277,119,105,-85
16370,9690,0,2023-03-10T14:07:56.819453,6354998,1690,434,963,-1010,-616,-277,119,105,-85
16371,9691,0,2023-03-10T14:07:56.824972,6355004,1690,434,963,-1010,-616,-277,119,105,-85
16372,9692,0,2023-03-10T14:07:56.829621,6355008,1690,434,963,-1010,-616,-277,119,105,-85
16373,9693,0,2023-03-10T14:07:56.834079,6355013,1705,434,976,-982,-636,-246,119,105,-85
16374,9694,0,2023-03-10T14:07:56.839125,6355017,1705,434,976,-982,-636,-246,119,105,-85
16375,9695,0,2023-03-10T14:07:56.844189,6355023,1705,434,976,-982,-636,-246,119,105,-85
16376,9696,0,2023-03-10T14:07:56.849400,6355028,1705,434,976,-982,-636,-246,119,105,-85
16377,9697,0,2023-03-10T14:07:56.854003,6355033,1701,436,976,-988,-609,-261,119,105,-85
16378,9698,0,2023-03-10T14:07:56.859104,6355038,1701,436,976,-988,-609,-261,119,105,-85
16379,9699,0,2023-03-10T14:07:56.863998,6355043,1701,436,976,-988,-609,-261,119,105,-85
16380,9700,0,2023-03-10T14:07:56.868326,6355047,1701,436,976,-988,-609,-261,119,105,-85
16381,9701,0,2023-03-10T14:07:56.872865,6355052,1709,438,963,-1030,-649,-279,119,105,-85
16382,9702,0,2023-03-10T14:07:56.878038,6355057,1709,438,963,-1030,-649,-279,119,105,-85
16383,9703,0,2023-03-10T14:07:56.882485,6355061,1709,438,963,-1030,-649,-279,119,105,-85
16384,9704,0,2023-03-10T14:07:56.886978,6355065,1709,438,963,-1030,-649,-279,119,105,-85
16385,9705,0,2023-03-10T14:07:56.891426,6355070,1709,438,963,-1030,-649,-279,119,105,-85
16386,9706,0,2023-03-10T14:07:56.895866,6355075,1709,438,963,-1030,-649,-279,119,105,-85
16387,9707,0,2023-03-10T14:07:56.900336,6355079,1709,438,963,-1030,-649,-279,119,105,-85
16388,9708,0,2023-03-10T14:07:56.904774,6355084,1709,438,963,-1030,-649,-279,119,105,-85
16389,9709,0,2023-03-10T14:07:56.909188,6355088,1709,438,963,-1030,-649,-279,119,105,-85
16390,9710,0,2023-03-10T14:07:56.913584,6355092,1704,434,959,-994,-630,-270,119,105,-85
16391,9711,0,2023-03-10T14:07:56.918350,6355097,1704,434,959,-994,-630,-270,119,105,-85
16392,9712,0,2023-03-10T14:07:56.923373,6355102,1704,434,959,-994,-630,-270,119,105,-85
16393,9713,0,2023-03-10T14:07:56.927969,6355106,1704,434,959,-994,-630,-270,119,105,-85
16394,9714,0,2023-03-10T14:07:56.932561,6355111,1727,445,972,-1003,-638,-282,125,105,-85
16395,9715,0,2023-03-10T14:07:56.937586,6355117,1727,445,972,-1003,-638,-282,125,105,-85
16396,9716,0,2023-03-10T14:07:56.942446,6355122,1727,445,972,-1003,-638,-282,125,105,-85
16397,9717,0,2023-03-10T14:07:56.947971,6355127,1727,445,972,-1003,-638,-282,125,105,-85
16398,9718,0,2023-03-10T14:07:56.952575,6355131,1694,428,963,-977,-631,-231,125,105,-85
16399,9719,0,2023-03-10T14:07:56.957576,6355136,1694,428,963,-977,-631,-231,125,105,-85
16400,9720,0,2023-03-10T14:07:56.962122,6355141,1694,428,963,-977,-631,-231,125,105,-85
16401,9721,0,2023-03-10T14:07:56.966464,6355145,1694,428,963,-977,-631,-231,125,105,-85
16402,9722,0,2023-03-10T14:07:56.971275,6355149,1698,431,974,-1005,-619,-273,125,105,-85
16403,9723,0,2023-03-10T14:07:56.976221,6355155,1698,431,974,-1005,-619,-273,125,105,-85
16404,9724,0,2023-03-10T14:07:56.980588,6355160,1698,431,974,-1005,-619,-273,125,105,-85
16405,9725,0,2023-03-10T14:07:56.986269,6355165,1698,431,974,-1005,-619,-273,125,105,-85
16406,9726,0,2023-03-10T14:07:56.991489,6355171,1714,442,959,-1021,-667,-288,125,105,-85
16407,9727,0,2023-03-10T14:07:56.996396,6355175,1714,442,959,-1021,-667,-288,125,105,-85
16408,9728,0,2023-03-10T14:07:57.001379,6355180,1714,442,959,-1021,-667,-288,125,105,-85
16409,9729,0,2023-03-10T14:07:57.006945,6355185,1714,442,959,-1021,-667,-288,125,105,-85
16410,9730,0,2023-03-10T14:07:57.011281,6355190,1704,432,966,-1001,-611,-260,125,105,-85
16411,9731,0,2023-03-10T14:07:57.015964,6355194,1704,432,966,-1001,-611,-260,125,105,-85
16412,9732,0,2023-03-10T14:07:57.020436,6355200,1704,432,966,-1001,-611,-260,125,105,-85
16413,9733,0,2023-03-10T14:07:57.024821,6355204,1704,432,966,-1001,-611,-260,125,105,-85
16414,9734,0,2023-03-10T14:07:57.029399,6355208,1704,432,966,-1001,-611,-260,125,105,-85
16415,9735,0,2023-03-10T14:07:57.033753,6355213,1715,440,966,-1007,-632,-288,125,105,-85
16416,9736,0,2023-03-10T14:07:57.038715,6355217,1715,440,966,-1007,-632,-288,125,105,-85
16417,9737,0,2023-03-10T14:07:57.043504,6355222,1715,440,966,-1007,-632,-288,125,105,-85
16418,9738,0,2023-03-10T14:07:57.048073,6355227,1715,440,966,-1007,-632,-288,125,105,-85
16419,9739,0,2023-03-10T14:07:57.052538,6355231,1695,434,963,-997,-613,-248,122,102,-82
16420,9740,0,2023-03-10T14:07:57.057567,6355236,1695,434,963,-997,-613,-248,122,102,-82
16421,9741,0,2023-03-10T14:07:57.062487,6355241,1695,434,963,-997,-613,-248,122,102,-82
16422,9742,0,2023-03-10T14:07:57.066880,6355246,1695,434,963,-997,-613,-248,122,102,-82
16423,9743,0,2023-03-10T14:07:57.071469,6355250,1702,438,981,-977,-619,-255,122,102,-82
16424,9744,0,2023-03-10T14:07:57.076531,6355255,1702,438,981,-977,-619,-255,122,102,-82
16425,9745,0,2023-03-10T14:07:57.081030,6355260,1702,438,981,-977,-619,-255,122,102,-82
16426,9746,0,2023-03-10T14:07:57.086163,6355265,1702,438,981,-977,-619,-255,122,102,-82
16427,9747,0,2023-03-10T14:07:57.090516,6355269,1702,438,981,-977,-619,-255,122,102,-82
16428,9748,0,2023-03-10T14:07:57.095114,6355273,1720,440,973,-1022,-644,-288,122,102,-82
16429,9749,0,2023-03-10T14:07:57.100360,6355279,1720,440,973,-1022,-644,-288,122,102,-82
16430,9750,0,2023-03-10T14:07:57.105428,6355284,1720,440,973,-1022,-644,-288,122,102,-82
16431,9751,0,2023-03-10T14:07:57.110070,6355289,1720,440,973,-1022,-644,-288,122,102,-82
16432,9752,0,2023-03-10T14:07:57.114400,6355294,1702,432,948,-1020,-639,-266,122,102,-82
16433,9753,0,2023-03-10T14:07:57.120360,6355299,1702,432,948,-1020,-639,-266,122,102,-82
16434,9754,0,2023-03-10T14:07:57.125485,6355304,1702,432,948,-1020,-639,-266,122,102,-82
16435,9755,0,2023-03-10T14:07:57.129882,6355309,1702,432,948,-1020,-639,-266,122,102,-82
16436,9756,0,2023-03-10T14:07:57.134386,6355313,1711,430,970,-995,-616,-273,122,102,-82
16437,9757,0,2023-03-10T14:07:57.138937,6355317,1711,430,970,-995,-616,-273,122,102,-82
16438,9758,0,2023-03-10T14:07:57.144005,6355322,1711,430,970,-995,-616,-273,122,102,-82
16439,9759,0,2023-03-10T14:07:57.148462,6355328,1711,430,970,-995,-616,-273,122,102,-82
16440,9760,0,2023-03-10T14:07:57.153175,6355332,1706,440,954,-1008,-640,-269,122,102,-82
16441,9761,0,2023-03-10T14:07:57.158307,6355337,1706,440,954,-1008,-640,-269,122,102,-82
16442,9762,0,2023-03-10T14:07:57.163438,6355342,1706,440,954,-1008,-640,-269,122,102,-82
16443,9763,0,2023-03-10T14:07:57.167837,6355347,1706,440,954,-1008,-640,-269,122,102,-82
16444,9764,0,2023-03-10T14:07:57.172390,6355351,1717,437,965,-984,-615,-253,122,102,-82
16445,9765,0,2023-03-10T14:07:57.177724,6355356,1717,437,965,-984,-615,-253,122,102,-82
16446,9766,0,2023-03-10T14:07:57.182858,6355361,1717,437,965,-984,-615,-253,122,102,-82
16447,9767,0,2023-03-10T14:07:57.188168,6355366,1717,437,965,-984,-615,-253,122,102,-82
16448,9768,0,2023-03-10T14:07:57.192681,6355372,1693,430,967,-997,-623,-262,129,109,-83
16449,9769,0,2023-03-10T14:07:57.197787,6355377,1693,430,967,-997,-623,-262,129,109,-83
16450,9770,0,2023-03-10T14:07:57.202685,6355382,1693,430,967,-997,-623,-262,129,109,-83
16451,9771,0,2023-03-10T14:07:57.207172,6355386,1693,430,967,-997,-623,-262,129,109,-83
16452,9772,0,2023-03-10T14:07:57.211529,6355390,1698,431,963,-1026,-629,-277,129,109,-83
16453,9773,0,2023-03-10T14:07:57.216331,6355395,1698,431,963,-1026,-629,-277,129,109,-83
16454,9774,0,2023-03-10T14:07:57.220778,6355399,1698,431,963,-1026,-629,-277,129,109,-83
16455,9775,0,2023-03-10T14:07:57.225823,6355404,1698,431,963,-1026,-629,-277,129,109,-83
16456,9776,0,2023-03-10T14:07:57.230145,6355409,1698,431,963,-1026,-629,-277,129,109,-83
16457,9777,0,2023-03-10T14:07:57.234666,6355414,1720,440,973,-997,-644,-265,129,109,-83
16458,9778,0,2023-03-10T14:07:57.239935,6355419,1720,440,973,-997,-644,-265,129,109,-83
16459,9779,0,2023-03-10T14:07:57.245007,6355424,1720,440,973,-997,-644,-265,129,109,-83
16460,9780,0,2023-03-10T14:07:57.249487,6355428,1720,440,973,-997,-644,-265,129,109,-83
16461,9781,0,2023-03-10T14:07:57.254023,6355433,1710,432,959,-1010,-632,-261,129,109,-83
16462,9782,0,2023-03-10T14:07:57.259311,6355438,1710,432,959,-1010,-632,-261,129,109,-83
16463,9783,0,2023-03-10T14:07:57.264222,6355443,1710,432,959,-1010,-632,-261,129,109,-83
16464,9784,0,2023-03-10T14:07:57.268580,6355447,1710,432,959,-1010,-632,-261,129,109,-83
16465,9785,0,2023-03-10T14:07:57.273163,6355451,1705,437,966,-1012,-611,-265,129,109,-83
16466,9786,0,2023-03-10T14:07:57.278362,6355458,1705,437,966,-1012,-611,-265,129,109,-83
16467,9787,0,2023-03-10T14:07:57.283491,6355463,1705,437,966,-1012,-611,-265,129,109,-83
16468,9788,0,2023-03-10T14:07:57.288011,6355467,1705,437,966,-1012,-611,-265,129,109,-83
16469,9789,0,2023-03-10T14:07:57.292532,6355471,1697,434,962,-970,-648,-239,129,109,-83
16470,9790,0,2023-03-10T14:07:57.297698,6355476,1697,434,962,-970,-648,-239,129,109,-83
16471,9791,0,2023-03-10T14:07:57.302567,6355481,1697,434,962,-970,-648,-239,129,109,-83
16472,9792,0,2023-03-10T14:07:57.307270,6355486,1697,434,962,-970,-648,-239,129,109,-83
16473,9793,0,2023-03-10T14:07:57.311740,6355490,1716,440,975,-1012,-610,-277,124,102,-92
16474,9794,0,2023-03-10T14:07:57.316784,6355495,1716,440,975,-1012,-610,-277,124,102,-92
16475,9795,0,2023-03-10T14:07:57.321135,6355500,1716,440,975,-1012,-610,-277,124,102,-92
16476,9796,0,2023-03-10T14:07:57.326261,6355505,1716,440,975,-1012,-610,-277,124,102,-92
16477,9797,0,2023-03-10T14:07:57.330731,6355510,1716,440,975,-1012,-610,-277,124,102,-92
16478,9798,0,2023-03-10T14:07:57.335124,6355514,1710,433,958,-1011,-656,-277,124,102,-92
16479,9799,0,2023-03-10T14:07:57.340096,6355519,1710,433,958,-1011,-656,-277,124,102,-92
16480,9800,0,2023-03-10T14:07:57.345268,6355524,1710,433,958,-1011,-656,-277,124,102,-92
16481,9801,0,2023-03-10T14:07:57.349790,6355528,1710,433,958,-1011,-656,-277,124,102,-92
16482,9802,0,2023-03-10T14:07:57.354176,6355533,1713,432,967,-997,-620,-266,124,102,-92
16483,9803,0,2023-03-10T14:07:57.359425,6355538,1713,432,967,-997,-620,-266,124,102,-92
16484,9804,0,2023-03-10T14:07:57.363921,6355543,1713,432,967,-997,-620,-266,124,102,-92
16485,9805,0,2023-03-10T14:07:57.368447,6355548,1713,432,967,-997,-620,-266,124,102,-92
16486,9806,0,2023-03-10T14:07:57.372908,6355552,1699,436,951,-1005,-634,-275,124,102,-92
16487,9807,0,2023-03-10T14:07:57.378091,6355557,1699,436,951,-1005,-634,-275,124,102,-92
16488,9808,0,2023-03-10T14:07:57.382896,6355562,1699,436,951,-1005,-634,-275,124,102,-92
16489,9809,0,2023-03-10T14:07:57.387278,6355566,1699,436,951,-1005,-634,-275,124,102,-92
16490,9810,0,2023-03-10T14:07:57.391976,6355570,1720,438,957,-999,-601,-255,124,102,-92
16491,9811,0,2023-03-10T14:07:57.397248,6355576,1720,438,957,-999,-601,-255,124,102,-92
16492,9812,0,2023-03-10T14:07:57.402179,6355580,1720,438,957,-999,-601,-255,124,102,-92
16493,9813,0,2023-03-10T14:07:57.407471,6355587,1720,438,957,-999,-601,-255,124,102,-92
16494,9814,0,2023-03-10T14:07:57.412086,6355591,1698,437,965,-954,-655,-250,124,102,-92
16495,9815,0,2023-03-10T14:07:57.416926,6355596,1698,437,965,-954,-655,-250,124,102,-92
16496,9816,0,2023-03-10T14:07:57.421312,6355600,1698,437,965,-954,-655,-250,124,102,-92
16497,9817,0,2023-03-10T14:07:57.426246,6355605,1698,437,965,-954,-655,-250,124,102,-92
16498,9818,0,2023-03-10T14:07:57.430759,6355609,1698,437,965,-954,-655,-250,124,102,-92
16499,9819,0,2023-03-10T14:07:57.435113,6355614,1717,437,956,-1021,-625,-284,113,107,-93
16500,9820,0,2023-03-10T14:07:57.439580,6355618,1717,437,956,-1021,-625,-284,113,107,-93
16501,9821,0,2023-03-10T14:07:57.444661,6355623,1717,437,956,-1021,-625,-284,113,107,-93
16502,9822,0,2023-03-10T14:07:57.449194,6355628,1717,437,956,-1021,-625,-284,113,107,-93
16503,9823,0,2023-03-10T14:07:57.453615,6355633,1695,435,958,-1012,-622,-261,113,107,-93
16504,9824,0,2023-03-10T14:07:57.458570,6355638,1695,435,958,-1012,-622,-261,113,107,-93
16505,9825,0,2023-03-10T14:07:57.463670,6355642,1695,435,958,-1012,-622,-261,113,107,-93
16506,9826,0,2023-03-10T14:07:57.469075,6355648,1695,435,958,-1012,-622,-261,113,107,-93
16507,9827,0,2023-03-10T14:07:57.473637,6355652,1721,434,961,-986,-643,-264,113,107,-93
16508,9828,0,2023-03-10T14:07:57.478645,6355657,1721,434,961,-986,-643,-264,113,107,-93
16509,9829,0,2023-03-10T14:07:57.483085,6355662,1721,434,961,-986,-643,-264,113,107,-93
16510,9830,0,2023-03-10T14:07:57.487461,6355666,1721,434,961,-986,-643,-264,113,107,-93
16511,9831,0,2023-03-10T14:07:57.492161,6355671,1713,443,950,-1013,-608,-279,113,107,-93
16512,9832,0,2023-03-10T14:07:57.496955,6355676,1713,443,950,-1013,-608,-279,113,107,-93
16513,9833,0,2023-03-10T14:07:57.501342,6355680,1713,443,950,-1013,-608,-279,113,107,-93
16514,9834,0,2023-03-10T14:07:57.505742,6355685,1713,443,950,-1013,-608,-279,113,107,-93
16515,9835,0,2023-03-10T14:07:57.510160,6355689,1713,443,950,-1013,-608,-279,113,107,-93
16516,9836,0,2023-03-10T14:07:57.514747,6355693,1716,437,967,-969,-657,-244,113,107,-93
16517,9837,0,2023-03-10T14:07:57.520304,6355699,1716,437,967,-969,-657,-244,113,107,-93
16518,9838,0,2023-03-10T14:07:57.525310,6355704,1716,437,967,-969,-657,-244,113,107,-93
16519,9839,0,2023-03-10T14:07:57.530454,6355709,1716,437,967,-969,-657,-244,113,107,-93
16520,9840,0,2023-03-10T14:07:57.534795,6355714,1699,433,961,-983,-653,-246,113,107,-93
16521,9841,0,2023-03-10T14:07:57.539712,6355719,1699,433,961,-983,-653,-246,113,107,-93
16522,9842,0,2023-03-10T14:07:57.545245,6355724,1699,433,961,-983,-653,-246,113,107,-93
16523,9843,0,2023-03-10T14:07:57.549879,6355729,1699,433,961,-983,-653,-246,113,107,-93
16524,9844,0,2023-03-10T14:07:57.554334,6355733,1713,434,952,-1024,-596,-279,113,107,-93
16525,9845,0,2023-03-10T14:07:57.559342,6355738,1713,434,952,-1024,-596,-279,113,107,-93
16526,9846,0,2023-03-10T14:07:57.564307,6355743,1713,434,952,-1024,-596,-279,113,107,-93
16527,9847,0,2023-03-10T14:07:57.568758,6355747,1713,434,952,-1024,-596,-279,113,107,-93
16528,9848,0,2023-03-10T14:07:57.573356,6355751,1729,445,965,-994,-621,-282,115,105,-91
16529,9849,0,2023-03-10T14:07:57.578864,6355758,1729,445,965,-994,-621,-282,115,105,-91
16530,9850,0,2023-03-10T14:07:57.583845,6355763,1729,445,965,-994,-621,-282,115,105,-91
16531,9851,0,2023-03-10T14:07:57.588147,6355767,1729,445,965,-994,-621,-282,115,105,-91
16532,9852,0,2023-03-10T14:07:57.592565,6355772,1692,426,947,-1002,-646,-249,115,105,-91
16533,9853,0,2023-03-10T14:07:57.597470,6355776,1692,426,947,-1002,-646,-249,115,105,-91
16534,9854,0,2023-03-10T14:07:57.602652,6355781,1692,426,947,-1002,-646,-249,115,105,-91
16535,9855,0,2023-03-10T14:07:57.607145,6355786,1692,426,947,-1002,-646,-249,115,105,-91
16536,9856,0,2023-03-10T14:07:57.611530,6355790,1692,426,947,-1002,-646,-249,115,105,-91
16537,9857,0,2023-03-10T14:07:57.616023,6355794,1725,446,969,-1001,-589,-278,115,105,-91
16538,9858,0,2023-03-10T14:07:57.621150,6355800,1725,446,969,-1001,-589,-278,115,105,-91
16539,9859,0,2023-03-10T14:07:57.626497,6355806,1725,446,969,-1001,-589,-278,115,105,-91
16540,9860,0,2023-03-10T14:07:57.631072,6355810,1725,446,969,-1001,-589,-278,115,105,-91
16541,9861,0,2023-03-10T14:07:57.635419,6355814,1699,434,962,-972,-648,-234,115,105,-91
16542,9862,0,2023-03-10T14:07:57.640450,6355819,1699,434,962,-972,-648,-234,115,105,-91
16543,9863,0,2023-03-10T14:07:57.645461,6355824,1699,434,962,-972,-648,-234,115,105,-91
16544,9864,0,2023-03-10T14:07:57.650086,6355828,1699,434,962,-972,-648,-234,115,105,-91
16545,9865,0,2023-03-10T14:07:57.654639,6355833,1714,437,963,-1019,-614,-268,115,105,-91
16546,9866,0,2023-03-10T14:07:57.659634,6355838,1714,437,963,-1019,-614,-268,115,105,-91
16547,9867,0,2023-03-10T14:07:57.664627,6355844,1714,437,963,-1019,-614,-268,115,105,-91
16548,9868,0,2023-03-10T14:07:57.669064,6355848,1714,437,963,-1019,-614,-268,115,105,-91
16549,9869,0,2023-03-10T14:07:57.673481,6355853,1725,438,950,-1003,-646,-286,115,105,-91
16550,9870,0,2023-03-10T14:07:57.678650,6355857,1725,438,950,-1003,-646,-286,115,105,-91
16551,9871,0,2023-03-10T14:07:57.684076,6355863,1725,438,950,-1003,-646,-286,115,105,-91
16552,9872,0,2023-03-10T14:07:57.688571,6355867,1725,438,950,-1003,-646,-286,115,105,-91
16553,9873,0,2023-03-10T14:07:57.693057,6355872,1700,427,956,-1000,-630,-252,116,104,-86
16554,9874,0,2023-03-10T14:07:57.697588,6355876,1700,427,956,-1000,-630,-252,116,104,-86
16555,9875,0,2023-03-10T14:07:57.702569,6355881,1700,427,956,-1000,-630,-252,116,104,-86
16556,9876,0,2023-03-10T14:07:57.706984,6355886,1700,427,956,-1000,-630,-252,116,104,-86
16557,9877,0,2023-03-10T14:07:57.711360,6355890,1700,427,956,-1000,-630,-252,116,104,-86
16558,9878,0,2023-03-10T14:07:57.716058,6355895,1718,438,956,-996,-621,-282,116,104,-86
16559,9879,0,2023-03-10T14:07:57.720800,6355900,1718,438,956,-996,-621,-282,116,104,-86
16560,9880,0,2023-03-10T14:07:57.725802,6355905,1718,438,956,-996,-621,-282,116,104,-86
16561,9881,0,2023-03-10T14:07:57.730475,6355909,1718,438,956,-996,-621,-282,116,104,-86
16562,9882,0,2023-03-10T14:07:57.734993,6355914,1729,441,958,-988,-625,-259,116,104,-86
16563,9883,0,2023-03-10T14:07:57.740191,6355918,1729,441,958,-988,-625,-259,116,104,-86
16564,9884,0,2023-03-10T14:07:57.744986,6355923,1729,441,958,-988,-625,-259,116,104,-86
16565,9885,0,2023-03-10T14:07:57.749425,6355929,1729,441,958,-988,-625,-259,116,104,-86
16566,9886,0,2023-03-10T14:07:57.754267,6355933,1701,432,959,-979,-620,-235,116,104,-86
16567,9887,0,2023-03-10T14:07:57.759460,6355939,1701,432,959,-979,-620,-235,116,104,-86
16568,9888,0,2023-03-10T14:07:57.764605,6355943,1701,432,959,-979,-620,-235,116,104,-86
16569,9889,0,2023-03-10T14:07:57.769505,6355948,1701,432,959,-979,-620,-235,116,104,-86
16570,9890,0,2023-03-10T14:07:57.773984,6355953,1712,437,956,-1024,-615,-284,116,104,-86
16571,9891,0,2023-03-10T14:07:57.778705,6355957,1712,437,956,-1024,-615,-284,116,104,-86
16572,9892,0,2023-03-10T14:07:57.783748,6355962,1712,437,956,-1024,-615,-284,116,104,-86
16573,9893,0,2023-03-10T14:07:57.788338,6355966,1712,437,956,-1024,-615,-284,116,104,-86
16574,9894,0,2023-03-10T14:07:57.792853,6355972,1721,438,949,-1018,-664,-287,116,104,-86
16575,9895,0,2023-03-10T14:07:57.797606,6355977,1721,438,949,-1018,-664,-287,116,104,-86
16576,9896,0,2023-03-10T14:07:57.802867,6355982,1721,438,949,-1018,-664,-287,116,104,-86
16577,9897,0,2023-03-10T14:07:57.807280,6355986,1721,438,949,-1018,-664,-287,116,104,-86
16578,9898,0,2023-03-10T14:07:57.811917,6355991,1721,438,949,-1018,-664,-287,116,104,-86
16579,9899,0,2023-03-10T14:07:57.816530,6355995,1710,432,960,-1006,-603,-255,116,104,-86
16580,9900,0,2023-03-10T14:07:57.821497,6356000,1710,432,960,-1006,-603,-255,116,104,-86
16581,9901,0,2023-03-10T14:07:57.826588,6356005,1710,432,960,-1006,-603,-255,116,104,-86
16582,9902,0,2023-03-10T14:07:57.831212,6356009,1710,432,960,-1006,-603,-255,116,104,-86
16583,9903,0,2023-03-10T14:07:57.835660,6356015,1731,448,955,-1003,-657,-286,115,107,-85
16584,9904,0,2023-03-10T14:07:57.840370,6356020,1731,448,955,-1003,-657,-286,115,107,-85
16585,9905,0,2023-03-10T14:07:57.845229,6356024,1731,448,955,-1003,-657,-286,115,107,-85
16586,9906,0,2023-03-10T14:07:57.849579,6356028,1731,448,955,-1003,-657,-286,115,107,-85
16587,9907,0,2023-03-10T14:07:57.853826,6356033,1701,430,951,-989,-647,-241,115,107,-85
16588,9908,0,2023-03-10T14:07:57.858716,6356037,1701,430,951,-989,-647,-241,115,107,-85
16589,9909,0,2023-03-10T14:07:57.863079,6356042,1701,430,951,-989,-647,-241,115,107,-85
16590,9910,0,2023-03-10T14:07:57.867529,6356046,1701,430,951,-989,-647,-241,115,107,-85
16591,9911,0,2023-03-10T14:07:57.872105,6356050,1701,430,951,-989,-647,-241,115,107,-85
16592,9912,0,2023-03-10T14:07:57.876439,6356056,1715,432,955,-1009,-590,-282,115,107,-85
16593,9913,0,2023-03-10T14:07:57.881489,6356061,1715,432,955,-1009,-590,-282,115,107,-85
16594,9914,0,2023-03-10T14:07:57.886639,6356066,1715,432,955,-1009,-590,-282,115,107,-85
16595,9915,0,2023-03-10T14:07:57.891218,6356070,1715,432,955,-1009,-590,-282,115,107,-85
16596,9916,0,2023-03-10T14:07:57.895722,6356074,1735,435,957,-1021,-620,-284,115,107,-85
16597,9917,0,2023-03-10T14:07:57.900407,6356079,1735,435,957,-1021,-620,-284,115,107,-85
16598,9918,0,2023-03-10T14:07:57.905584,6356084,1735,435,957,-1021,-620,-284,115,107,-85
16599,9919,0,2023-03-10T14:07:57.910050,6356089,1735,435,957,-1021,-620,-284,115,107,-85
16600,9920,0,2023-03-10T14:07:57.914472,6356093,1704,430,933,-1009,-629,-249,115,107,-85
16601,9921,0,2023-03-10T14:07:57.919211,6356099,1704,430,933,-1009,-629,-249,115,107,-85
16602,9922,0,2023-03-10T14:07:57.923931,6356103,1704,430,933,-1009,-629,-249,115,107,-85
16603,9923,0,2023-03-10T14:07:57.928476,6356108,1704,430,933,-1009,-629,-249,115,107,-85
16604,9924,0,2023-03-10T14:07:57.932927,6356112,1722,436,954,-1001,-609,-284,115,107,-85
16605,9925,0,2023-03-10T14:07:57.937813,6356117,1722,436,954,-1001,-609,-284,115,107,-85
16606,9926,0,2023-03-10T14:07:57.942763,6356121,1722,436,954,-1001,-609,-284,115,107,-85
16607,9927,0,2023-03-10T14:07:57.947347,6356126,1722,436,954,-1001,-609,-284,115,107,-85
16608,9928,0,2023-03-10T14:07:57.951918,6356130,1722,436,954,-1001,-609,-284,115,107,-85
16609,9929,0,2023-03-10T14:07:57.956268,6356135,1715,434,957,-998,-648,-254,129,99,-87
16610,9930,0,2023-03-10T14:07:57.961313,6356141,1715,434,957,-998,-648,-254,129,99,-87
16611,9931,0,2023-03-10T14:07:57.965762,6356145,1715,434,957,-998,-648,-254,129,99,-87
16612,9932,0,2023-03-10T14:07:57.970549,6356149,1715,434,957,-998,-648,-254,129,99,-87
16613,9933,0,2023-03-10T14:07:57.975010,6356154,1719,440,958,-1014,-608,-271,129,99,-87
16614,9934,0,2023-03-10T14:07:57.979312,6356158,1719,440,958,-1014,-608,-271,129,99,-87
16615,9935,0,2023-03-10T14:07:57.984173,6356163,1719,440,958,-1014,-608,-271,129,99,-87
16616,9936,0,2023-03-10T14:07:57.988681,6356167,1719,440,958,-1014,-608,-271,129,99,-87
16617,9937,0,2023-03-10T14:07:57.993162,6356172,1719,438,952,-1011,-634,-279,129,99,-87
16618,9938,0,2023-03-10T14:07:57.998315,6356177,1719,438,952,-1011,-634,-279,129,99,-87
16619,9939,0,2023-03-10T14:07:58.003373,6356182,1719,438,952,-1011,-634,-279,129,99,-87
16620,9940,0,2023-03-10T14:07:58.008632,6356188,1719,438,952,-1011,-634,-279,129,99,-87
16621,9941,0,2023-03-10T14:07:58.013122,6356192,1707,440,954,-1004,-607,-248,129,99,-87
16622,9942,0,2023-03-10T14:07:58.017828,6356197,1707,440,954,-1004,-607,-248,129,99,-87
16623,9943,0,2023-03-10T14:07:58.022713,6356202,1707,440,954,-1004,-607,-248,129,99,-87
16624,9944,0,2023-03-10T14:07:58.026979,6356206,1707,440,954,-1004,-607,-248,129,99,-87
16625,9945,0,2023-03-10T14:07:58.031298,6356210,1707,440,954,-1004,-607,-248,129,99,-87
16626,9946,0,2023-03-10T14:07:58.035708,6356214,1722,433,954,-975,-631,-243,129,99,-87
16627,9947,0,2023-03-10T14:07:58.040555,6356219,1722,433,954,-975,-631,-243,129,99,-87
16628,9948,0,2023-03-10T14:07:58.045633,6356225,1722,433,954,-975,-631,-243,129,99,-87
16629,9949,0,2023-03-10T14:07:58.050084,6356229,1722,433,954,-975,-631,-243,129,99,-87
16630,9950,0,2023-03-10T14:07:58.054754,6356234,1726,441,953,-1005,-633,-273,129,99,-87
16631,9951,0,2023-03-10T14:07:58.059933,6356239,1726,441,953,-1005,-633,-273,129,99,-87
16632,9952,0,2023-03-10T14:07:58.064185,6356243,1726,441,953,-1005,-633,-273,129,99,-87
16633,9953,0,2023-03-10T14:07:58.068684,6356248,1726,441,953,-1005,-633,-273,129,99,-87
16634,9954,0,2023-03-10T14:07:58.073356,6356252,1705,426,947,-1009,-630,-253,129,99,-87
16635,9955,0,2023-03-10T14:07:58.078998,6356257,1705,426,947,-1009,-630,-253,129,99,-87
16636,9956,0,2023-03-10T14:07:58.084062,6356263,1705,426,947,-1009,-630,-253,129,99,-87
16637,9957,0,2023-03-10T14:07:58.088696,6356268,1705,426,947,-1009,-630,-253,129,99,-87
16638,9958,0,2023-03-10T14:07:58.093315,6356272,1717,443,956,-992,-647,-278,126,104,-90
16639,9959,0,2023-03-10T14:07:58.098320,6356277,1717,443,956,-992,-647,-278,126,104,-90
16640,9960,0,2023-03-10T14:07:58.103522,6356282,1717,443,956,-992,-647,-278,126,104,-90
16641,9961,0,2023-03-10T14:07:58.108155,6356287,1717,443,956,-992,-647,-278,126,104,-90
16642,9962,0,2023-03-10T14:07:58.112612,6356291,1724,436,954,-1004,-609,-245,126,104,-90
16643,9963,0,2023-03-10T14:07:58.117784,6356296,1724,436,954,-1004,-609,-245,126,104,-90
16644,9964,0,2023-03-10T14:07:58.122954,6356301,1724,436,954,-1004,-609,-245,126,104,-90
16645,9965,0,2023-03-10T14:07:58.128087,6356307,1724,436,954,-1004,-609,-245,126,104,-90
16646,9966,0,2023-03-10T14:07:58.132652,6356312,1712,439,964,-978,-627,-270,126,104,-90
16647,9967,0,2023-03-10T14:07:58.137614,6356317,1712,439,964,-978,-627,-270,126,104,-90
16648,9968,0,2023-03-10T14:07:58.142714,6356322,1712,439,964,-978,-627,-270,126,104,-90
16649,9969,0,2023-03-10T14:07:58.147046,6356326,1712,439,964,-978,-627,-270,126,104,-90
16650,9970,0,2023-03-10T14:07:58.151545,6356330,1712,439,964,-978,-627,-270,126,104,-90
16651,9971,0,2023-03-10T14:07:58.156160,6356335,1718,432,955,-1029,-620,-275,126,104,-90
16652,9972,0,2023-03-10T14:07:58.161298,6356340,1718,432,955,-1029,-620,-275,126,104,-90
16653,9973,0,2023-03-10T14:07:58.166278,6356345,1718,432,955,-1029,-620,-275,126,104,-90
16654,9974,0,2023-03-10T14:07:58.171290,6356349,1718,432,955,-1029,-620,-275,126,104,-90
16655,9975,0,2023-03-10T14:07:58.175773,6356355,1712,430,951,-995,-649,-265,126,104,-90
16656,9976,0,2023-03-10T14:07:58.180945,6356360,1712,430,951,-995,-649,-265,126,104,-90
16657,9977,0,2023-03-10T14:07:58.185392,6356364,1712,430,951,-995,-649,-265,126,104,-90
16658,9978,0,2023-03-10T14:07:58.189962,6356369,1712,430,951,-995,-649,-265,126,104,-90
16659,9979,0,2023-03-10T14:07:58.194427,6356373,1732,442,952,-1006,-609,-272,126,104,-90
16660,9980,0,2023-03-10T14:07:58.199426,6356378,1732,442,952,-1006,-609,-272,126,104,-90
16661,9981,0,2023-03-10T14:07:58.204492,6356383,1732,442,952,-1006,-609,-272,126,104,-90
16662,9982,0,2023-03-10T14:07:58.209079,6356388,1732,442,952,-1006,-609,-272,126,104,-90
16663,9983,0,2023-03-10T14:07:58.213854,6356392,1708,434,958,-969,-650,-237,121,107,-91
16664,9984,0,2023-03-10T14:07:58.218970,6356398,1708,434,958,-969,-650,-237,121,107,-91
16665,9985,0,2023-03-10T14:07:58.223491,6356403,1708,434,958,-969,-650,-237,121,107,-91
16666,9986,0,2023-03-10T14:07:58.228027,6356407,1708,434,958,-969,-650,-237,121,107,-91
16667,9987,0,2023-03-10T14:07:58.232492,6356411,1708,434,958,-969,-650,-237,121,107,-91
16668,9988,0,2023-03-10T14:07:58.237386,6356416,1726,440,954,-1007,-616,-280,121,107,-91
16669,9989,0,2023-03-10T14:07:58.242550,6356421,1726,440,954,-1007,-616,-280,121,107,-91
16670,9990,0,2023-03-10T14:07:58.247033,6356425,1726,440,954,-1007,-616,-280,121,107,-91
16671,9991,0,2023-03-10T14:07:58.251492,6356430,1726,440,954,-1007,-616,-280,121,107,-91
16672,9992,0,2023-03-10T14:07:58.256135,6356434,1708,430,946,-1020,-615,-271,121,107,-91
16673,9993,0,2023-03-10T14:07:58.261082,6356440,1708,430,946,-1020,-615,-271,121,107,-91
16674,9994,0,2023-03-10T14:07:58.266190,6356445,1708,430,946,-1020,-615,-271,121,107,-91
16675,9995,0,2023-03-10T14:07:58.270798,6356450,1708,430,946,-1020,-615,-271,121,107,-91
16676,9996,0,2023-03-10T14:07:58.275155,6356454,1728,440,956,-992,-641,-279,121,107,-91
16677,9997,0,2023-03-10T14:07:58.280475,6356459,1728,440,956,-992,-641,-279,121,107,-91
16678,9998,0,2023-03-10T14:07:58.285359,6356464,1728,440,956,-992,-641,-279,121,107,-91
16679,9999,0,2023-03-10T14:07:58.289814,6356468,1728,440,956,-992,-641,-279,121,107,-91
16680,0,0,2023-03-10T14:07:58.301951,6356481,1716,432,951,-1020,-615,-267,121,107,-91
16681,1,0,2023-03-10T14:07:58.307906,6356487,1716,432,951,-1020,-615,-267,121,107,-91
16682,2,0,2023-03-10T14:07:58.312464,6356491,1716,432,951,-1020,-615,-267,121,107,-91
16683,3,0,2023-03-10T14:07:58.317393,6356496,1730,438,949,-997,-654,-275,121,107,-91
16684,4,0,2023-03-10T14:07:58.322384,6356501,1730,438,949,-997,-654,-275,121,107,-91
16685,5,0,2023-03-10T14:07:58.327295,6356506,1730,438,949,-997,-654,-275,121,107,-91
16686,6,0,2023-03-10T14:07:58.331546,6356510,1730,438,949,-997,-654,-275,121,107,-91
16687,7,0,2023-03-10T14:07:58.336056,6356515,1711,434,946,-1004,-651,-257,126,104,-88
16688,8,0,2023-03-10T14:07:58.341138,6356519,1711,434,946,-1004,-651,-257,126,104,-88
16689,9,0,2023-03-10T14:07:58.345644,6356525,1711,434,946,-1004,-651,-257,126,104,-88
16690,10,0,2023-03-10T14:07:58.350086,6356529,1711,434,946,-1004,-651,-257,126,104,-88
16691,11,0,2023-03-10T14:07:58.354679,6356534,1717,431,960,-993,-595,-250,126,104,-88
16692,12,0,2023-03-10T14:07:58.359387,6356538,1717,431,960,-993,-595,-250,126,104,-88
16693,13,0,2023-03-10T14:07:58.364394,6356543,1717,431,960,-993,-595,-250,126,104,-88
16694,14,0,2023-03-10T14:07:58.369589,6356548,1717,431,960,-993,-595,-250,126,104,-88
16695,15,0,2023-03-10T14:07:58.374025,6356553,1735,441,955,-1013,-623,-296,126,104,-88
16696,16,0,2023-03-10T14:07:58.378581,6356557,1735,441,955,-1013,-623,-296,126,104,-88
16697,17,0,2023-03-10T14:07:58.383694,6356562,1735,441,955,-1013,-623,-296,126,104,-88
16698,18,0,2023-03-10T14:07:58.387966,6356567,1735,441,955,-1013,-623,-296,126,104,-88
16699,19,0,2023-03-10T14:07:58.392611,6356572,1735,441,955,-1013,-623,-296,126,104,-88
16700,20,0,2023-03-10T14:07:58.397261,6356576,1708,426,937,-1015,-634,-251,126,104,-88
16701,21,0,2023-03-10T14:07:58.402248,6356581,1708,426,937,-1015,-634,-251,126,104,-88
16702,22,0,2023-03-10T14:07:58.406652,6356585,1708,426,937,-1015,-634,-251,126,104,-88
16703,23,0,2023-03-10T14:07:58.411050,6356590,1708,426,937,-1015,-634,-251,126,104,-88
16704,24,0,2023-03-10T14:07:58.415975,6356594,1734,438,953,-999,-607,-291,126,104,-88
16705,25,0,2023-03-10T14:07:58.421225,6356600,1734,438,953,-999,-607,-291,126,104,-88
16706,26,0,2023-03-10T14:07:58.426168,6356605,1734,438,953,-999,-607,-291,126,104,-88
16707,27,0,2023-03-10T14:07:58.430530,6356610,1734,438,953,-999,-607,-291,126,104,-88
16708,28,0,2023-03-10T14:07:58.435093,6356614,1709,430,943,-1012,-641,-253,126,104,-88
16709,29,0,2023-03-10T14:07:58.440327,6356619,1709,430,943,-1012,-641,-253,126,104,-88
16710,30,0,2023-03-10T14:07:58.445575,6356624,1709,430,943,-1012,-641,-253,126,104,-88
16711,31,0,2023-03-10T14:07:58.449993,6356629,1709,430,943,-1012,-641,-253,126,104,-88
16712,32,0,2023-03-10T14:07:58.454429,6356633,1736,443,955,-1016,-617,-290,126,104,-88
16713,33,0,2023-03-10T14:07:58.459203,6356638,1736,443,955,-1016,-617,-290,126,104,-88
16714,34,0,2023-03-10T14:07:58.464076,6356643,1736,443,955,-1016,-617,-290,126,104,-88
16715,35,0,2023-03-10T14:07:58.468539,6356647,1736,443,955,-1016,-617,-290,126,104,-88
16716,36,0,2023-03-10T14:07:58.473142,6356652,1708,427,949,-1010,-627,-256,126,104,-88
16717,37,0,2023-03-10T14:07:58.478226,6356657,1708,427,949,-1010,-627,-256,122,104,-92
16718,38,0,2023-03-10T14:07:58.483459,6356663,1708,427,949,-1010,-627,-256,122,104,-92
16719,39,0,2023-03-10T14:07:58.487802,6356667,1708,427,949,-1010,-627,-256,122,104,-92
16720,40,0,2023-03-10T14:07:58.492469,6356671,1708,427,949,-1010,-627,-256,122,104,-92
16721,41,0,2023-03-10T14:07:58.497229,6356676,1712,437,954,-1014,-619,-283,122,104,-92
16722,42,0,2023-03-10T14:07:58.502432,6356681,1712,437,954,-1014,-619,-283,122,104,-92
16723,43,0,2023-03-10T14:07:58.507298,6356686,1712,437,954,-1014,-619,-283,122,104,-92
16724,44,0,2023-03-10T14:07:58.511759,6356690,1712,437,954,-1014,-619,-283,122,104,-92
16725,45,0,2023-03-10T14:07:58.516182,6356696,1734,435,957,-1002,-644,-267,122,104,-92
16726,46,0,2023-03-10T14:07:58.521271,6356700,1734,435,957,-1002,-644,-267,122,104,-92
16727,47,0,2023-03-10T14:07:58.525889,6356705,1734,435,957,-1002,-644,-267,122,104,-92
16728,48,0,2023-03-10T14:07:58.530293,6356709,1734,435,957,-1002,-644,-267,122,104,-92
16729,49,0,2023-03-10T14:07:58.535019,6356714,1728,435,951,-996,-628,-273,122,104,-92
16730,50,0,2023-03-10T14:07:58.540064,6356719,1728,435,951,-996,-628,-273,122,104,-92
16731,51,0,2023-03-10T14:07:58.544967,6356724,1728,435,951,-996,-628,-273,122,104,-92
16732,52,0,2023-03-10T14:07:58.549400,6356728,1728,435,951,-996,-628,-273,122,104,-92
16733,53,0,2023-03-10T14:07:58.553805,6356732,1710,425,940,-1004,-627,-263,122,104,-92
16734,54,0,2023-03-10T14:07:58.558787,6356738,1710,425,940,-1004,-627,-263,122,104,-92
16735,55,0,2023-03-10T14:07:58.563935,6356743,1710,425,940,-1004,-627,-263,122,104,-92
16736,56,0,2023-03-10T14:07:58.568324,6356747,1710,425,940,-1004,-627,-263,122,104,-92
16737,57,0,2023-03-10T14:07:58.572949,6356752,1710,425,940,-1004,-627,-263,122,104,-92
16738,58,0,2023-03-10T14:07:58.577240,6356756,1722,436,947,-992,-636,-279,122,104,-92
16739,59,0,2023-03-10T14:07:58.582234,6356761,1722,436,947,-992,-636,-279,122,104,-92
16740,60,0,2023-03-10T14:07:58.587352,6356766,1722,436,947,-992,-636,-279,122,104,-92
16741,61,0,2023-03-10T14:07:58.591770,6356770,1722,436,947,-992,-636,-279,122,104,-92
16742,62,0,2023-03-10T14:07:58.596266,6356775,1724,432,950,-996,-607,-270,114,98,-78
16743,63,0,2023-03-10T14:07:58.601660,6356781,1724,432,950,-996,-607,-270,114,98,-78
16744,64,0,2023-03-10T14:07:58.607113,6356786,1724,432,950,-996,-607,-270,114,98,-78
16745,65,0,2023-03-10T14:07:58.611641,6356791,1724,432,950,-996,-607,-270,114,98,-78
16746,66,0,2023-03-10T14:07:58.616054,6356795,1719,441,946,-1007,-632,-295,114,98,-78
16747,67,0,2023-03-10T14:07:58.621287,6356800,1719,441,946,-1007,-632,-295,114,98,-78
16748,68,0,2023-03-10T14:07:58.626238,6356805,1719,441,946,-1007,-632,-295,114,98,-78
16749,69,0,2023-03-10T14:07:58.630527,6356809,1719,441,946,-1007,-632,-295,114,98,-78
16750,70,0,2023-03-10T14:07:58.635139,6356813,1720,429,943,-1011,-622,-260,114,98,-78
16751,71,0,2023-03-10T14:07:58.640020,6356818,1720,429,943,-1011,-622,-260,114,98,-78
16752,72,0,2023-03-10T14:07:58.644984,6356824,1720,429,943,-1011,-622,-260,114,98,-78
16753,73,0,2023-03-10T14:07:58.649484,6356829,1720,429,943,-1011,-622,-260,114,98,-78
16754,74,0,2023-03-10T14:07:58.653930,6356833,1716,433,942,-994,-640,-278,114,98,-78
16755,75,0,2023-03-10T14:07:58.658813,6356838,1716,433,942,-994,-640,-278,114,98,-78
16756,76,0,2023-03-10T14:07:58.663795,6356843,1716,433,942,-994,-640,-278,114,98,-78
16757,77,0,2023-03-10T14:07:58.668325,6356847,1716,433,942,-994,-640,-278,114,98,-78
16758,78,0,2023-03-10T14:07:58.672846,6356851,1716,433,942,-994,-640,-278,114,98,-78
16759,79,0,2023-03-10T14:07:58.677120,6356856,1734,436,948,-1012,-608,-263,114,98,-78
16760,80,0,2023-03-10T14:07:58.681980,6356860,1734,436,948,-1012,-608,-263,114,98,-78
16761,81,0,2023-03-10T14:07:58.687055,6356866,1734,436,948,-1012,-608,-263,114,98,-78
16762,82,0,2023-03-10T14:07:58.691698,6356871,1734,436,948,-1012,-608,-263,114,98,-78
16763,83,0,2023-03-10T14:07:58.696102,6356875,1711,431,954,-954,-649,-244,114,98,-78
16764,84,0,2023-03-10T14:07:58.701179,6356880,1711,431,954,-954,-649,-244,114,98,-78
16765,85,0,2023-03-10T14:07:58.707745,6356886,1711,431,954,-954,-649,-244,114,98,-78
16766,86,0,2023-03-10T14:07:58.712253,6356891,1711,431,954,-954,-649,-244,114,98,-78
16767,87,0,2023-03-10T14:07:58.716834,6356895,1732,433,940,-1018,-622,-285,114,98,-78
16768,88,0,2023-03-10T14:07:58.722180,6356901,1732,433,940,-1018,-622,-285,114,98,-78
16769,89,0,2023-03-10T14:07:58.726813,6356905,1732,433,940,-1018,-622,-285,114,98,-78
16770,90,0,2023-03-10T14:07:58.731304,6356911,1732,433,940,-1018,-622,-285,114,98,-78
16771,91,0,2023-03-10T14:07:58.735736,6356915,1714,433,942,-1015,-619,-277,123,99,-95
16772,92,0,2023-03-10T14:07:58.740846,6356920,1714,433,942,-1015,-619,-277,123,99,-95
16773,93,0,2023-03-10T14:07:58.745771,6356925,1714,433,942,-1015,-619,-277,123,99,-95
16774,94,0,2023-03-10T14:07:58.750623,6356930,1714,433,942,-1015,-619,-277,123,99,-95
16775,95,0,2023-03-10T14:07:58.755006,6356934,1733,435,958,-1000,-657,-278,123,99,-95
16776,96,0,2023-03-10T14:07:58.759556,6356938,1733,435,958,-1000,-657,-278,123,99,-95
16777,97,0,2023-03-10T14:07:58.764616,6356943,1733,435,958,-1000,-657,-278,123,99,-95
16778,98,0,2023-03-10T14:07:58.769154,6356947,1733,435,958,-1000,-657,-278,123,99,-95
16779,99,0,2023-03-10T14:07:58.773542,6356953,1720,441,939,-1023,-612,-288,123,99,-95
16780,100,0,2023-03-10T14:07:58.778443,6356958,1720,441,939,-1023,-612,-288,123,99,-95
16781,101,0,2023-03-10T14:07:58.783260,6356962,1720,441,939,-1023,-612,-288,123,99,-95
16782,102,0,2023-03-10T14:07:58.787837,6356967,1720,441,939,-1023,-612,-288,123,99,-95
16783,103,0,2023-03-10T14:07:58.792216,6356971,1720,441,939,-1023,-612,-288,123,99,-95
16784,104,0,2023-03-10T14:07:58.796750,6356975,1727,435,945,-993,-620,-263,123,99,-95
16785,105,0,2023-03-10T14:07:58.801571,6356980,1727,435,945,-993,-620,-263,123,99,-95
16786,106,0,2023-03-10T14:07:58.807305,6356986,1727,435,945,-993,-620,-263,123,99,-95
16787,107,0,2023-03-10T14:07:58.811575,6356990,1727,435,945,-993,-620,-263,123,99,-95
16788,108,0,2023-03-10T14:07:58.816120,6356995,1712,428,950,-989,-626,-259,123,99,-95
16789,109,0,2023-03-10T14:07:58.820959,6357000,1712,428,950,-989,-626,-259,123,99,-95
16790,110,0,2023-03-10T14:07:58.825749,6357005,1712,428,950,-989,-626,-259,123,99,-95
16791,111,0,2023-03-10T14:07:58.830396,6357009,1712,428,950,-989,-626,-259,123,99,-95
16792,112,0,2023-03-10T14:07:58.835046,6357014,1732,432,939,-1023,-629,-290,123,99,-95
16793,113,0,2023-03-10T14:07:58.840246,6357019,1732,432,939,-1023,-629,-290,123,99,-95
16794,114,0,2023-03-10T14:07:58.845485,6357024,1732,432,939,-1023,-629,-290,123,99,-95
16795,115,0,2023-03-10T14:07:58.850622,6357029,1732,432,939,-1023,-629,-290,123,99,-95
16796,116,0,2023-03-10T14:07:58.855058,6357033,1738,436,935,-1000,-639,-282,121,107,-87
16797,117,0,2023-03-10T14:07:58.860072,6357039,1738,436,935,-1000,-639,-282,121,107,-87
16798,118,0,2023-03-10T14:07:58.864976,6357044,1738,436,935,-1000,-639,-282,121,107,-87
16799,119,0,2023-03-10T14:07:58.869538,6357049,1738,436,935,-1000,-639,-282,121,107,-87
16800,120,0,2023-03-10T14:07:58.874235,6357053,1712,427,938,-1006,-627,-260,121,107,-87
16801,121,0,2023-03-10T14:07:58.879307,6357058,1712,427,938,-1006,-627,-260,121,107,-87
16802,122,0,2023-03-10T14:07:58.884249,6357063,1712,427,938,-1006,-627,-260,121,107,-87
16803,123,0,2023-03-10T14:07:58.888778,6357067,1712,427,938,-1006,-627,-260,121,107,-87
16804,124,0,2023-03-10T14:07:58.893453,6357072,1712,427,938,-1006,-627,-260,121,107,-87
16805,125,0,2023-03-10T14:07:58.897748,6357076,1721,438,941,-1007,-608,-272,121,107,-87
16806,126,0,2023-03-10T14:07:58.902499,6357082,1721,438,941,-1007,-608,-272,121,107,-87
16807,127,0,2023-03-10T14:07:58.907291,6357086,1721,438,941,-1007,-608,-272,121,107,-87
16808,128,0,2023-03-10T14:07:58.911754,6357091,1721,438,941,-1007,-608,-272,121,107,-87
16809,129,0,2023-03-10T14:07:58.916287,6357095,1724,432,952,-976,-643,-248,121,107,-87
16810,130,0,2023-03-10T14:07:58.921194,6357100,1724,432,952,-976,-643,-248,121,107,-87
16811,131,0,2023-03-10T14:07:58.925655,6357104,1724,432,952,-976,-643,-248,121,107,-87
16812,132,0,2023-03-10T14:07:58.930165,6357109,1724,432,952,-976,-643,-248,121,107,-87
16813,133,0,2023-03-10T14:07:58.934931,6357113,1720,435,943,-1008,-607,-281,121,107,-87
16814,134,0,2023-03-10T14:07:58.940071,6357118,1720,435,943,-1008,-607,-281,121,107,-87
16815,135,0,2023-03-10T14:07:58.945028,6357124,1720,435,943,-1008,-607,-281,121,107,-87
16816,136,0,2023-03-10T14:07:58.949644,6357129,1720,435,943,-1008,-607,-281,121,107,-87
16817,137,0,2023-03-10T14:07:58.954375,6357133,1740,439,946,-1015,-660,-283,121,107,-87
16818,138,0,2023-03-10T14:07:58.959301,6357138,1740,439,946,-1015,-660,-283,121,107,-87
16819,139,0,2023-03-10T14:07:58.963780,6357143,1740,439,946,-1015,-660,-283,121,107,-87
16820,140,0,2023-03-10T14:07:58.968143,6357147,1740,439,946,-1015,-660,-283,121,107,-87
16821,141,0,2023-03-10T14:07:58.972776,6357151,1740,439,946,-1015,-660,-283,121,107,-87
16822,142,0,2023-03-10T14:07:58.977246,6357156,1711,428,933,-1002,-665,-258,121,107,-87
16823,143,0,2023-03-10T14:07:58.982295,6357161,1711,428,933,-1002,-665,-258,121,107,-87
16824,144,0,2023-03-10T14:07:58.987826,6357167,1711,428,933,-1002,-665,-258,121,107,-87
16825,145,0,2023-03-10T14:07:58.992415,6357172,1711,428,933,-1002,-665,-258,121,107,-87
16826,146,0,2023-03-10T14:07:58.997033,6357176,1733,436,949,-1007,-594,-274,132,98,-96
16827,147,0,2023-03-10T14:07:59.002040,6357181,1733,436,949,-1007,-594,-274,132,98,-96
16828,148,0,2023-03-10T14:07:59.007188,6357186,1733,436,949,-1007,-594,-274,132,98,-96
16829,149,0,2023-03-10T14:07:59.011744,6357190,1733,436,949,-1007,-594,-274,132,98,-96
16830,150,0,2023-03-10T14:07:59.016288,6357195,1738,442,948,-992,-610,-284,132,98,-96
16831,151,0,2023-03-10T14:07:59.021449,6357200,1738,442,948,-992,-610,-284,132,98,-96
16832,152,0,2023-03-10T14:07:59.026292,6357206,1738,442,948,-992,-610,-284,132,98,-96
16833,153,0,2023-03-10T14:07:59.030777,6357210,1738,442,948,-992,-610,-284,132,98,-96
16834,154,0,2023-03-10T14:07:59.035271,6357214,1711,430,932,-1023,-627,-265,132,98,-96
16835,155,0,2023-03-10T14:07:59.040248,6357219,1711,430,932,-1023,-627,-265,132,98,-96
16836,156,0,2023-03-10T14:07:59.045292,6357224,1711,430,932,-1023,-627,-265,132,98,-96
16837,157,0,2023-03-10T14:07:59.050235,6357229,1711,430,932,-1023,-627,-265,132,98,-96
16838,158,0,2023-03-10T14:07:59.055095,6357234,1737,435,948,-1011,-613,-290,132,98,-96
16839,159,0,2023-03-10T14:07:59.060031,6357239,1737,435,948,-1011,-613,-290,132,98,-96
16840,160,0,2023-03-10T14:07:59.065382,6357244,1737,435,948,-1011,-613,-290,132,98,-96
16841,161,0,2023-03-10T14:07:59.069901,6357249,1737,435,948,-1011,-613,-290,132,98,-96
16842,162,0,2023-03-10T14:07:59.074354,6357254,1717,429,942,-992,-643,-248,132,98,-96
16843,163,0,2023-03-10T14:07:59.079742,6357259,1717,429,942,-992,-643,-248,132,98,-96
16844,164,0,2023-03-10T14:07:59.084718,6357264,1717,429,942,-992,-643,-248,132,98,-96
16845,165,0,2023-03-10T14:07:59.089184,6357268,1717,429,942,-992,-643,-248,132,98,-96
16846,166,0,2023-03-10T14:07:59.093772,6357272,1717,429,942,-992,-643,-248,132,98,-96
16847,167,0,2023-03-10T14:07:59.098388,6357277,1736,434,944,-973,-620,-256,132,98,-96
16848,168,0,2023-03-10T14:07:59.104061,6357283,1736,434,944,-973,-620,-256,132,98,-96
16849,169,0,2023-03-10T14:07:59.108353,6357287,1736,434,944,-973,-620,-256,132,98,-96
16850,170,0,2023-03-10T14:07:59.112986,6357292,1736,434,944,-973,-620,-256,132,98,-96
16851,171,0,2023-03-10T14:07:59.117998,6357297,1717,431,946,-1012,-616,-281,114,90,-90
16852,172,0,2023-03-10T14:07:59.123613,6357303,1717,431,946,-1012,-616,-281,114,90,-90
16853,173,0,2023-03-10T14:07:59.129132,6357308,1717,431,946,-1012,-616,-281,114,90,-90
16854,174,0,2023-03-10T14:07:59.133378,6357312,1717,431,946,-1012,-616,-281,114,90,-90
16855,175,0,2023-03-10T14:07:59.137828,6357316,1726,429,939,-1011,-650,-273,114,90,-90
16856,176,0,2023-03-10T14:07:59.143072,6357322,1726,429,939,-1011,-650,-273,114,90,-90
16857,177,0,2023-03-10T14:07:59.148240,6357327,1726,429,939,-1011,-650,-273,114,90,-90
16858,178,0,2023-03-10T14:07:59.152738,6357331,1726,429,939,-1011,-650,-273,114,90,-90
16859,179,0,2023-03-10T14:07:59.157124,6357336,1726,429,939,-1011,-650,-273,114,90,-90
16860,180,0,2023-03-10T14:07:59.161963,6357341,1726,429,939,-1011,-650,-273,114,90,-90
16861,181,0,2023-03-10T14:07:59.166945,6357346,1726,429,939,-1011,-650,-273,114,90,-90
16862,182,0,2023-03-10T14:07:59.171368,6357350,1726,429,939,-1011,-650,-273,114,90,-90
16863,183,0,2023-03-10T14:07:59.176114,6357355,1726,436,934,-1019,-647,-270,114,90,-90
16864,184,0,2023-03-10T14:07:59.181400,6357360,1726,436,934,-1019,-647,-270,114,90,-90
16865,185,0,2023-03-10T14:07:59.186390,6357365,1726,436,934,-1019,-647,-270,114,90,-90
16866,186,0,2023-03-10T14:07:59.190922,6357369,1726,436,934,-1019,-647,-270,114,90,-90
16867,187,0,2023-03-10T14:07:59.196016,6357374,1727,431,949,-1001,-621,-263,114,90,-90
16868,188,0,2023-03-10T14:07:59.201274,6357380,1727,431,949,-1001,-621,-263,114,90,-90
16869,189,0,2023-03-10T14:07:59.206190,6357385,1727,431,949,-1001,-621,-263,114,90,-90
16870,190,0,2023-03-10T14:07:59.210459,6357390,1727,431,949,-1001,-621,-263,114,90,-90
16871,191,0,2023-03-10T14:07:59.215090,6357394,1714,431,941,-1016,-622,-267,114,90,-90
16872,192,0,2023-03-10T14:07:59.220182,6357399,1714,431,941,-1016,-622,-267,114,90,-90
16873,193,0,2023-03-10T14:07:59.225099,6357404,1714,431,941,-1016,-622,-267,114,90,-90
16874,194,0,2023-03-10T14:07:59.229579,6357408,1714,431,941,-1016,-622,-267,114,90,-90
16875,195,0,2023-03-10T14:07:59.234520,6357412,1741,433,948,-1005,-662,-281,121,90,-90
16876,196,0,2023-03-10T14:07:59.239540,6357419,1741,433,948,-1005,-662,-281,121,101,-91
16877,197,0,2023-03-10T14:07:59.244443,6357424,1741,433,948,-1005,-662,-281,121,101,-91
16878,198,0,2023-03-10T14:07:59.248560,6357428,1741,433,948,-1005,-662,-281,121,101,-91
16879,199,0,2023-03-10T14:07:59.252977,6357432,1741,433,948,-1005,-662,-281,121,101,-91
16880,200,0,2023-03-10T14:07:59.257442,6357436,1721,431,942,-1002,-623,-267,121,101,-91
16881,201,0,2023-03-10T14:07:59.262502,6357441,1721,431,942,-1002,-623,-267,121,101,-91
16882,202,0,2023-03-10T14:07:59.267106,6357446,1721,431,942,-1002,-623,-267,121,101,-91
16883,203,0,2023-03-10T14:07:59.272021,6357450,1721,431,942,-1002,-623,-267,121,101,-91
16884,204,0,2023-03-10T14:07:59.276365,6357455,1736,432,940,-1000,-622,-287,121,101,-91
16885,205,0,2023-03-10T14:07:59.281292,6357460,1736,432,940,-1000,-622,-287,121,101,-91
16886,206,0,2023-03-10T14:07:59.286114,6357466,1736,432,940,-1000,-622,-287,121,101,-91
16887,207,0,2023-03-10T14:07:59.290691,6357470,1736,432,940,-1000,-622,-287,121,101,-91
16888,208,0,2023-03-10T14:07:59.295262,6357474,1714,429,936,-1009,-628,-276,121,101,-91
16889,209,0,2023-03-10T14:07:59.300310,6357479,1714,429,936,-1009,-628,-276,121,101,-91
16890,210,0,2023-03-10T14:07:59.305348,6357484,1714,429,936,-1009,-628,-276,121,101,-91
16891,211,0,2023-03-10T14:07:59.309878,6357489,1714,429,936,-1009,-628,-276,121,101,-91
16892,212,0,2023-03-10T14:07:59.314492,6357493,1736,442,942,-1003,-617,-270,121,101,-91
16893,213,0,2023-03-10T14:07:59.319387,6357498,1736,442,942,-1003,-617,-270,121,101,-91
16894,214,0,2023-03-10T14:07:59.324180,6357504,1736,442,942,-1003,-617,-270,121,101,-91
16895,215,0,2023-03-10T14:07:59.328629,6357508,1736,442,942,-1003,-617,-270,121,101,-91
16896,216,0,2023-03-10T14:07:59.333110,6357512,1736,442,942,-1003,-617,-270,121,101,-91
16897,217,0,2023-03-10T14:07:59.337737,6357517,1736,442,942,-1003,-617,-270,121,101,-91
16898,218,0,2023-03-10T14:07:59.342290,6357521,1736,442,942,-1003,-617,-270,121,101,-91
16899,219,0,2023-03-10T14:07:59.347373,6357526,1736,442,942,-1003,-617,-270,121,101,-91
16900,220,0,2023-03-10T14:07:59.351861,6357531,1736,442,942,-1003,-617,-270,121,101,-91
16901,221,0,2023-03-10T14:07:59.356560,6357535,1721,425,928,-1015,-634,-278,121,101,-91
16902,222,0,2023-03-10T14:07:59.361538,6357540,1721,425,928,-1015,-634,-278,121,101,-91
16903,223,0,2023-03-10T14:07:59.366501,6357545,1721,425,928,-1015,-634,-278,121,101,-91
16904,224,0,2023-03-10T14:07:59.371164,6357550,1721,425,928,-1015,-634,-278,121,101,-91
16905,225,0,2023-03-10T14:07:59.375727,6357555,1735,435,937,-1003,-615,-284,126,108,-86
16906,226,0,2023-03-10T14:07:59.380587,6357560,1735,435,937,-1003,-615,-284,126,108,-86
16907,227,0,2023-03-10T14:07:59.385703,6357564,1735,435,937,-1003,-615,-284,126,108,-86
16908,228,0,2023-03-10T14:07:59.390233,6357569,1735,435,937,-1003,-615,-284,126,108,-86
16909,229,0,2023-03-10T14:07:59.394583,6357573,1744,436,942,-987,-658,-288,126,108,-86
16910,230,0,2023-03-10T14:07:59.399771,6357578,1744,436,942,-987,-658,-288,126,108,-86
16911,231,0,2023-03-10T14:07:59.404714,6357583,1744,436,942,-987,-658,-288,126,108,-86
16912,232,0,2023-03-10T14:07:59.409700,6357588,1744,436,942,-987,-658,-288,126,108,-86
16913,233,0,2023-03-10T14:07:59.414155,6357593,1724,427,937,-1003,-616,-266,126,108,-86
16914,234,0,2023-03-10T14:07:59.419180,6357598,1724,427,937,-1003,-616,-266,126,108,-86
16915,235,0,2023-03-10T14:07:59.424285,6357604,1724,427,937,-1003,-616,-266,126,108,-86
16916,236,0,2023-03-10T14:07:59.428997,6357608,1724,427,937,-1003,-616,-266,126,108,-86
16917,237,0,2023-03-10T14:07:59.433594,6357612,1724,427,937,-1003,-616,-266,126,108,-86
16918,238,0,2023-03-10T14:07:59.438097,6357617,1736,438,940,-1004,-604,-295,126,108,-86
16919,239,0,2023-03-10T14:07:59.443314,6357622,1736,438,940,-1004,-604,-295,126,108,-86
16920,240,0,2023-03-10T14:07:59.447859,6357626,1736,438,940,-1004,-604,-295,126,108,-86
16921,241,0,2023-03-10T14:07:59.452266,6357632,1736,438,940,-1004,-604,-295,126,108,-86
16922,242,0,2023-03-10T14:07:59.456641,6357636,1718,430,938,-995,-621,-242,126,108,-86
16923,243,0,2023-03-10T14:07:59.461810,6357641,1718,430,938,-995,-621,-242,126,108,-86
16924,244,0,2023-03-10T14:07:59.466507,6357645,1718,430,938,-995,-621,-242,126,108,-86
16925,245,0,2023-03-10T14:07:59.471062,6357650,1718,430,938,-995,-621,-242,126,108,-86
16926,246,0,2023-03-10T14:07:59.475708,6357654,1733,436,947,-992,-637,-268,126,108,-86
16927,247,0,2023-03-10T14:07:59.480932,6357660,1733,436,947,-992,-637,-268,126,108,-86
16928,248,0,2023-03-10T14:07:59.485390,6357664,1733,436,947,-992,-637,-268,126,108,-86
16929,249,0,2023-03-10T14:07:59.489852,6357668,1733,436,947,-992,-637,-268,126,108,-86
16930,250,0,2023-03-10T14:07:59.494303,6357673,1738,437,938,-1025,-635,-285,122,98,-92
16931,251,0,2023-03-10T14:07:59.499220,6357678,1738,437,938,-1025,-635,-285,122,98,-92
16932,252,0,2023-03-10T14:07:59.504538,6357684,1738,437,938,-1025,-635,-285,122,98,-92
16933,253,0,2023-03-10T14:07:59.509064,6357688,1738,437,938,-1025,-635,-285,122,98,-92
16934,254,0,2023-03-10T14:07:59.513730,6357693,1738,437,938,-1025,-635,-285,122,98,-92
16935,255,0,2023-03-10T14:07:59.518316,6357697,1720,423,924,-1004,-636,-263,122,98,-92
16936,256,0,2023-03-10T14:07:59.524143,6357702,1720,423,924,-1004,-636,-263,122,98,-92
16937,257,0,2023-03-10T14:07:59.528790,6357707,1720,423,924,-1004,-636,-263,122,98,-92
16938,258,0,2023-03-10T14:07:59.533523,6357712,1720,423,924,-1004,-636,-263,122,98,-92
16939,259,0,2023-03-10T14:07:59.538238,6357718,1727,435,940,-994,-629,-284,122,98,-92
16940,260,0,2023-03-10T14:07:59.543449,6357723,1727,435,940,-994,-629,-284,122,98,-92
16941,261,0,2023-03-10T14:07:59.548329,6357728,1727,435,940,-994,-629,-284,122,98,-92
16942,262,0,2023-03-10T14:07:59.552721,6357732,1727,435,940,-994,-629,-284,122,98,-92
16943,263,0,2023-03-10T14:07:59.557316,6357736,1741,432,946,-1006,-631,-280,122,98,-92
16944,264,0,2023-03-10T14:07:59.562093,6357741,1741,432,946,-1006,-631,-280,122,98,-92
16945,265,0,2023-03-10T14:07:59.567031,6357746,1741,432,946,-1006,-631,-280,122,98,-92
16946,266,0,2023-03-10T14:07:59.571539,6357750,1741,432,946,-1006,-631,-280,122,98,-92
16947,267,0,2023-03-10T14:07:59.576114,6357754,1737,443,933,-1017,-620,-286,122,98,-92
16948,268,0,2023-03-10T14:07:59.581232,6357760,1737,443,933,-1017,-620,-286,122,98,-92
16949,269,0,2023-03-10T14:07:59.586171,6357765,1737,443,933,-1017,-620,-286,122,98,-92
16950,270,0,2023-03-10T14:07:59.591335,6357771,1737,443,933,-1017,-620,-286,122,98,-92
16951,271,0,2023-03-10T14:07:59.595756,6357775,1720,425,933,-996,-624,-239,122,98,-92
16952,272,0,2023-03-10T14:07:59.600995,6357780,1720,425,933,-996,-624,-239,122,98,-92
16953,273,0,2023-03-10T14:07:59.606212,6357785,1720,425,933,-996,-624,-239,122,98,-92
16954,274,0,2023-03-10T14:07:59.611122,6357790,1720,425,933,-996,-624,-239,122,98,-92
16955,275,0,2023-03-10T14:07:59.615500,6357794,1731,434,941,-1007,-611,-283,122,98,-92
16956,276,0,2023-03-10T14:07:59.620829,6357799,1731,434,941,-1007,-611,-283,122,98,-92
16957,277,0,2023-03-10T14:07:59.625598,6357805,1731,434,941,-1007,-611,-283,122,98,-92
16958,278,0,2023-03-10T14:07:59.630172,6357809,1731,434,941,-1007,-611,-283,122,98,-92
16959,279,0,2023-03-10T14:07:59.634812,6357814,1742,431,932,-1022,-673,-282,117,99,-81
16960,280,0,2023-03-10T14:07:59.639665,6357819,1742,431,932,-1022,-673,-282,117,99,-81
16961,281,0,2023-03-10T14:07:59.644814,6357824,1742,431,932,-1022,-673,-282,117,99,-81
16962,282,0,2023-03-10T14:07:59.649118,6357828,1742,431,932,-1022,-673,-282,117,99,-81
16963,283,0,2023-03-10T14:07:59.653811,6357832,1742,431,932,-1022,-673,-282,117,99,-81
16964,284,0,2023-03-10T14:07:59.658287,6357837,1727,436,934,-999,-623,-267,117,99,-81
16965,285,0,2023-03-10T14:07:59.663395,6357842,1727,436,934,-999,-623,-267,117,99,-81
16966,286,0,2023-03-10T14:07:59.668316,6357848,1727,436,934,-999,-623,-267,117,99,-81
16967,287,0,2023-03-10T14:07:59.672906,6357852,1727,436,934,-999,-623,-267,117,99,-81
16968,288,0,2023-03-10T14:07:59.677320,6357856,1736,429,932,-1013,-620,-291,117,99,-81
16969,289,0,2023-03-10T14:07:59.682567,6357862,1736,429,932,-1013,-620,-291,117,99,-81
16970,290,0,2023-03-10T14:07:59.687417,6357866,1736,429,932,-1013,-620,-291,117,99,-81
16971,291,0,2023-03-10T14:07:59.691857,6357871,1736,429,932,-1013,-620,-291,117,99,-81
16972,292,0,2023-03-10T14:07:59.696354,6357875,1726,434,936,-1002,-618,-262,117,99,-81
16973,293,0,2023-03-10T14:07:59.701176,6357880,1726,434,936,-1002,-618,-262,117,99,-81
16974,294,0,2023-03-10T14:07:59.706269,6357885,1726,434,936,-1002,-618,-262,117,99,-81
16975,295,0,2023-03-10T14:07:59.710758,6357890,1726,434,936,-1002,-618,-262,117,99,-81
16976,296,0,2023-03-10T14:07:59.715075,6357894,1730,432,943,-990,-630,-259,117,99,-81
16977,297,0,2023-03-10T14:07:59.719811,6357899,1730,432,943,-990,-630,-259,117,99,-81
16978,298,0,2023-03-10T14:07:59.725116,6357904,1730,432,943,-990,-630,-259,117,99,-81
16979,299,0,2023-03-10T14:07:59.729715,6357909,1730,432,943,-990,-630,-259,117,99,-81
16980,300,0,2023-03-10T14:07:59.734316,6357913,1730,432,943,-990,-630,-259,117,99,-81
16981,301,0,2023-03-10T14:07:59.738856,6357917,1732,436,943,-1019,-618,-289,117,99,-81
16982,302,0,2023-03-10T14:07:59.744292,6357923,1732,436,943,-1019,-618,-289,117,99,-81
16983,303,0,2023-03-10T14:07:59.749217,6357928,1732,436,943,-1019,-618,-289,117,99,-81
16984,304,0,2023-03-10T14:07:59.753482,6357933,1732,436,943,-1019,-618,-289,117,99,-81
16985,305,0,2023-03-10T14:07:59.757934,6357937,1746,431,937,-1012,-672,-275,126,104,-82
16986,306,0,2023-03-10T14:07:59.763122,6357942,1746,431,937,-1012,-672,-275,126,104,-82
16987,307,0,2023-03-10T14:07:59.769403,6357948,1746,431,937,-1012,-672,-275,126,104,-82
16988,308,0,2023-03-10T14:07:59.774066,6357953,1746,431,937,-1012,-672,-275,126,104,-82
16989,309,0,2023-03-10T14:07:59.778649,6357957,1722,426,929,-990,-660,-270,126,104,-82
16990,310,0,2023-03-10T14:07:59.783653,6357962,1722,426,929,-990,-660,-270,126,104,-82
16991,311,0,2023-03-10T14:07:59.788252,6357967,1722,426,929,-990,-660,-270,126,104,-82
16992,312,0,2023-03-10T14:07:59.793304,6357972,1722,426,929,-990,-660,-270,126,104,-82
16993,313,0,2023-03-10T14:07:59.797910,6357977,1742,432,933,-1010,-590,-275,126,104,-82
16994,314,0,2023-03-10T14:07:59.803254,6357982,1742,432,933,-1010,-590,-275,126,104,-82
16995,315,0,2023-03-10T14:07:59.808016,6357987,1742,432,933,-1010,-590,-275,126,104,-82
16996,316,0,2023-03-10T14:07:59.812798,6357992,1742,432,933,-1010,-590,-275,126,104,-82
16997,317,0,2023-03-10T14:07:59.817292,6357996,1743,439,944,-995,-610,-282,126,104,-82
16998,318,0,2023-03-10T14:07:59.822335,6358001,1743,439,944,-995,-610,-282,126,104,-82
16999,319,0,2023-03-10T14:07:59.827229,6358006,1743,439,944,-995,-610,-282,126,104,-82
17000,320,0,2023-03-10T14:07:59.832132,6358011,1743,439,944,-995,-610,-282,126,104,-82
17001,321,0,2023-03-10T14:07:59.836678,6358016,1724,434,921,-1016,-617,-270,126,104,-82
17002,322,0,2023-03-10T14:07:59.841955,6358021,1724,434,921,-1016,-617,-270,126,104,-82
17003,323,0,2023-03-10T14:07:59.846800,6358026,1724,434,921,-1016,-617,-270,126,104,-82
17004,324,0,2023-03-10T14:07:59.851339,6358030,1724,434,921,-1016,-617,-270,126,104,-82
17005,325,0,2023-03-10T14:07:59.855745,6358035,1740,427,946,-986,-610,-244,126,104,-82
17006,326,0,2023-03-10T14:07:59.861060,6358040,1740,427,946,-986,-610,-244,126,104,-82
17007,327,0,2023-03-10T14:07:59.866327,6358045,1740,427,946,-986,-610,-244,126,104,-82
17008,328,0,2023-03-10T14:07:59.870720,6358049,1740,427,946,-986,-610,-244,126,104,-82
17009,329,0,2023-03-10T14:07:59.875194,6358054,1726,425,931,-995,-653,-244,119,97,-85
17010,330,0,2023-03-10T14:07:59.880252,6358060,1726,425,931,-995,-653,-244,119,97,-85
17011,331,0,2023-03-10T14:07:59.885164,6358065,1726,425,931,-995,-653,-244,119,97,-85
17012,332,0,2023-03-10T14:07:59.889615,6358069,1726,425,931,-995,-653,-244,119,97,-85
17013,333,0,2023-03-10T14:07:59.893992,6358073,1726,425,931,-995,-653,-244,119,97,-85
17014,334,0,2023-03-10T14:07:59.898597,6358078,1749,430,930,-1024,-635,-294,119,97,-85
17015,335,0,2023-03-10T14:07:59.904086,6358083,1749,430,930,-1024,-635,-294,119,97,-85
17016,336,0,2023-03-10T14:07:59.908713,6358087,1749,430,930,-1024,-635,-294,119,97,-85
17017,337,0,2023-03-10T14:07:59.913364,6358092,1749,430,930,-1024,-635,-294,119,97,-85
17018,338,0,2023-03-10T14:07:59.917965,6358097,1729,427,927,-999,-626,-266,119,97,-85
17019,339,0,2023-03-10T14:07:59.923105,6358102,1729,427,927,-999,-626,-266,119,97,-85
17020,340,0,2023-03-10T14:07:59.928729,6358108,1729,427,927,-999,-626,-266,119,97,-85
17021,341,0,2023-03-10T14:07:59.933300,6358112,1729,427,927,-999,-626,-266,119,97,-85
17022,342,0,2023-03-10T14:07:59.937814,6358117,1728,428,931,-999,-616,-269,119,97,-85
17023,343,0,2023-03-10T14:07:59.942658,6358121,1728,428,931,-999,-616,-269,119,97,-85
17024,344,0,2023-03-10T14:07:59.947475,6358126,1728,428,931,-999,-616,-269,119,97,-85
17025,345,0,2023-03-10T14:07:59.951772,6358131,1728,428,931,-999,-616,-269,119,97,-85
17026,346,0,2023-03-10T14:07:59.956187,6358135,1749,442,935,-1010,-632,-286,119,97,-85
17027,347,0,2023-03-10T14:07:59.961252,6358140,1749,442,935,-1010,-632,-286,119,97,-85
17028,348,0,2023-03-10T14:07:59.965536,6358145,1749,442,935,-1010,-632,-286,119,97,-85
17029,349,0,2023-03-10T14:07:59.969981,6358149,1749,442,935,-1010,-632,-286,119,97,-85
17030,350,0,2023-03-10T14:07:59.974483,6358154,1749,442,935,-1010,-632,-286,119,97,-85
17031,351,0,2023-03-10T14:07:59.978873,6358158,1732,433,930,-1013,-639,-262,119,97,-85
17032,352,0,2023-03-10T14:07:59.984144,6358163,1732,433,930,-1013,-639,-262,119,97,-85
17033,353,0,2023-03-10T14:07:59.988574,6358167,1732,433,930,-1013,-639,-262,119,97,-85
17034,354,0,2023-03-10T14:07:59.993099,6358172,1732,433,930,-1013,-639,-262,119,97,-85
17035,355,0,2023-03-10T14:07:59.997538,6358176,1732,429,931,-1019,-631,-271,119,97,-85
17036,356,0,2023-03-10T14:08:00.002404,6358181,1732,429,931,-1019,-631,-271,119,97,-85
17037,357,0,2023-03-10T14:08:00.007791,6358187,1732,429,931,-1019,-631,-271,119,97,-85
17038,358,0,2023-03-10T14:08:00.012240,6358192,1732,429,931,-1019,-631,-271,119,97,-85
17039,359,0,2023-03-10T14:08:00.016843,6358196,1732,428,932,-1016,-625,-270,122,98,-96
17040,360,0,2023-03-10T14:08:00.021628,6358201,1732,428,932,-1016,-625,-270,122,98,-96
17041,361,0,2023-03-10T14:08:00.026536,6358206,1732,428,932,-1016,-625,-270,122,98,-96
17042,362,0,2023-03-10T14:08:00.031113,6358210,1732,428,932,-1016,-625,-270,122,98,-96
17043,363,0,2023-03-10T14:08:00.035516,6358214,1755,441,935,-981,-648,-264,122,98,-96
17044,364,0,2023-03-10T14:08:00.040524,6358219,1755,441,935,-981,-648,-264,122,98,-96
17045,365,0,2023-03-10T14:08:00.045379,6358224,1755,441,935,-981,-648,-264,122,98,-96
17046,366,0,2023-03-10T14:08:00.049728,6358228,1755,441,935,-981,-648,-264,122,98,-96
17047,367,0,2023-03-10T14:08:00.054226,6358233,1755,441,935,-981,-648,-264,122,98,-96
17048,368,0,2023-03-10T14:08:00.058548,6358238,1719,424,924,-966,-628,-224,122,98,-96
17049,369,0,2023-03-10T14:08:00.064154,6358243,1719,424,924,-966,-628,-224,122,98,-96
17050,370,0,2023-03-10T14:08:00.068647,6358248,1719,424,924,-966,-628,-224,122,98,-96
17051,371,0,2023-03-10T14:08:00.073022,6358252,1719,424,924,-966,-628,-224,122,98,-96
17052,372,0,2023-03-10T14:08:00.077488,6358256,1740,432,939,-1011,-604,-294,122,98,-96
17053,373,0,2023-03-10T14:08:00.082382,6358261,1740,432,939,-1011,-604,-294,122,98,-96
17054,374,0,2023-03-10T14:08:00.087880,6358266,1740,432,939,-1011,-604,-294,122,98,-96
17055,375,0,2023-03-10T14:08:00.092276,6358272,1740,432,939,-1011,-604,-294,122,98,-96
17056,376,0,2023-03-10T14:08:00.096665,6358276,1733,434,921,-1029,-638,-285,122,98,-96
17057,377,0,2023-03-10T14:08:00.101740,6358281,1733,434,921,-1029,-638,-285,122,98,-96
17058,378,0,2023-03-10T14:08:00.106587,6358286,1733,434,921,-1029,-638,-285,122,98,-96
17059,379,0,2023-03-10T14:08:00.111118,6358290,1733,434,921,-1029,-638,-285,122,98,-96
17060,380,0,2023-03-10T14:08:00.115526,6358294,1741,431,938,-1006,-625,-276,122,98,-96
17061,381,0,2023-03-10T14:08:00.120085,6358299,1741,431,938,-1006,-625,-276,122,98,-96
17062,382,0,2023-03-10T14:08:00.125262,6358304,1741,431,938,-1006,-625,-276,122,98,-96
17063,383,0,2023-03-10T14:08:00.129630,6358308,1741,431,938,-1006,-625,-276,122,98,-96
17064,384,0,2023-03-10T14:08:00.134182,6358312,1741,431,938,-1006,-625,-276,122,98,-96
17065,385,0,2023-03-10T14:08:00.138530,6358318,1748,438,929,-1027,-631,-293,114,106,-82
17066,386,0,2023-03-10T14:08:00.143789,6358323,1748,438,929,-1027,-631,-293,114,106,-82
17067,387,0,2023-03-10T14:08:00.148706,6358328,1748,438,929,-1027,-631,-293,114,106,-82
17068,388,0,2023-03-10T14:08:00.153051,6358332,1748,438,929,-1027,-631,-293,114,106,-82
17069,389,0,2023-03-10T14:08:00.157567,6358336,1720,426,928,-999,-630,-237,114,106,-82
17070,390,0,2023-03-10T14:08:00.162836,6358342,1720,426,928,-999,-630,-237,114,106,-82
17071,391,0,2023-03-10T14:08:00.168135,6358347,1720,426,928,-999,-630,-237,114,106,-82
17072,392,0,2023-03-10T14:08:00.172434,6358351,1720,426,928,-999,-630,-237,114,106,-82
17073,393,0,2023-03-10T14:08:00.176959,6358355,1740,432,939,-992,-612,-270,114,106,-82
17074,394,0,2023-03-10T14:08:00.182063,6358361,1740,432,939,-992,-612,-270,114,106,-82
17075,395,0,2023-03-10T14:08:00.186559,6358366,1740,432,939,-992,-612,-270,114,106,-82
17076,396,0,2023-03-10T14:08:00.191678,6358371,1740,432,939,-992,-612,-270,114,106,-82
17077,397,0,2023-03-10T14:08:00.196308,6358375,1748,434,925,-1023,-667,-288,114,106,-82
17078,398,0,2023-03-10T14:08:00.201404,6358380,1748,434,925,-1023,-667,-288,114,106,-82
17079,399,0,2023-03-10T14:08:00.206045,6358385,1748,434,925,-1023,-667,-288,114,106,-82
17080,400,0,2023-03-10T14:08:00.210618,6358389,1748,434,925,-1023,-667,-288,114,106,-82
17081,401,0,2023-03-10T14:08:00.215106,6358394,1748,434,925,-1023,-667,-288,114,106,-82
17082,402,0,2023-03-10T14:08:00.219527,6358398,1740,433,922,-998,-626,-260,114,106,-82
17083,403,0,2023-03-10T14:08:00.225173,6358405,1740,433,922,-998,-626,-260,114,106,-82
17084,404,0,2023-03-10T14:08:00.229578,6358409,1740,433,922,-998,-626,-260,114,106,-82
17085,405,0,2023-03-10T14:08:00.234239,6358413,1740,433,922,-998,-626,-260,114,106,-82
17086,406,0,2023-03-10T14:08:00.238759,6358418,1741,427,928,-999,-611,-278,114,106,-82
17087,407,0,2023-03-10T14:08:00.244234,6358423,1741,427,928,-999,-611,-278,114,106,-82
17088,408,0,2023-03-10T14:08:00.248995,6358428,1741,427,928,-999,-611,-278,114,106,-82
17089,409,0,2023-03-10T14:08:00.253379,6358432,1741,427,928,-999,-611,-278,114,106,-82
17090,410,0,2023-03-10T14:08:00.257887,6358437,1735,439,929,-1011,-621,-284,114,106,-82
17091,411,0,2023-03-10T14:08:00.262925,6358441,1735,439,929,-1011,-621,-284,114,106,-82
17092,412,0,2023-03-10T14:08:00.268185,6358447,1735,439,929,-1011,-621,-284,114,106,-82
17093,413,0,2023-03-10T14:08:00.272638,6358452,1735,439,929,-1011,-621,-284,114,106,-82
17094,414,0,2023-03-10T14:08:00.277182,6358456,1738,428,942,-986,-635,-258,121,95,-85
17095,415,0,2023-03-10T14:08:00.282126,6358461,1738,428,942,-986,-635,-258,121,95,-85
17096,416,0,2023-03-10T14:08:00.287155,6358466,1738,428,942,-986,-635,-258,121,95,-85
17097,417,0,2023-03-10T14:08:00.291824,6358470,1738,428,942,-986,-635,-258,121,95,-85
17098,418,0,2023-03-10T14:08:00.297189,6358476,1742,436,937,-1010,-625,-286,121,95,-85
17099,419,0,2023-03-10T14:08:00.302312,6358481,1742,436,937,-1010,-625,-286,121,95,-85
17100,420,0,2023-03-10T14:08:00.307434,6358487,1742,436,937,-1010,-625,-286,121,95,-85
17101,421,0,2023-03-10T14:08:00.312037,6358491,1742,436,937,-1010,-625,-286,121,95,-85
17102,422,0,2023-03-10T14:08:00.316412,6358496,1728,419,921,-1021,-631,-265,121,95,-85
17103,423,0,2023-03-10T14:08:00.321621,6358501,1728,419,921,-1021,-631,-265,121,95,-85
17104,424,0,2023-03-10T14:08:00.326805,6358506,1728,419,921,-1021,-631,-265,121,95,-85
17105,425,0,2023-03-10T14:08:00.331320,6358510,1728,419,921,-1021,-631,-265,121,95,-85
17106,426,0,2023-03-10T14:08:00.335683,6358514,1728,419,921,-1021,-631,-265,121,95,-85
17107,427,0,2023-03-10T14:08:00.340084,6358519,1728,419,921,-1021,-631,-265,121,95,-85
17108,428,0,2023-03-10T14:08:00.345160,6358524,1728,419,921,-1021,-631,-265,121,95,-85
17109,429,0,2023-03-10T14:08:00.350142,6358530,1728,419,921,-1021,-631,-265,121,95,-85
17110,430,0,2023-03-10T14:08:00.354813,6358534,1728,419,921,-1021,-631,-265,121,95,-85
17111,431,0,2023-03-10T14:08:00.359721,6358539,1742,428,921,-1022,-610,-273,121,95,-85
17112,432,0,2023-03-10T14:08:00.365240,6358544,1742,428,921,-1022,-610,-273,121,95,-85
17113,433,0,2023-03-10T14:08:00.370069,6358549,1742,428,921,-1022,-610,-273,121,95,-85
17114,434,0,2023-03-10T14:08:00.375289,6358554,1742,428,921,-1022,-610,-273,121,95,-85
17115,435,0,2023-03-10T14:08:00.379809,6358558,1732,435,919,-1000,-641,-282,121,95,-85
17116,436,0,2023-03-10T14:08:00.385507,6358564,1732,435,919,-1000,-641,-282,121,95,-85
17117,437,0,2023-03-10T14:08:00.390171,6358568,1732,435,919,-1000,-641,-282,121,95,-85
17118,438,0,2023-03-10T14:08:00.395084,6358574,1732,435,919,-1000,-641,-282,121,95,-85
17119,439,0,2023-03-10T14:08:00.399861,6358579,1742,434,930,-1010,-612,-258,113,103,-93
17120,440,0,2023-03-10T14:08:00.405044,6358584,1742,434,930,-1010,-612,-258,113,103,-93
17121,441,0,2023-03-10T14:08:00.409448,6358589,1742,434,930,-1010,-612,-258,113,103,-93
17122,442,0,2023-03-10T14:08:00.413907,6358593,1742,434,930,-1010,-612,-258,113,103,-93
17123,443,0,2023-03-10T14:08:00.418619,6358597,1720,421,937,-985,-642,-249,113,103,-93
17124,444,0,2023-03-10T14:08:00.423884,6358603,1720,421,937,-985,-642,-249,113,103,-93
17125,445,0,2023-03-10T14:08:00.428264,6358607,1720,421,937,-985,-642,-249,113,103,-93
17126,446,0,2023-03-10T14:08:00.432975,6358611,1720,421,937,-985,-642,-249,113,103,-93
17127,447,0,2023-03-10T14:08:00.437536,6358617,1749,431,934,-1036,-615,-288,113,103,-93
17128,448,0,2023-03-10T14:08:00.442500,6358622,1749,431,934,-1036,-615,-288,113,103,-93
17129,449,0,2023-03-10T14:08:00.447078,6358626,1749,431,934,-1036,-615,-288,113,103,-93
17130,450,0,2023-03-10T14:08:00.451319,6358630,1749,431,934,-1036,-615,-288,113,103,-93
17131,451,0,2023-03-10T14:08:00.455917,6358635,1743,424,917,-1009,-677,-266,113,103,-93
17132,452,0,2023-03-10T14:08:00.460322,6358639,1743,424,917,-1009,-677,-266,113,103,-93
17133,453,0,2023-03-10T14:08:00.464810,6358643,1743,424,917,-1009,-677,-266,113,103,-93
17134,454,0,2023-03-10T14:08:00.469251,6358648,1743,424,917,-1009,-677,-266,113,103,-93
17135,455,0,2023-03-10T14:08:00.473819,6358652,1743,424,917,-1009,-677,-266,113,103,-93
17136,456,0,2023-03-10T14:08:00.478441,6358658,1747,435,923,-1013,-618,-282,113,103,-93
17137,457,0,2023-03-10T14:08:00.483355,6358663,1747,435,923,-1013,-618,-282,113,103,-93
17138,458,0,2023-03-10T14:08:00.488508,6358668,1747,435,923,-1013,-618,-282,113,103,-93
17139,459,0,2023-03-10T14:08:00.493103,6358672,1747,435,923,-1013,-618,-282,113,103,-93
17140,460,0,2023-03-10T14:08:00.497423,6358676,1728,425,926,-999,-614,-255,113,103,-93
17141,461,0,2023-03-10T14:08:00.502298,6358681,1728,425,926,-999,-614,-255,113,103,-93
17142,462,0,2023-03-10T14:08:00.507167,6358686,1728,425,926,-999,-614,-255,113,103,-93
17143,463,0,2023-03-10T14:08:00.511940,6358690,1728,425,926,-999,-614,-255,113,103,-93
17144,464,0,2023-03-10T14:08:00.516479,6358695,1755,441,940,-994,-638,-295,113,103,-93
17145,465,0,2023-03-10T14:08:00.521429,6358701,1755,441,940,-994,-638,-295,113,103,-93
17146,466,0,2023-03-10T14:08:00.526209,6358705,1755,441,940,-994,-638,-295,113,103,-93
17147,467,0,2023-03-10T14:08:00.531540,6358711,1755,441,940,-994,-638,-295,113,103,-93
17148,468,0,2023-03-10T14:08:00.536035,6358715,1730,422,927,-1021,-624,-252,117,101,-87
17149,469,0,2023-03-10T14:08:00.540974,6358720,1730,422,927,-1021,-624,-252,117,101,-87
17150,470,0,2023-03-10T14:08:00.546167,6358725,1730,422,927,-1021,-624,-252,117,101,-87
17151,471,0,2023-03-10T14:08:00.551167,6358730,1730,422,927,-1021,-624,-252,117,101,-87
17152,472,0,2023-03-10T14:08:00.555817,6358734,1754,438,933,-994,-623,-290,117,101,-87
17153,473,0,2023-03-10T14:08:00.561427,6358739,1754,438,933,-994,-623,-290,117,101,-87
17154,474,0,2023-03-10T14:08:00.566936,6358746,1754,438,933,-994,-623,-290,117,101,-87
17155,475,0,2023-03-10T14:08:00.572395,6358751,1754,438,933,-994,-623,-290,117,101,-87
17156,476,0,2023-03-10T14:08:00.577136,6358756,1725,422,926,-980,-636,-225,117,101,-87
17157,477,0,2023-03-10T14:08:00.582322,6358761,1725,422,926,-980,-636,-225,117,101,-87
17158,478,0,2023-03-10T14:08:00.587681,6358766,1725,422,926,-980,-636,-225,117,101,-87
17159,479,0,2023-03-10T14:08:00.592336,6358771,1725,422,926,-980,-636,-225,117,101,-87
17160,480,0,2023-03-10T14:08:00.596844,6358775,1747,435,936,-969,-635,-278,117,101,-87
17161,481,0,2023-03-10T14:08:00.602031,6358780,1747,435,936,-969,-635,-278,117,101,-87
17162,482,0,2023-03-10T14:08:00.607411,6358787,1747,435,936,-969,-635,-278,117,101,-87
17163,483,0,2023-03-10T14:08:00.612197,6358791,1747,435,936,-969,-635,-278,117,101,-87
17164,484,0,2023-03-10T14:08:00.616888,6358796,1756,432,912,-1025,-651,-285,117,101,-87
17165,485,0,2023-03-10T14:08:00.622096,6358801,1756,432,912,-1025,-651,-285,117,101,-87
17166,486,0,2023-03-10T14:08:00.627298,6358806,1756,432,912,-1025,-651,-285,117,101,-87
17167,487,0,2023-03-10T14:08:00.632106,6358811,1756,432,912,-1025,-651,-285,117,101,-87
17168,488,0,2023-03-10T14:08:00.636871,6358815,1727,427,916,-992,-629,-256,117,101,-87
17169,489,0,2023-03-10T14:08:00.642113,6358821,1727,427,916,-992,-629,-256,117,101,-87
17170,490,0,2023-03-10T14:08:00.647385,6358827,1727,427,916,-992,-629,-256,117,101,-87
17171,491,0,2023-03-10T14:08:00.652283,6358832,1727,427,916,-992,-629,-256,117,101,-87
17172,492,0,2023-03-10T14:08:00.657045,6358836,1736,426,930,-1004,-633,-287,116,96,-100
17173,493,0,2023-03-10T14:08:00.662317,6358841,1736,426,930,-1004,-633,-287,116,96,-100
17174,494,0,2023-03-10T14:08:00.667314,6358846,1736,426,930,-1004,-633,-287,116,96,-100
17175,495,0,2023-03-10T14:08:00.672148,6358851,1736,426,930,-1004,-633,-287,116,96,-100
17176,496,0,2023-03-10T14:08:00.676761,6358856,1756,437,933,-1013,-626,-274,116,96,-100
17177,497,0,2023-03-10T14:08:00.681959,6358860,1756,437,933,-1013,-626,-274,116,96,-100
17178,498,0,2023-03-10T14:08:00.687211,6358866,1756,437,933,-1013,-626,-274,116,96,-100
17179,499,0,2023-03-10T14:08:00.691720,6358871,1756,437,933,-1013,-626,-274,116,96,-100
17180,500,0,2023-03-10T14:08:00.696459,6358876,1740,431,925,-976,-634,-248,116,96,-100
17181,501,0,2023-03-10T14:08:00.701661,6358881,1740,431,925,-976,-634,-248,116,96,-100
17182,502,0,2023-03-10T14:08:00.706463,6358885,1740,431,925,-976,-634,-248,116,96,-100
17183,503,0,2023-03-10T14:08:00.711959,6358891,1740,431,925,-976,-634,-248,116,96,-100
17184,504,0,2023-03-10T14:08:00.716547,6358895,1735,424,922,-1017,-636,-276,116,96,-100
17185,505,0,2023-03-10T14:08:00.721777,6358900,1735,424,922,-1017,-636,-276,116,96,-100
17186,506,0,2023-03-10T14:08:00.726566,6358905,1735,424,922,-1017,-636,-276,116,96,-100
17187,507,0,2023-03-10T14:08:00.731298,6358910,1735,424,922,-1017,-636,-276,116,96,-100
17188,508,0,2023-03-10T14:08:00.736015,6358915,1760,432,920,-1017,-629,-295,116,96,-100
17189,509,0,2023-03-10T14:08:00.741390,6358920,1760,432,920,-1017,-629,-295,116,96,-100
17190,510,0,2023-03-10T14:08:00.746943,6358926,1760,432,920,-1017,-629,-295,116,96,-100
17191,511,0,2023-03-10T14:08:00.751692,6358931,1760,432,920,-1017,-629,-295,116,96,-100
17192,512,0,2023-03-10T14:08:00.756488,6358935,1727,428,912,-991,-639,-254,116,96,-100
17193,513,0,2023-03-10T14:08:00.761629,6358940,1727,428,912,-991,-639,-254,116,96,-100
17194,514,0,2023-03-10T14:08:00.766672,6358945,1727,428,912,-991,-639,-254,116,96,-100
17195,515,0,2023-03-10T14:08:00.771035,6358950,1727,428,912,-991,-639,-254,116,96,-100
17196,516,0,2023-03-10T14:08:00.775665,6358955,1727,428,912,-991,-639,-254,116,96,-100
17197,517,0,2023-03-10T14:08:00.780373,6358960,1766,443,922,-1011,-618,-297,118,100,-96
17198,518,0,2023-03-10T14:08:00.786117,6358965,1766,443,922,-1011,-618,-297,118,100,-96
17199,519,0,2023-03-10T14:08:00.790568,6358970,1766,443,922,-1011,-618,-297,118,100,-96
17200,520,0,2023-03-10T14:08:00.794815,6358974,1766,443,922,-1011,-618,-297,118,100,-96
17201,521,0,2023-03-10T14:08:00.799420,6358978,1730,429,926,-994,-620,-241,118,100,-96
17202,522,0,2023-03-10T14:08:00.804689,6358983,1730,429,926,-994,-620,-241,118,100,-96
17203,523,0,2023-03-10T14:08:00.809552,6358988,1730,429,926,-994,-620,-241,118,100,-96
17204,524,0,2023-03-10T14:08:00.814324,6358993,1730,429,926,-994,-620,-241,118,100,-96
17205,525,0,2023-03-10T14:08:00.819095,6358998,1730,429,926,-994,-620,-241,118,100,-96
17206,526,0,2023-03-10T14:08:00.823999,6359003,1730,429,926,-994,-620,-241,118,100,-96
17207,527,0,2023-03-10T14:08:00.828306,6359008,1730,429,926,-994,-620,-241,118,100,-96
17208,528,0,2023-03-10T14:08:00.832864,6359012,1730,429,926,-994,-620,-241,118,100,-96
17209,529,0,2023-03-10T14:08:00.838127,6359017,1756,432,926,-1022,-665,-297,118,100,-96
17210,530,0,2023-03-10T14:08:00.843056,6359022,1756,432,926,-1022,-665,-297,118,100,-96
17211,531,0,2023-03-10T14:08:00.848132,6359027,1756,432,926,-1022,-665,-297,118,100,-96
17212,532,0,2023-03-10T14:08:00.853283,6359032,1756,432,926,-1022,-665,-297,118,100,-96
17213,533,0,2023-03-10T14:08:00.858516,6359037,1744,427,914,-1009,-632,-258,118,100,-96
17214,534,0,2023-03-10T14:08:00.863751,6359043,1744,427,914,-1009,-632,-258,118,100,-96
17215,535,0,2023-03-10T14:08:00.868828,6359048,1744,427,914,-1009,-632,-258,118,100,-96
17216,536,0,2023-03-10T14:08:00.873571,6359052,1744,427,914,-1009,-632,-258,118,100,-96
17217,537,0,2023-03-10T14:08:00.878116,6359057,1752,423,927,-989,-620,-275,118,100,-96
17218,538,0,2023-03-10T14:08:00.883347,6359062,1752,423,927,-989,-620,-275,118,100,-96
17219,539,0,2023-03-10T14:08:00.888421,6359067,1752,423,927,-989,-620,-275,118,100,-96
17220,540,0,2023-03-10T14:08:00.893754,6359072,1752,423,927,-989,-620,-275,118,100,-96
17221,541,0,2023-03-10T14:08:00.898366,6359077,1741,437,913,-1013,-620,-279,118,100,-96
17222,542,0,2023-03-10T14:08:00.903513,6359083,1741,437,913,-1013,-620,-279,118,100,-96
17223,543,0,2023-03-10T14:08:00.908962,6359088,1741,437,913,-1013,-620,-279,118,100,-96
17224,544,0,2023-03-10T14:08:00.913400,6359093,1741,437,913,-1013,-620,-279,118,100,-96
17225,545,0,2023-03-10T14:08:00.917784,6359097,1745,430,932,-982,-625,-255,111,103,-87
17226,546,0,2023-03-10T14:08:00.923262,6359102,1745,430,932,-982,-625,-255,111,103,-87
17227,547,0,2023-03-10T14:08:00.928685,6359107,1745,430,932,-982,-625,-255,111,103,-87
17228,548,0,2023-03-10T14:08:00.933284,6359112,1745,430,932,-982,-625,-255,111,103,-87
17229,549,0,2023-03-10T14:08:00.938055,6359117,1750,437,931,-1006,-633,-286,111,103,-87
17230,550,0,2023-03-10T14:08:00.943435,6359122,1750,437,931,-1006,-633,-286,111,103,-87
17231,551,0,2023-03-10T14:08:00.948575,6359128,1750,437,931,-1006,-633,-286,111,103,-87
17232,552,0,2023-03-10T14:08:00.954145,6359133,1750,437,931,-1006,-633,-286,111,103,-87
17233,553,0,2023-03-10T14:08:00.959253,6359138,1730,416,917,-1038,-629,-270,111,103,-87
17234,554,0,2023-03-10T14:08:00.964887,6359144,1730,416,917,-1038,-629,-270,111,103,-87
17235,555,0,2023-03-10T14:08:00.969760,6359148,1730,416,917,-1038,-629,-270,111,103,-87
17236,556,0,2023-03-10T14:08:00.974446,6359153,1730,416,917,-1038,-629,-270,111,103,-87
17237,557,0,2023-03-10T14:08:00.979029,6359158,1746,427,915,-992,-654,-278,111,103,-87
17238,558,0,2023-03-10T14:08:00.984480,6359163,1746,427,915,-992,-654,-278,111,103,-87
17239,559,0,2023-03-10T14:08:00.989229,6359168,1746,427,915,-992,-654,-278,111,103,-87
17240,560,0,2023-03-10T14:08:00.993981,6359173,1746,427,915,-992,-654,-278,111,103,-87
17241,561,0,2023-03-10T14:08:00.998950,6359178,1750,427,916,-1015,-603,-282,111,103,-87
17242,562,0,2023-03-10T14:08:01.005465,6359184,1750,427,916,-1015,-603,-282,111,103,-87
17243,563,0,2023-03-10T14:08:01.010468,6359189,1750,427,916,-1015,-603,-282,111,103,-87
17244,564,0,2023-03-10T14:08:01.015825,6359194,1750,427,916,-1015,-603,-282,111,103,-87
17245,565,0,2023-03-10T14:08:01.020507,6359199,1746,435,920,-989,-630,-272,111,103,-87
17246,566,0,2023-03-10T14:08:01.026341,6359205,1746,435,920,-989,-630,-272,111,103,-87
17247,567,0,2023-03-10T14:08:01.031248,6359209,1746,435,920,-989,-630,-272,111,103,-87
17248,568,0,2023-03-10T14:08:01.036077,6359215,1746,435,920,-989,-630,-272,111,103,-87
17249,569,0,2023-03-10T14:08:01.040824,6359220,1739,422,929,-984,-606,-246,115,101,-89
17250,570,0,2023-03-10T14:08:01.046756,6359226,1739,422,929,-984,-606,-246,115,101,-89
17251,571,0,2023-03-10T14:08:01.052102,6359231,1739,422,929,-984,-606,-246,115,101,-89
17252,572,0,2023-03-10T14:08:01.056778,6359236,1741,430,922,-1012,-658,-287,115,101,-89
17253,573,0,2023-03-10T14:08:01.062095,6359241,1741,430,922,-1012,-658,-287,115,101,-89
17254,574,0,2023-03-10T14:08:01.066970,6359246,1741,430,922,-1012,-658,-287,115,101,-89
17255,575,0,2023-03-10T14:08:01.071437,6359250,1741,430,922,-1012,-658,-287,115,101,-89
17256,576,0,2023-03-10T14:08:01.075782,6359255,1741,430,922,-1012,-658,-287,115,101,-89
17257,577,0,2023-03-10T14:08:01.080406,6359260,1756,425,921,-1023,-623,-266,115,101,-89
17258,578,0,2023-03-10T14:08:01.086170,6359265,1756,425,921,-1023,-623,-266,115,101,-89
17259,579,0,2023-03-10T14:08:01.090716,6359270,1756,425,921,-1023,-623,-266,115,101,-89
17260,580,0,2023-03-10T14:08:01.095296,6359274,1756,425,921,-1023,-623,-266,115,101,-89
17261,581,0,2023-03-10T14:08:01.099876,6359279,1746,429,912,-998,-637,-286,115,101,-89
17262,582,0,2023-03-10T14:08:01.105507,6359284,1746,429,912,-998,-637,-286,115,101,-89
17263,583,0,2023-03-10T14:08:01.110125,6359289,1746,429,912,-998,-637,-286,115,101,-89
17264,584,0,2023-03-10T14:08:01.114832,6359293,1746,429,912,-998,-637,-286,115,101,-89
17265,585,0,2023-03-10T14:08:01.119612,6359299,1746,425,913,-994,-621,-252,115,101,-89
17266,586,0,2023-03-10T14:08:01.124617,6359304,1746,425,913,-994,-621,-252,115,101,-89
17267,587,0,2023-03-10T14:08:01.129202,6359308,1746,425,913,-994,-621,-252,115,101,-89
17268,588,0,2023-03-10T14:08:01.133650,6359313,1746,425,913,-994,-621,-252,115,101,-89
17269,589,0,2023-03-10T14:08:01.138265,6359317,1734,426,928,-976,-626,-257,115,101,-89
17270,590,0,2023-03-10T14:08:01.143491,6359322,1734,426,928,-976,-626,-257,115,101,-89
17271,591,0,2023-03-10T14:08:01.148612,6359327,1734,426,928,-976,-626,-257,115,101,-89
17272,592,0,2023-03-10T14:08:01.153857,6359332,1734,426,928,-976,-626,-257,115,101,-89
17273,593,0,2023-03-10T14:08:01.158273,6359337,1769,434,918,-1017,-640,-309,115,101,-89
17274,594,0,2023-03-10T14:08:01.163254,6359343,1769,434,918,-1017,-640,-309,115,101,-89
17275,595,0,2023-03-10T14:08:01.168408,6359348,1769,434,918,-1017,-640,-309,115,101,-89
17276,596,0,2023-03-10T14:08:01.173224,6359352,1769,434,918,-1017,-640,-309,115,101,-89
17277,597,0,2023-03-10T14:08:01.177835,6359357,1742,426,918,-1012,-633,-263,112,98,-80
17278,598,0,2023-03-10T14:08:01.183127,6359362,1742,426,918,-1012,-633,-263,112,98,-80
17279,599,0,2023-03-10T14:08:01.189136,6359368,1742,426,918,-1012,-633,-263,112,98,-80
17280,600,0,2023-03-10T14:08:01.194075,6359372,1742,426,918,-1012,-633,-263,112,98,-80
17281,601,0,2023-03-10T14:08:01.198782,6359377,1753,430,918,-1008,-612,-280,112,98,-80
17282,602,0,2023-03-10T14:08:01.203816,6359383,1753,430,918,-1008,-612,-280,112,98,-80
17283,603,0,2023-03-10T14:08:01.208780,6359388,1753,430,918,-1008,-612,-280,112,98,-80
17284,604,0,2023-03-10T14:08:01.213465,6359392,1753,430,918,-1008,-612,-280,112,98,-80
17285,605,0,2023-03-10T14:08:01.218189,6359397,1739,419,922,-995,-636,-250,112,98,-80
17286,606,0,2023-03-10T14:08:01.223574,6359403,1739,419,922,-995,-636,-250,112,98,-80
17287,607,0,2023-03-10T14:08:01.229160,6359407,1739,419,922,-995,-636,-250,112,98,-80
17288,608,0,2023-03-10T14:08:01.234163,6359413,1739,419,922,-995,-636,-250,112,98,-80
17289,609,0,2023-03-10T14:08:01.238803,6359417,1761,438,928,-995,-630,-289,112,98,-80
17290,610,0,2023-03-10T14:08:01.243984,6359422,1761,438,928,-995,-630,-289,112,98,-80
17291,611,0,2023-03-10T14:08:01.249493,6359429,1761,438,928,-995,-630,-289,112,98,-80
17292,612,0,2023-03-10T14:08:01.254633,6359434,1761,438,928,-995,-630,-289,112,98,-80
17293,613,0,2023-03-10T14:08:01.259809,6359438,1747,425,913,-992,-637,-259,112,98,-80
17294,614,0,2023-03-10T14:08:01.264648,6359444,1747,425,913,-992,-637,-259,112,98,-80
17295,615,0,2023-03-10T14:08:01.269115,6359448,1747,425,913,-992,-637,-259,112,98,-80
17296,616,0,2023-03-10T14:08:01.274164,6359453,1747,425,913,-992,-637,-259,112,98,-80
17297,617,0,2023-03-10T14:08:01.278850,6359457,1739,428,921,-1005,-615,-284,112,98,-80
17298,618,0,2023-03-10T14:08:01.284356,6359462,1739,428,921,-1005,-615,-284,112,98,-80
17299,619,0,2023-03-10T14:08:01.289512,6359469,1739,428,921,-1005,-615,-284,112,98,-80
17300,620,0,2023-03-10T14:08:01.294343,6359473,1739,428,921,-1005,-615,-284,112,98,-80
17301,621,0,2023-03-10T14:08:01.299291,6359478,1748,427,923,-998,-624,-260,123,99,-91
17302,622,0,2023-03-10T14:08:01.303925,6359483,1748,427,923,-998,-624,-260,123,99,-91
17303,623,0,2023-03-10T14:08:01.308336,6359487,1748,427,923,-998,-624,-260,123,99,-91
17304,624,0,2023-03-10T14:08:01.312705,6359492,1748,427,923,-998,-624,-260,123,99,-91
17305,625,0,2023-03-10T14:08:01.317344,6359496,1765,435,926,-994,-635,-280,123,99,-91
17306,626,0,2023-03-10T14:08:01.322411,6359501,1765,435,926,-994,-635,-280,123,99,-91
17307,627,0,2023-03-10T14:08:01.327263,6359506,1765,435,926,-994,-635,-280,123,99,-91
17308,628,0,2023-03-10T14:08:01.331724,6359511,1765,435,926,-994,-635,-280,123,99,-91
17309,629,0,2023-03-10T14:08:01.336006,6359515,1765,435,926,-994,-635,-280,123,99,-91
17310,630,0,2023-03-10T14:08:01.340239,6359519,1744,424,909,-1019,-633,-261,123,99,-91
17311,631,0,2023-03-10T14:08:01.345491,6359525,1744,424,909,-1019,-633,-261,123,99,-91
17312,632,0,2023-03-10T14:08:01.349993,6359529,1744,424,909,-1019,-633,-261,123,99,-91
17313,633,0,2023-03-10T14:08:01.354429,6359533,1744,424,909,-1019,-633,-261,123,99,-91
17314,634,0,2023-03-10T14:08:01.358667,6359538,1759,430,921,-986,-614,-270,123,99,-91
17315,635,0,2023-03-10T14:08:01.363862,6359543,1759,430,921,-986,-614,-270,123,99,-91
17316,636,0,2023-03-10T14:08:01.368160,6359547,1759,430,921,-986,-614,-270,123,99,-91
17317,637,0,2023-03-10T14:08:01.372983,6359552,1759,430,921,-986,-614,-270,123,99,-91
17318,638,0,2023-03-10T14:08:01.377346,6359557,1731,421,918,-992,-639,-228,123,99,-91
17319,639,0,2023-03-10T14:08:01.382155,6359561,1731,421,918,-992,-639,-228,123,99,-91
17320,640,0,2023-03-10T14:08:01.387339,6359566,1731,421,918,-992,-639,-228,123,99,-91
17321,641,0,2023-03-10T14:08:01.391903,6359571,1731,421,918,-992,-639,-228,123,99,-91
17322,642,0,2023-03-10T14:08:01.396752,6359576,1731,421,918,-992,-639,-228,123,99,-91
17323,643,0,2023-03-10T14:08:01.401455,6359580,1762,437,917,-1013,-629,-299,123,99,-91
17324,644,0,2023-03-10T14:08:01.406709,6359585,1762,437,917,-1013,-629,-299,123,99,-91
17325,645,0,2023-03-10T14:08:01.411080,6359590,1762,437,917,-1013,-629,-299,123,99,-91
17326,646,0,2023-03-10T14:08:01.415562,6359595,1762,437,917,-1013,-629,-299,123,99,-91
17327,647,0,2023-03-10T14:08:01.420113,6359599,1759,429,903,-1016,-654,-268,123,99,-91
17328,648,0,2023-03-10T14:08:01.425588,6359605,1759,429,903,-1016,-654,-268,123,99,-91
17329,649,0,2023-03-10T14:08:01.430183,6359609,1759,429,903,-1016,-654,-268,123,99,-91
17330,650,0,2023-03-10T14:08:01.434765,6359614,1759,429,903,-1016,-654,-268,123,99,-91
17331,651,0,2023-03-10T14:08:01.439394,6359618,1733,428,909,-1007,-630,-273,122,98,-86
17332,652,0,2023-03-10T14:08:01.444713,6359624,1733,428,909,-1007,-630,-273,122,98,-86
17333,653,0,2023-03-10T14:08:01.449299,6359628,1733,428,909,-1007,-630,-273,122,98,-86
17334,654,0,2023-03-10T14:08:01.454147,6359633,1733,428,909,-1007,-630,-273,122,98,-86
17335,655,0,2023-03-10T14:08:01.458520,6359638,1756,433,922,-992,-628,-254,122,98,-86
17336,656,0,2023-03-10T14:08:01.463419,6359643,1756,433,922,-992,-628,-254,122,98,-86
17337,657,0,2023-03-10T14:08:01.468546,6359648,1756,433,922,-992,-628,-254,122,98,-86
17338,658,0,2023-03-10T14:08:01.473151,6359652,1756,433,922,-992,-628,-254,122,98,-86
17339,659,0,2023-03-10T14:08:01.477604,6359657,1752,431,933,-984,-652,-262,122,98,-86
17340,660,0,2023-03-10T14:08:01.482614,6359662,1752,431,933,-984,-652,-262,122,98,-86
17341,661,0,2023-03-10T14:08:01.487946,6359667,1752,431,933,-984,-652,-262,122,98,-86
17342,662,0,2023-03-10T14:08:01.492290,6359671,1752,431,933,-984,-652,-262,122,98,-86
17343,663,0,2023-03-10T14:08:01.496961,6359675,1752,431,933,-984,-652,-262,122,98,-86
17344,664,0,2023-03-10T14:08:01.501314,6359681,1745,428,908,-1029,-619,-286,122,98,-86
17345,665,0,2023-03-10T14:08:01.506786,6359686,1745,428,908,-1029,-619,-286,122,98,-86
17346,666,0,2023-03-10T14:08:01.511123,6359690,1745,428,908,-1029,-619,-286,122,98,-86
17347,667,0,2023-03-10T14:08:01.515471,6359695,1745,428,908,-1029,-619,-286,122,98,-86
17348,668,0,2023-03-10T14:08:01.519791,6359699,1765,428,921,-1002,-657,-279,122,98,-86
17349,669,0,2023-03-10T14:08:01.525441,6359704,1765,428,921,-1002,-657,-279,122,98,-86
17350,670,0,2023-03-10T14:08:01.530251,6359709,1765,428,921,-1002,-657,-279,122,98,-86
17351,671,0,2023-03-10T14:08:01.534754,6359714,1765,428,921,-1002,-657,-279,122,98,-86
17352,672,0,2023-03-10T14:08:01.539400,6359718,1741,431,899,-999,-661,-277,122,98,-86
17353,673,0,2023-03-10T14:08:01.544862,6359724,1741,431,899,-999,-661,-277,122,98,-86
17354,674,0,2023-03-10T14:08:01.549249,6359729,1741,431,899,-999,-661,-277,122,98,-86
17355,675,0,2023-03-10T14:08:01.553875,6359733,1741,431,899,-999,-661,-277,122,98,-86
17356,676,0,2023-03-10T14:08:01.558399,6359738,1750,422,922,-967,-583,-235,118,100,-90
17357,677,0,2023-03-10T14:08:01.564192,6359743,1750,422,922,-967,-583,-235,118,100,-90
17358,678,0,2023-03-10T14:08:01.569083,6359748,1750,422,922,-967,-583,-235,118,100,-90
17359,679,0,2023-03-10T14:08:01.573792,6359752,1750,422,922,-967,-583,-235,118,100,-90
17360,680,0,2023-03-10T14:08:01.578127,6359757,1757,432,931,-984,-614,-281,118,100,-90
17361,681,0,2023-03-10T14:08:01.583020,6359762,1757,432,931,-984,-614,-281,118,100,-90
17362,682,0,2023-03-10T14:08:01.588048,6359768,1757,432,931,-984,-614,-281,118,100,-90
17363,683,0,2023-03-10T14:08:01.592467,6359772,1757,432,931,-984,-614,-281,118,100,-90
17364,684,0,2023-03-10T14:08:01.597166,6359776,1757,432,931,-984,-614,-281,118,100,-90
17365,685,0,2023-03-10T14:08:01.601997,6359781,1724,416,888,-1039,-700,-261,118,100,-90
17366,686,0,2023-03-10T14:08:01.607260,6359786,1724,416,888,-1039,-700,-261,118,100,-90
17367,687,0,2023-03-10T14:08:01.611724,6359791,1724,416,888,-1039,-700,-261,118,100,-90
17368,688,0,2023-03-10T14:08:01.616059,6359795,1724,416,888,-1039,-700,-261,118,100,-90
17369,689,0,2023-03-10T14:08:01.620550,6359799,1776,433,915,-994,-612,-285,118,100,-90
17370,690,0,2023-03-10T14:08:01.626041,6359805,1776,433,915,-994,-612,-285,118,100,-90
17371,691,0,2023-03-10T14:08:01.630662,6359810,1776,433,915,-994,-612,-285,118,100,-90
17372,692,0,2023-03-10T14:08:01.635142,6359815,1776,433,915,-994,-612,-285,118,100,-90
17373,693,0,2023-03-10T14:08:01.639700,6359819,1741,416,908,-1015,-586,-266,118,100,-90
17374,694,0,2023-03-10T14:08:01.645013,6359824,1741,416,908,-1015,-586,-266,118,100,-90
17375,695,0,2023-03-10T14:08:01.649257,6359828,1741,416,908,-1015,-586,-266,118,100,-90
17376,696,0,2023-03-10T14:08:01.653766,6359833,1741,416,908,-1015,-586,-266,118,100,-90
17377,697,0,2023-03-10T14:08:01.658160,6359837,1760,434,910,-996,-635,-283,118,100,-90
17378,698,0,2023-03-10T14:08:01.663361,6359842,1760,434,910,-996,-635,-283,118,100,-90
17379,699,0,2023-03-10T14:08:01.668192,6359847,1760,434,910,-996,-635,-283,118,100,-90
17380,700,0,2023-03-10T14:08:01.672333,6359852,1760,434,910,-996,-635,-283,118,100,-90
17381,701,0,2023-03-10T14:08:01.676825,6359856,1760,434,910,-996,-635,-283,118,100,-90
17382,702,0,2023-03-10T14:08:01.681162,6359861,1748,426,926,-975,-621,-236,121,89,-87
17383,703,0,2023-03-10T14:08:01.686186,6359865,1748,426,926,-975,-621,-236,121,89,-87
17384,704,0,2023-03-10T14:08:01.690895,6359870,1748,426,926,-975,-621,-236,121,89,-87
17385,705,0,2023-03-10T14:08:01.695610,6359874,1748,426,926,-975,-621,-236,121,89,-87
17386,706,0,2023-03-10T14:08:01.699840,6359879,1730,423,910,-1006,-626,-269,121,89,-87
17387,707,0,2023-03-10T14:08:01.705134,6359884,1730,423,910,-1006,-626,-269,121,89,-87
17388,708,0,2023-03-10T14:08:01.710353,6359889,1730,423,910,-1006,-626,-269,121,89,-87
17389,709,0,2023-03-10T14:08:01.714972,6359895,1730,423,910,-1006,-626,-269,121,89,-87
17390,710,0,2023-03-10T14:08:01.719745,6359899,1775,433,909,-1034,-636,-293,121,89,-87
17391,711,0,2023-03-10T14:08:01.724720,6359904,1775,433,909,-1034,-636,-293,121,89,-87
17392,712,0,2023-03-10T14:08:01.729452,6359908,1775,433,909,-1034,-636,-293,121,89,-87
17393,713,0,2023-03-10T14:08:01.734118,6359913,1775,433,909,-1034,-636,-293,121,89,-87
17394,714,0,2023-03-10T14:08:01.738560,6359918,1755,424,908,-993,-637,-257,121,89,-87
17395,715,0,2023-03-10T14:08:01.743379,6359922,1755,424,908,-993,-637,-257,121,89,-87
17396,716,0,2023-03-10T14:08:01.748233,6359927,1755,424,908,-993,-637,-257,121,89,-87
17397,717,0,2023-03-10T14:08:01.752477,6359931,1755,424,908,-993,-637,-257,121,89,-87
17398,718,0,2023-03-10T14:08:01.756825,6359936,1755,424,908,-993,-637,-257,121,89,-87
17399,719,0,2023-03-10T14:08:01.761390,6359941,1743,427,899,-1010,-632,-281,121,89,-87
17400,720,0,2023-03-10T14:08:01.766743,6359946,1743,427,899,-1010,-632,-281,121,89,-87
17401,721,0,2023-03-10T14:08:01.771108,6359950,1743,427,899,-1010,-632,-281,121,89,-87
17402,722,0,2023-03-10T14:08:01.775871,6359955,1743,427,899,-1010,-632,-281,121,89,-87
17403,723,0,2023-03-10T14:08:01.780262,6359959,1763,430,915,-998,-602,-265,121,89,-87
17404,724,0,2023-03-10T14:08:01.785580,6359964,1763,430,915,-998,-602,-265,121,89,-87
17405,725,0,2023-03-10T14:08:01.790564,6359969,1763,430,915,-998,-602,-265,121,89,-87
17406,726,0,2023-03-10T14:08:01.795228,6359974,1763,430,915,-998,-602,-265,121,89,-87
17407,727,0,2023-03-10T14:08:01.799959,6359979,1735,426,911,-974,-643,-249,121,89,-87
17408,728,0,2023-03-10T14:08:01.805314,6359985,1735,426,911,-974,-643,-249,121,89,-87
17409,729,0,2023-03-10T14:08:01.809763,6359989,1735,426,911,-974,-643,-249,121,89,-87
17410,730,0,2023-03-10T14:08:01.814270,6359993,1735,426,911,-974,-643,-249,121,89,-87
17411,731,0,2023-03-10T14:08:01.818641,6359998,1768,429,918,-1029,-629,-292,120,96,-82
17412,732,0,2023-03-10T14:08:01.823881,6360003,1768,429,918,-1029,-629,-292,120,96,-82
17413,733,0,2023-03-10T14:08:01.828366,6360007,1768,429,918,-1029,-629,-292,120,96,-82
17414,734,0,2023-03-10T14:08:01.832871,6360012,1768,429,918,-1029,-629,-292,120,96,-82
17415,735,0,2023-03-10T14:08:01.837723,6360016,1745,426,899,-1012,-634,-268,120,96,-82
17416,736,0,2023-03-10T14:08:01.842728,6360022,1745,426,899,-1012,-634,-268,120,96,-82
17417,737,0,2023-03-10T14:08:01.847942,6360027,1745,426,899,-1012,-634,-268,120,96,-82
17418,738,0,2023-03-10T14:08:01.852512,6360032,1745,426,899,-1012,-634,-268,120,96,-82
17419,739,0,2023-03-10T14:08:01.856987,6360036,1745,426,899,-1012,-634,-268,120,96,-82
17420,740,0,2023-03-10T14:08:01.861406,6360041,1749,423,919,-999,-624,-258,120,96,-82
17421,741,0,2023-03-10T14:08:01.866516,6360046,1749,423,919,-999,-624,-258,120,96,-82
17422,742,0,2023-03-10T14:08:01.871529,6360050,1749,423,919,-999,-624,-258,120,96,-82
17423,743,0,2023-03-10T14:08:01.876180,6360055,1749,423,919,-999,-624,-258,120,96,-82
17424,744,0,2023-03-10T14:08:01.880689,6360059,1773,441,910,-1006,-637,-295,120,96,-82
17425,745,0,2023-03-10T14:08:01.886253,6360066,1773,441,910,-1006,-637,-295,120,96,-82
17426,746,0,2023-03-10T14:08:01.890763,6360070,1773,441,910,-1006,-637,-295,120,96,-82
17427,747,0,2023-03-10T14:08:01.895138,6360074,1773,441,910,-1006,-637,-295,120,96,-82
17428,748,0,2023-03-10T14:08:01.899778,6360079,1749,426,912,-975,-624,-222,120,96,-82
17429,749,0,2023-03-10T14:08:01.905413,6360084,1749,426,912,-975,-624,-222,120,96,-82
17430,750,0,2023-03-10T14:08:01.910132,6360089,1749,426,912,-975,-624,-222,120,96,-82
17431,751,0,2023-03-10T14:08:01.914639,6360094,1749,426,912,-975,-624,-222,120,96,-82
17432,752,0,2023-03-10T14:08:01.919153,6360098,1744,429,914,-995,-630,-261,120,96,-82
17433,753,0,2023-03-10T14:08:01.924699,6360103,1744,429,914,-995,-630,-261,120,96,-82
17434,754,0,2023-03-10T14:08:01.929115,6360109,1744,429,914,-995,-630,-261,120,96,-82
17435,755,0,2023-03-10T14:08:01.933408,6360113,1744,429,914,-995,-630,-261,120,96,-82
17436,756,0,2023-03-10T14:08:01.937745,6360117,1755,425,913,-1030,-640,-284,114,100,-92
17437,757,0,2023-03-10T14:08:01.942254,6360121,1755,425,913,-1030,-640,-284,114,100,-92
17438,758,0,2023-03-10T14:08:01.947063,6360126,1755,425,913,-1030,-640,-284,114,100,-92
17439,759,0,2023-03-10T14:08:01.951469,6360131,1755,425,913,-1030,-640,-284,114,100,-92
17440,760,0,2023-03-10T14:08:01.955853,6360135,1755,425,913,-1030,-640,-284,114,100,-92
17441,761,0,2023-03-10T14:08:01.960482,6360139,1768,431,913,-990,-655,-267,114,100,-92
17442,762,0,2023-03-10T14:08:01.965973,6360144,1768,431,913,-990,-655,-267,114,100,-92
17443,763,0,2023-03-10T14:08:01.970438,6360150,1768,431,913,-990,-655,-267,114,100,-92
17444,764,0,2023-03-10T14:08:01.975113,6360154,1768,431,913,-990,-655,-267,114,100,-92
17445,765,0,2023-03-10T14:08:01.979907,6360159,1750,420,908,-991,-608,-260,114,100,-92
17446,766,0,2023-03-10T14:08:01.984978,6360164,1750,420,908,-991,-608,-260,114,100,-92
17447,767,0,2023-03-10T14:08:01.989414,6360169,1750,420,908,-991,-608,-260,114,100,-92
17448,768,0,2023-03-10T14:08:01.993732,6360173,1750,420,908,-991,-608,-260,114,100,-92
17449,769,0,2023-03-10T14:08:01.998115,6360177,1778,433,907,-991,-649,-281,114,100,-92
17450,770,0,2023-03-10T14:08:02.003101,6360182,1778,433,907,-991,-649,-281,114,100,-92
17451,771,0,2023-03-10T14:08:02.008200,6360187,1778,433,907,-991,-649,-281,114,100,-92
17452,772,0,2023-03-10T14:08:02.013494,6360193,1778,433,907,-991,-649,-281,114,100,-92
17453,773,0,2023-03-10T14:08:02.018227,6360198,1731,419,905,-966,-673,-231,114,100,-92
17454,774,0,2023-03-10T14:08:02.023039,6360202,1731,419,905,-966,-673,-231,114,100,-92
17455,775,0,2023-03-10T14:08:02.028119,6360207,1731,419,905,-966,-673,-231,114,100,-92
17456,776,0,2023-03-10T14:08:02.032779,6360212,1731,419,905,-966,-673,-231,114,100,-92
17457,777,0,2023-03-10T14:08:02.037231,6360216,1731,419,905,-966,-673,-231,114,100,-92
17458,778,0,2023-03-10T14:08:02.041855,6360221,1760,429,909,-1019,-592,-298,114,100,-92
17459,779,0,2023-03-10T14:08:02.046106,6360225,1760,429,909,-1019,-592,-298,114,100,-92
17460,780,0,2023-03-10T14:08:02.050428,6360229,1760,429,909,-1019,-592,-298,114,100,-92
17461,781,0,2023-03-10T14:08:02.055180,6360235,1760,429,909,-1019,-592,-298,114,100,-92
17462,782,0,2023-03-10T14:08:02.059744,6360239,1774,430,899,-1024,-615,-285,114,100,-92
17463,783,0,2023-03-10T14:08:02.065043,6360244,1774,430,899,-1024,-615,-285,114,100,-92
17464,784,0,2023-03-10T14:08:02.069547,6360249,1774,430,899,-1024,-615,-285,114,100,-92
17465,785,0,2023-03-10T14:08:02.073961,6360253,1774,430,899,-1024,-615,-285,114,100,-92
17466,786,0,2023-03-10T14:08:02.078444,6360257,1738,423,897,-1002,-633,-264,124,98,-96
17467,787,0,2023-03-10T14:08:02.083301,6360262,1738,423,897,-1002,-633,-264,124,98,-96
17468,788,0,2023-03-10T14:08:02.088092,6360267,1738,423,897,-1002,-633,-264,124,98,-96
17469,789,0,2023-03-10T14:08:02.092385,6360271,1738,423,897,-1002,-633,-264,124,98,-96
17470,790,0,2023-03-10T14:08:02.097023,6360276,1738,423,897,-1002,-633,-264,124,98,-96
17471,791,0,2023-03-10T14:08:02.101744,6360281,1774,431,915,-991,-609,-269,124,98,-96
17472,792,0,2023-03-10T14:08:02.106897,6360286,1774,431,915,-991,-609,-269,124,98,-96
17473,793,0,2023-03-10T14:08:02.111337,6360290,1774,431,915,-991,-609,-269,124,98,-96
17474,794,0,2023-03-10T14:08:02.115837,6360295,1774,431,915,-991,-609,-269,124,98,-96
17475,795,0,2023-03-10T14:08:02.120362,6360299,1737,419,903,-966,-654,-231,124,98,-96
17476,796,0,2023-03-10T14:08:02.125645,6360305,1737,419,903,-966,-654,-231,124,98,-96
17477,797,0,2023-03-10T14:08:02.130031,6360309,1737,419,903,-966,-654,-231,124,98,-96
17478,798,0,2023-03-10T14:08:02.134550,6360313,1737,419,903,-966,-654,-231,124,98,-96
17479,799,0,2023-03-10T14:08:02.139073,6360317,1778,434,901,-1014,-621,-297,124,98,-96
17480,800,0,2023-03-10T14:08:02.143427,6360323,1778,434,901,-1014,-621,-297,124,98,-96
17481,801,0,2023-03-10T14:08:02.148324,6360328,1778,434,901,-1014,-621,-297,124,98,-96
17482,802,0,2023-03-10T14:08:02.152705,6360332,1778,434,901,-1014,-621,-297,124,98,-96
17483,803,0,2023-03-10T14:08:02.157291,6360336,1778,434,901,-1014,-621,-297,124,98,-96
17484,804,0,2023-03-10T14:08:02.161577,6360341,1740,418,905,-1000,-629,-258,124,98,-96
17485,805,0,2023-03-10T14:08:02.167171,6360346,1740,418,905,-1000,-629,-258,124,98,-96
17486,806,0,2023-03-10T14:08:02.171607,6360351,1740,418,905,-1000,-629,-258,124,98,-96
17487,807,0,2023-03-10T14:08:02.176291,6360355,1740,418,905,-1000,-629,-258,124,98,-96
17488,808,0,2023-03-10T14:08:02.180957,6360359,1764,435,905,-993,-615,-285,124,98,-96
17489,809,0,2023-03-10T14:08:02.186183,6360366,1764,435,905,-993,-615,-285,124,98,-96
17490,810,0,2023-03-10T14:08:02.190703,6360370,1764,435,905,-993,-615,-285,124,98,-96
17491,811,0,2023-03-10T14:08:02.195043,6360374,1764,435,905,-993,-615,-285,124,98,-96
17492,812,0,2023-03-10T14:08:02.199611,6360379,1767,430,923,-972,-645,-242,126,100,-92
17493,813,0,2023-03-10T14:08:02.205141,6360384,1767,430,923,-972,-645,-242,126,100,-92
17494,814,0,2023-03-10T14:08:02.209599,6360388,1767,430,923,-972,-645,-242,126,100,-92
17495,815,0,2023-03-10T14:08:02.214261,6360393,1767,430,923,-972,-645,-242,126,100,-92
17496,816,0,2023-03-10T14:08:02.218600,6360397,1749,426,913,-990,-635,-255,126,100,-92
17497,817,0,2023-03-10T14:08:02.223552,6360402,1749,426,913,-990,-635,-255,126,100,-92
17498,818,0,2023-03-10T14:08:02.228655,6360408,1749,426,913,-990,-635,-255,126,100,-92
17499,819,0,2023-03-10T14:08:02.233295,6360413,1749,426,913,-990,-635,-255,126,100,-92
17500,820,0,2023-03-10T14:08:02.237909,6360417,1751,415,902,-1032,-612,-284,126,100,-92
17501,821,0,2023-03-10T14:08:02.242955,6360422,1751,415,902,-1032,-612,-284,126,100,-92
17502,822,0,2023-03-10T14:08:02.247748,6360427,1751,415,902,-1032,-612,-284,126,100,-92
17503,823,0,2023-03-10T14:08:02.252135,6360431,1751,415,902,-1032,-612,-284,126,100,-92
17504,824,0,2023-03-10T14:08:02.256615,6360435,1751,415,902,-1032,-612,-284,126,100,-92
17505,825,0,2023-03-10T14:08:02.261075,6360440,1758,427,907,-991,-669,-282,126,100,-92
17506,826,0,2023-03-10T14:08:02.266276,6360445,1758,427,907,-991,-669,-282,126,100,-92
17507,827,0,2023-03-10T14:08:02.270726,6360450,1758,427,907,-991,-669,-282,126,100,-92
17508,828,0,2023-03-10T14:08:02.275091,6360454,1758,427,907,-991,-669,-282,126,100,-92
17509,829,0,2023-03-10T14:08:02.279634,6360459,1763,418,907,-999,-609,-274,126,100,-92
17510,830,0,2023-03-10T14:08:02.285043,6360464,1763,418,907,-999,-609,-274,126,100,-92
17511,831,0,2023-03-10T14:08:02.289502,6360469,1763,418,907,-999,-609,-274,126,100,-92
17512,832,0,2023-03-10T14:08:02.293885,6360473,1763,418,907,-999,-609,-274,126,100,-92
17513,833,0,2023-03-10T14:08:02.298232,6360477,1760,430,894,-997,-628,-275,126,100,-92
17514,834,0,2023-03-10T14:08:02.303445,6360482,1760,430,894,-997,-628,-275,126,100,-92
17515,835,0,2023-03-10T14:08:02.307893,6360486,1760,430,894,-997,-628,-275,126,100,-92
17516,836,0,2023-03-10T14:08:02.312579,6360492,1760,430,894,-997,-628,-275,126,100,-92
17517,837,0,2023-03-10T14:08:02.317173,6360496,1760,430,894,-997,-628,-275,126,100,-92
17518,838,0,2023-03-10T14:08:02.321876,6360501,1750,412,918,-978,-611,-234,126,100,-92
17519,839,0,2023-03-10T14:08:02.327284,6360507,1750,412,918,-978,-611,-234,126,100,-92
17520,840,0,2023-03-10T14:08:02.331715,6360511,1750,412,918,-978,-611,-234,126,100,-92
17521,841,0,2023-03-10T14:08:02.336276,6360515,1750,412,918,-978,-611,-234,126,100,-92
17522,842,0,2023-03-10T14:08:02.340607,6360520,1754,426,908,-1003,-652,-281,123,93,-93
17523,843,0,2023-03-10T14:08:02.345857,6360524,1754,426,908,-1003,-652,-281,123,93,-93
17524,844,0,2023-03-10T14:08:02.350444,6360529,1754,426,908,-1003,-652,-281,123,93,-93
17525,845,0,2023-03-10T14:08:02.354975,6360534,1754,426,908,-1003,-652,-281,123,93,-93
17526,846,0,2023-03-10T14:08:02.359589,6360539,1770,427,904,-1029,-624,-280,123,93,-93
17527,847,0,2023-03-10T14:08:02.365028,6360544,1770,427,904,-1029,-624,-280,123,93,-93
17528,848,0,2023-03-10T14:08:02.369495,6360549,1770,427,904,-1029,-624,-280,123,93,-93
17529,849,0,2023-03-10T14:08:02.374161,6360553,1770,427,904,-1029,-624,-280,123,93,-93
17530,850,0,2023-03-10T14:08:02.378885,6360558,1763,428,896,-987,-702,-264,123,93,-93
17531,851,0,2023-03-10T14:08:02.383996,6360563,1763,428,896,-987,-702,-264,123,93,-93
17532,852,0,2023-03-10T14:08:02.388548,6360567,1763,428,896,-987,-702,-264,123,93,-93
17533,853,0,2023-03-10T14:08:02.393396,6360572,1763,428,896,-987,-702,-264,123,93,-93
17534,854,0,2023-03-10T14:08:02.397953,6360577,1763,428,896,-987,-702,-264,123,93,-93
17535,855,0,2023-03-10T14:08:02.402442,6360582,1764,426,898,-990,-640,-262,123,93,-93
17536,856,0,2023-03-10T14:08:02.407672,6360587,1764,426,898,-990,-640,-262,123,93,-93
17537,857,0,2023-03-10T14:08:02.412189,6360591,1764,426,898,-990,-640,-262,123,93,-93
17538,858,0,2023-03-10T14:08:02.416589,6360596,1764,426,898,-990,-640,-262,123,93,-93
17539,859,0,2023-03-10T14:08:02.421370,6360600,1742,422,911,-993,-582,-265,123,93,-93
17540,860,0,2023-03-10T14:08:02.426786,6360605,1742,422,911,-993,-582,-265,123,93,-93
17541,861,0,2023-03-10T14:08:02.431273,6360610,1742,422,911,-993,-582,-265,123,93,-93
17542,862,0,2023-03-10T14:08:02.436490,6360614,1742,422,911,-993,-582,-265,123,93,-93
17543,863,0,2023-03-10T14:08:02.441340,6360621,1783,435,915,-1011,-633,-305,123,93,-93
17544,864,0,2023-03-10T14:08:02.447028,6360626,1783,435,915,-1011,-633,-305,123,93,-93
17545,865,0,2023-03-10T14:08:02.451368,6360631,1783,435,915,-1011,-633,-305,123,93,-93
17546,866,0,2023-03-10T14:08:02.456107,6360635,1783,435,915,-1011,-633,-305,123,93,-93
17547,867,0,2023-03-10T14:08:02.460542,6360640,1744,418,909,-1005,-630,-242,118,96,-98
17548,868,0,2023-03-10T14:08:02.465517,6360645,1744,418,909,-1005,-630,-242,118,96,-98
17549,869,0,2023-03-10T14:08:02.470038,6360649,1744,418,909,-1005,-630,-242,118,96,-98
17550,870,0,2023-03-10T14:08:02.474338,6360653,1744,418,909,-1005,-630,-242,118,96,-98
17551,871,0,2023-03-10T14:08:02.478944,6360658,1775,430,910,-999,-621,-283,118,96,-98
17552,872,0,2023-03-10T14:08:02.483792,6360663,1775,430,910,-999,-621,-283,118,96,-98
17553,873,0,2023-03-10T14:08:02.488260,6360668,1775,430,910,-999,-621,-283,118,96,-98
17554,874,0,2023-03-10T14:08:02.492611,6360672,1775,430,910,-999,-621,-283,118,96,-98
17555,875,0,2023-03-10T14:08:02.496944,6360676,1775,430,910,-999,-621,-283,118,96,-98
17556,876,0,2023-03-10T14:08:02.501604,6360681,1750,421,902,-990,-642,-209,118,96,-98
17557,877,0,2023-03-10T14:08:02.506814,6360686,1750,421,902,-990,-642,-209,118,96,-98
17558,878,0,2023-03-10T14:08:02.511185,6360690,1750,421,902,-990,-642,-209,118,96,-98
17559,879,0,2023-03-10T14:08:02.515739,6360695,1750,421,902,-990,-642,-209,118,96,-98
17560,880,0,2023-03-10T14:08:02.520267,6360699,1770,428,907,-986,-624,-269,118,96,-98
17561,881,0,2023-03-10T14:08:02.525482,6360705,1770,428,907,-986,-624,-269,118,96,-98
17562,882,0,2023-03-10T14:08:02.529777,6360709,1770,428,907,-986,-624,-269,118,96,-98
17563,883,0,2023-03-10T14:08:02.534194,6360713,1770,428,907,-986,-624,-269,118,96,-98
17564,884,0,2023-03-10T14:08:02.538544,6360718,1775,429,894,-1023,-644,-288,118,96,-98
17565,885,0,2023-03-10T14:08:02.543482,6360723,1775,429,894,-1023,-644,-288,118,96,-98
17566,886,0,2023-03-10T14:08:02.548242,6360727,1775,429,894,-1023,-644,-288,118,96,-98
17567,887,0,2023-03-10T14:08:02.552830,6360732,1775,429,894,-1023,-644,-288,118,96,-98
17568,888,0,2023-03-10T14:08:02.557532,6360736,1775,429,894,-1023,-644,-288,118,96,-98
17569,889,0,2023-03-10T14:08:02.562575,6360741,1775,429,894,-1023,-644,-288,118,96,-98
17570,890,0,2023-03-10T14:08:02.567427,6360747,1775,429,894,-1023,-644,-288,118,96,-98
17571,891,0,2023-03-10T14:08:02.572638,6360752,1775,429,894,-1023,-644,-288,118,96,-98
17572,892,0,2023-03-10T14:08:02.577115,6360757,1775,429,894,-1023,-644,-288,118,96,-98
17573,893,0,2023-03-10T14:08:02.581534,6360761,1776,435,907,-1018,-611,-285,121,101,-93
17574,894,0,2023-03-10T14:08:02.587170,6360766,1776,435,907,-1018,-611,-285,121,101,-93
17575,895,0,2023-03-10T14:08:02.592214,6360771,1776,435,907,-1018,-611,-285,121,101,-93
17576,896,0,2023-03-10T14:08:02.596570,6360776,1776,435,907,-1018,-611,-285,121,101,-93
17577,897,0,2023-03-10T14:08:02.601125,6360780,1748,420,909,-981,-643,-230,121,101,-93
17578,898,0,2023-03-10T14:08:02.606553,6360785,1748,420,909,-981,-643,-230,121,101,-93
17579,899,0,2023-03-10T14:08:02.611480,6360791,1748,420,909,-981,-643,-230,121,101,-93
17580,900,0,2023-03-10T14:08:02.615960,6360795,1748,420,909,-981,-643,-230,121,101,-93
17581,901,0,2023-03-10T14:08:02.620374,6360800,1777,430,905,-1012,-632,-285,121,101,-93
17582,902,0,2023-03-10T14:08:02.625609,6360805,1777,430,905,-1012,-632,-285,121,101,-93
17583,903,0,2023-03-10T14:08:02.629946,6360809,1777,430,905,-1012,-632,-285,121,101,-93
17584,904,0,2023-03-10T14:08:02.634587,6360814,1777,430,905,-1012,-632,-285,121,101,-93
17585,905,0,2023-03-10T14:08:02.639234,6360818,1751,420,886,-1015,-637,-267,121,101,-93
17586,906,0,2023-03-10T14:08:02.644143,6360823,1751,420,886,-1015,-637,-267,121,101,-93
17587,907,0,2023-03-10T14:08:02.649078,6360828,1751,420,886,-1015,-637,-267,121,101,-93
17588,908,0,2023-03-10T14:08:02.653418,6360833,1751,420,886,-1015,-637,-267,121,101,-93
17589,909,0,2023-03-10T14:08:02.658029,6360837,1751,420,886,-1015,-637,-267,121,101,-93
17590,910,0,2023-03-10T14:08:02.662905,6360842,1764,424,909,-987,-620,-270,121,101,-93
17591,911,0,2023-03-10T14:08:02.668247,6360847,1764,424,909,-987,-620,-270,121,101,-93
17592,912,0,2023-03-10T14:08:02.672638,6360852,1764,424,909,-987,-620,-270,121,101,-93
17593,913,0,2023-03-10T14:08:02.677166,6360856,1764,424,909,-987,-620,-270,121,101,-93
17594,914,0,2023-03-10T14:08:02.681713,6360861,1779,429,903,-1000,-657,-272,121,101,-93
17595,915,0,2023-03-10T14:08:02.687032,6360866,1779,429,903,-1000,-657,-272,121,101,-93
17596,916,0,2023-03-10T14:08:02.691803,6360870,1779,429,903,-1000,-657,-272,121,101,-93
17597,917,0,2023-03-10T14:08:02.696210,6360876,1779,429,903,-1000,-657,-272,121,101,-93
