imu,server_time,arduino_time,ax,ay,az,gx,gy,gz,mx,my,mz
0,2023-03-01T18:52:27.057227,1736582,1278,1825,142,-1277,-610,-395,-20,146,-176
0,2023-03-01T18:52:27.063324,1736588,1278,1825,142,-1277,-610,-395,-20,146,-176
0,2023-03-01T18:52:27.068354,1736593,1278,1825,142,-1277,-610,-395,-20,146,-176
0,2023-03-01T18:52:27.073174,1736598,1276,1824,145,-1276,-613,-408,-20,146,-176
0,2023-03-01T18:52:27.079255,1736603,1276,1824,145,-1276,-613,-408,-20,146,-176
0,2023-03-01T18:52:27.084972,1736609,1276,1824,145,-1276,-613,-408,-20,146,-176
0,2023-03-01T18:52:27.090178,1736614,1276,1824,145,-1276,-613,-408,-20,146,-176
0,2023-03-01T18:52:27.095139,1736620,1279,1829,146,-1275,-614,-401,-20,146,-176
0,2023-03-01T18:52:27.101034,1736626,1279,1829,146,-1275,-614,-401,-20,146,-176
0,2023-03-01T18:52:27.107347,1736632,1279,1829,146,-1275,-614,-401,-20,146,-176
0,2023-03-01T18:52:27.112105,1736637,1280,1826,147,-1270,-611,-397,-20,146,-176
0,2023-03-01T18:52:27.117271,1736642,1280,1826,147,-1270,-611,-397,-20,146,-176
0,2023-03-01T18:52:27.122318,1736647,1280,1826,147,-1270,-611,-397,-20,146,-176
0,2023-03-01T18:52:27.127623,1736652,1280,1826,147,-1270,-611,-397,-20,146,-176
0,2023-03-01T18:52:27.133124,1736657,1282,1826,149,-1292,-621,-408,-24,150,-186
0,2023-03-01T18:52:27.138779,1736664,1282,1826,149,-1292,-621,-408,-24,150,-186
0,2023-03-01T18:52:27.144314,1736669,1282,1826,149,-1292,-621,-408,-24,150,-186
0,2023-03-01T18:52:27.149282,1736674,1282,1826,149,-1292,-621,-408,-24,150,-186
0,2023-03-01T18:52:27.154458,1736679,1282,1822,154,-1275,-617,-403,-24,150,-186
0,2023-03-01T18:52:27.159905,1736684,1282,1822,154,-1275,-617,-403,-24,150,-186
0,2023-03-01T18:52:27.165061,1736690,1282,1822,154,-1275,-617,-403,-24,150,-186
0,2023-03-01T18:52:27.169959,1736694,1282,1822,154,-1275,-617,-403,-24,150,-186
0,2023-03-01T18:52:27.174830,1736699,1279,1822,152,-1276,-614,-403,-24,150,-186
0,2023-03-01T18:52:27.180768,1736706,1279,1822,152,-1276,-614,-403,-24,150,-186
0,2023-03-01T18:52:27.186522,1736712,1279,1822,152,-1276,-614,-403,-24,150,-186
0,2023-03-01T18:52:27.191317,1736716,1277,1822,155,-1277,-609,-402,-24,150,-186
0,2023-03-01T18:52:27.196769,1736721,1277,1822,155,-1277,-609,-402,-24,150,-186
0,2023-03-01T18:52:27.201945,1736727,1277,1822,155,-1277,-609,-402,-24,150,-186
0,2023-03-01T18:52:27.206472,1736731,1277,1822,155,-1277,-609,-402,-24,150,-186
0,2023-03-01T18:52:27.212262,1736736,1275,1824,159,-1267,-607,-406,-24,150,-186
0,2023-03-01T18:52:27.217648,1736742,1275,1824,159,-1267,-607,-406,-24,150,-186
0,2023-03-01T18:52:27.223626,1736749,1275,1824,159,-1267,-607,-406,-24,150,-186
0,2023-03-01T18:52:27.228748,1736754,1275,1824,159,-1267,-607,-406,-24,150,-186
0,2023-03-01T18:52:27.233406,1736758,1280,1823,146,-1283,-621,-399,-24,150,-186
0,2023-03-01T18:52:27.239713,1736764,1280,1823,146,-1283,-621,-399,-24,150,-186
0,2023-03-01T18:52:27.246094,1736771,1280,1823,146,-1283,-621,-399,-24,150,-186
0,2023-03-01T18:52:27.250969,1736775,1277,1823,160,-1273,-612,-407,-24,150,-186
0,2023-03-01T18:52:27.256551,1736781,1277,1823,160,-1273,-612,-407,-24,150,-186
0,2023-03-01T18:52:27.261818,1736786,1277,1823,160,-1273,-612,-407,-24,150,-186
0,2023-03-01T18:52:27.267626,1736792,1277,1823,160,-1273,-612,-407,-24,150,-186
0,2023-03-01T18:52:27.272256,1736797,1275,1825,154,-1288,-625,-403,-21,147,-185
0,2023-03-01T18:52:27.277658,1736802,1275,1825,154,-1288,-625,-403,-21,147,-185
0,2023-03-01T18:52:27.283190,1736808,1275,1825,154,-1288,-625,-403,-21,147,-185
0,2023-03-01T18:52:27.288016,1736813,1275,1825,154,-1288,-625,-403,-21,147,-185
0,2023-03-01T18:52:27.292907,1736817,1273,1819,159,-1287,-618,-396,-21,147,-185
0,2023-03-01T18:52:27.298372,1736823,1273,1819,159,-1287,-618,-396,-21,147,-185
0,2023-03-01T18:52:27.304182,1736828,1273,1819,159,-1287,-618,-396,-21,147,-185
0,2023-03-01T18:52:27.308922,1736834,1273,1819,159,-1287,-618,-396,-21,147,-185
0,2023-03-01T18:52:27.314216,1736839,1273,1819,159,-1287,-618,-396,-21,147,-185
0,2023-03-01T18:52:27.318806,1736844,1273,1819,159,-1287,-618,-396,-21,147,-185
0,2023-03-01T18:52:27.324128,1736849,1273,1819,159,-1287,-618,-396,-21,147,-185
0,2023-03-01T18:52:27.328894,1736853,1273,1819,159,-1287,-618,-396,-21,147,-185
0,2023-03-01T18:52:27.333485,1736858,1280,1822,155,-1273,-624,-404,-21,147,-185
0,2023-03-01T18:52:27.338842,1736863,1280,1822,155,-1273,-624,-404,-21,147,-185
0,2023-03-01T18:52:27.344540,1736869,1280,1822,155,-1273,-624,-404,-21,147,-185
0,2023-03-01T18:52:27.349414,1736875,1280,1822,155,-1273,-624,-404,-21,147,-185
0,2023-03-01T18:52:27.354163,1736879,1275,1826,160,-1269,-625,-411,-21,147,-185
0,2023-03-01T18:52:27.359907,1736885,1275,1826,160,-1269,-625,-411,-21,147,-185
0,2023-03-01T18:52:27.365564,1736890,1275,1826,160,-1269,-625,-411,-21,147,-185
0,2023-03-01T18:52:27.370454,1736895,1275,1826,160,-1269,-625,-411,-21,147,-185
0,2023-03-01T18:52:27.375341,1736900,1274,1822,159,-1269,-624,-407,-21,147,-185
0,2023-03-01T18:52:27.381412,1736906,1274,1822,159,-1269,-624,-407,-21,147,-185
0,2023-03-01T18:52:27.386408,1736911,1274,1822,159,-1269,-624,-407,-21,147,-185
0,2023-03-01T18:52:27.391149,1736915,1274,1826,156,-1277,-620,-404,-21,147,-185
0,2023-03-01T18:52:27.396840,1736922,1274,1826,156,-1277,-620,-404,-21,145,-183
0,2023-03-01T18:52:27.402154,1736927,1274,1826,156,-1277,-620,-404,-21,145,-183
0,2023-03-01T18:52:27.407757,1736932,1274,1826,156,-1277,-620,-404,-21,145,-183
0,2023-03-01T18:52:27.412715,1736937,1275,1823,170,-1272,-623,-400,-21,145,-183
0,2023-03-01T18:52:27.418356,1736943,1275,1823,170,-1272,-623,-400,-21,145,-183
0,2023-03-01T18:52:27.424180,1736949,1275,1823,170,-1272,-623,-400,-21,145,-183
0,2023-03-01T18:52:27.429160,1736953,1275,1823,170,-1272,-623,-400,-21,145,-183
0,2023-03-01T18:52:27.433950,1736958,1273,1822,165,-1265,-618,-407,-21,145,-183
0,2023-03-01T18:52:27.439611,1736965,1273,1822,165,-1265,-618,-407,-21,145,-183
0,2023-03-01T18:52:27.445322,1736970,1273,1822,165,-1265,-618,-407,-21,145,-183
0,2023-03-01T18:52:27.450039,1736975,1273,1822,165,-1265,-618,-407,-21,145,-183
0,2023-03-01T18:52:27.455253,1736980,1269,1819,168,-1268,-620,-398,-21,145,-183
0,2023-03-01T18:52:27.461844,1736986,1269,1819,168,-1268,-620,-398,-21,145,-183
0,2023-03-01T18:52:27.468209,1736993,1269,1819,168,-1268,-620,-398,-21,145,-183
0,2023-03-01T18:52:27.472871,1736997,1276,1821,156,-1279,-618,-399,-21,145,-183
0,2023-03-01T18:52:27.478273,1737003,1276,1821,156,-1279,-618,-399,-21,145,-183
0,2023-03-01T18:52:27.484050,1737009,1276,1821,156,-1279,-618,-399,-21,145,-183
0,2023-03-01T18:52:27.489021,1737014,1276,1821,156,-1279,-618,-399,-21,145,-183
0,2023-03-01T18:52:27.494285,1737019,1275,1823,164,-1268,-619,-411,-21,145,-183
0,2023-03-01T18:52:27.499598,1737024,1275,1823,164,-1268,-619,-411,-21,145,-183
0,2023-03-01T18:52:27.504373,1737029,1275,1823,164,-1268,-619,-411,-21,145,-183
0,2023-03-01T18:52:27.509011,1737033,1275,1823,164,-1268,-619,-411,-21,145,-183
0,2023-03-01T18:52:27.514063,1737038,1276,1823,167,-1280,-632,-409,-21,145,-183
0,2023-03-01T18:52:27.519714,1737044,1276,1823,167,-1280,-632,-409,-21,145,-183
0,2023-03-01T18:52:27.525622,1737050,1276,1823,167,-1280,-632,-409,-21,145,-183
0,2023-03-01T18:52:27.530885,1737056,1276,1823,167,-1280,-632,-409,-21,145,-183
0,2023-03-01T18:52:27.535997,1737061,1270,1823,169,-1283,-615,-395,-11,151,-185
0,2023-03-01T18:52:27.541418,1737066,1270,1823,169,-1283,-615,-395,-11,151,-185
0,2023-03-01T18:52:27.546305,1737071,1270,1823,169,-1283,-615,-395,-11,151,-185
0,2023-03-01T18:52:27.551270,1737076,1274,1822,170,-1283,-615,-404,-11,151,-185
0,2023-03-01T18:52:27.556676,1737081,1274,1822,170,-1283,-615,-404,-11,151,-185
0,2023-03-01T18:52:27.561895,1737086,1274,1822,170,-1283,-615,-404,-11,151,-185
0,2023-03-01T18:52:27.567262,1737092,1274,1822,170,-1283,-615,-404,-11,151,-185
0,2023-03-01T18:52:27.572028,1737097,1274,1822,169,-1290,-619,-406,-11,151,-185
0,2023-03-01T18:52:27.577440,1737102,1274,1822,169,-1290,-619,-406,-11,151,-185
0,2023-03-01T18:52:27.583123,1737108,1274,1822,169,-1290,-619,-406,-11,151,-185
0,2023-03-01T18:52:27.587870,1737112,1274,1822,169,-1290,-619,-406,-11,151,-185
0,2023-03-01T18:52:27.592743,1737117,1274,1819,171,-1284,-623,-409,-11,151,-185
0,2023-03-01T18:52:27.599040,1737123,1274,1819,171,-1284,-623,-409,-11,151,-185
0,2023-03-01T18:52:27.605028,1737129,1274,1819,171,-1284,-623,-409,-11,151,-185
0,2023-03-01T18:52:27.609639,1737135,1274,1819,171,-1284,-623,-409,-11,151,-185
0,2023-03-01T18:52:27.614348,1737139,1272,1821,169,-1288,-621,-409,-11,151,-185
0,2023-03-01T18:52:27.619753,1737145,1272,1821,169,-1288,-621,-409,-11,151,-185
0,2023-03-01T18:52:27.625752,1737150,1272,1821,169,-1288,-621,-409,-11,151,-185
0,2023-03-01T18:52:27.630759,1737155,1272,1821,169,-1288,-621,-409,-11,151,-185
0,2023-03-01T18:52:27.635829,1737160,1271,1818,168,-1276,-616,-406,-11,151,-185
0,2023-03-01T18:52:27.641748,1737166,1271,1818,168,-1276,-616,-406,-11,151,-185
0,2023-03-01T18:52:27.646289,1737170,1271,1818,168,-1276,-616,-406,-11,151,-185
0,2023-03-01T18:52:27.651296,1737176,1269,1821,180,-1283,-621,-412,-16,152,-180
0,2023-03-01T18:52:27.656597,1737182,1269,1821,180,-1283,-621,-412,-16,152,-180
0,2023-03-01T18:52:27.661870,1737187,1269,1821,180,-1283,-621,-412,-16,152,-180
0,2023-03-01T18:52:27.666891,1737191,1269,1821,180,-1283,-621,-412,-16,152,-180
0,2023-03-01T18:52:27.672014,1737196,1272,1820,177,-1293,-631,-413,-16,152,-180
0,2023-03-01T18:52:27.677196,1737202,1272,1820,177,-1293,-631,-413,-16,152,-180
0,2023-03-01T18:52:27.682235,1737207,1272,1820,177,-1293,-631,-413,-16,152,-180
0,2023-03-01T18:52:27.687166,1737211,1272,1820,177,-1293,-631,-413,-16,152,-180
0,2023-03-01T18:52:27.692681,1737217,1272,1821,178,-1287,-623,-418,-16,152,-180
0,2023-03-01T18:52:27.697296,1737222,1272,1821,178,-1287,-623,-418,-16,152,-180
0,2023-03-01T18:52:27.702657,1737227,1272,1821,178,-1287,-623,-418,-16,152,-180
0,2023-03-01T18:52:27.708174,1737233,1272,1821,178,-1287,-623,-418,-16,152,-180
0,2023-03-01T18:52:27.712921,1737237,1272,1819,177,-1283,-620,-410,-16,152,-180
0,2023-03-01T18:52:27.719081,1737243,1272,1819,177,-1283,-620,-410,-16,152,-180
0,2023-03-01T18:52:27.724876,1737249,1272,1819,177,-1283,-620,-410,-16,152,-180
0,2023-03-01T18:52:27.729524,1737254,1272,1819,177,-1283,-620,-410,-16,152,-180
0,2023-03-01T18:52:27.734754,1737260,1268,1821,180,-1282,-620,-400,-16,152,-180
0,2023-03-01T18:52:27.739717,1737265,1268,1821,180,-1282,-620,-400,-16,152,-180
0,2023-03-01T18:52:27.746006,1737271,1268,1821,180,-1282,-620,-400,-16,152,-180
0,2023-03-01T18:52:27.750966,1737276,1268,1821,180,-1282,-620,-400,-16,152,-180
0,2023-03-01T18:52:27.755862,1737281,1269,1823,179,-1282,-621,-402,-16,152,-180
0,2023-03-01T18:52:27.761957,1737286,1269,1823,179,-1282,-621,-402,-16,152,-180
0,2023-03-01T18:52:27.767146,1737291,1269,1823,179,-1282,-621,-402,-16,152,-180
0,2023-03-01T18:52:27.771860,1737296,1269,1821,177,-1280,-616,-404,-16,152,-180
0,2023-03-01T18:52:27.777290,1737302,1269,1821,177,-1280,-616,-404,-16,152,-180
0,2023-03-01T18:52:27.782787,1737308,1269,1821,177,-1280,-616,-404,-16,152,-180
0,2023-03-01T18:52:27.787467,1737312,1269,1821,177,-1280,-616,-404,-16,152,-180
0,2023-03-01T18:52:27.792652,1737317,1268,1818,183,-1287,-612,-407,-21,151,-183
0,2023-03-01T18:52:27.799020,1737323,1268,1818,183,-1287,-612,-407,-21,151,-183
0,2023-03-01T18:52:27.805160,1737329,1268,1818,183,-1287,-612,-407,-21,151,-183
0,2023-03-01T18:52:27.810466,1737335,1268,1818,183,-1287,-612,-407,-21,151,-183
0,2023-03-01T18:52:27.815768,1737340,1266,1820,180,-1283,-622,-407,-21,151,-183
0,2023-03-01T18:52:27.821508,1737347,1266,1820,180,-1283,-622,-407,-21,151,-183
0,2023-03-01T18:52:27.827002,1737352,1266,1820,180,-1283,-622,-407,-21,151,-183
0,2023-03-01T18:52:27.831947,1737357,1264,1817,178,-1282,-619,-412,-21,151,-183
0,2023-03-01T18:52:27.837562,1737362,1264,1817,178,-1282,-619,-412,-21,151,-183
0,2023-03-01T18:52:27.842854,1737367,1264,1817,178,-1282,-619,-412,-21,151,-183
0,2023-03-01T18:52:27.848131,1737373,1264,1817,178,-1282,-619,-412,-21,151,-183
0,2023-03-01T18:52:27.853005,1737377,1268,1818,180,-1283,-628,-410,-21,151,-183
0,2023-03-01T18:52:27.859021,1737383,1268,1818,180,-1283,-628,-410,-21,151,-183
0,2023-03-01T18:52:27.865065,1737390,1268,1818,180,-1283,-628,-410,-21,151,-183
0,2023-03-01T18:52:27.869447,1737395,1268,1818,180,-1283,-628,-410,-21,151,-183
0,2023-03-01T18:52:27.874541,1737399,1269,1820,183,-1277,-621,-413,-21,151,-183
0,2023-03-01T18:52:27.880044,1737405,1269,1820,183,-1277,-621,-413,-21,151,-183
0,2023-03-01T18:52:27.886265,1737411,1269,1820,183,-1277,-621,-413,-21,151,-183
0,2023-03-01T18:52:27.891367,1737416,1267,1819,187,-1294,-625,-406,-21,151,-183
0,2023-03-01T18:52:27.896598,1737421,1267,1819,187,-1294,-625,-406,-21,151,-183
0,2023-03-01T18:52:27.902487,1737426,1267,1819,187,-1294,-625,-406,-21,151,-183
0,2023-03-01T18:52:27.908224,1737433,1267,1819,187,-1294,-625,-406,-21,151,-183
0,2023-03-01T18:52:27.913169,1737438,1269,1818,191,-1297,-631,-407,-17,149,-173
0,2023-03-01T18:52:27.918686,1737443,1269,1818,191,-1297,-631,-407,-17,149,-173
0,2023-03-01T18:52:27.924332,1737449,1269,1818,191,-1297,-631,-407,-17,149,-173
0,2023-03-01T18:52:27.929140,1737454,1269,1818,191,-1297,-631,-407,-17,149,-173
0,2023-03-01T18:52:27.933782,1737458,1269,1821,191,-1287,-624,-413,-17,149,-173
0,2023-03-01T18:52:27.939428,1737464,1269,1821,191,-1287,-624,-413,-17,149,-173
0,2023-03-01T18:52:27.945586,1737470,1269,1821,191,-1287,-624,-413,-17,149,-173
0,2023-03-01T18:52:27.950275,1737475,1269,1821,191,-1287,-624,-413,-17,149,-173
0,2023-03-01T18:52:27.955087,1737480,1267,1815,186,-1298,-625,-418,-17,149,-173
0,2023-03-01T18:52:27.960489,1737485,1267,1815,186,-1298,-625,-418,-17,149,-173
0,2023-03-01T18:52:27.967612,1737492,1267,1815,186,-1298,-625,-418,-17,149,-173
0,2023-03-01T18:52:27.972695,1737497,1268,1816,189,-1285,-618,-411,-17,149,-173
0,2023-03-01T18:52:27.978034,1737502,1268,1816,189,-1285,-618,-411,-17,149,-173
0,2023-03-01T18:52:27.983575,1737508,1268,1816,189,-1285,-618,-411,-17,149,-173
0,2023-03-01T18:52:27.989290,1737513,1268,1816,189,-1285,-618,-411,-17,149,-173
0,2023-03-01T18:52:27.994671,1737519,1265,1818,190,-1297,-624,-408,-17,149,-173
0,2023-03-01T18:52:28.000123,1737525,1265,1818,190,-1297,-624,-408,-17,149,-173
0,2023-03-01T18:52:28.005738,1737530,1265,1818,190,-1297,-624,-408,-17,149,-173
0,2023-03-01T18:52:28.010940,1737535,1265,1818,190,-1297,-624,-408,-17,149,-173
0,2023-03-01T18:52:28.016149,1737540,1267,1819,187,-1294,-624,-409,-17,149,-173
0,2023-03-01T18:52:28.022454,1737547,1267,1819,187,-1294,-624,-409,-17,149,-173
0,2023-03-01T18:52:28.028088,1737553,1267,1819,187,-1294,-624,-409,-17,149,-173
0,2023-03-01T18:52:28.032660,1737558,1264,1816,191,-1293,-617,-412,-16,146,-178
0,2023-03-01T18:52:28.038175,1737563,1264,1816,191,-1293,-617,-412,-16,146,-178
0,2023-03-01T18:52:28.043772,1737569,1264,1816,191,-1293,-617,-412,-16,146,-178
0,2023-03-01T18:52:28.048534,1737573,1264,1816,191,-1293,-617,-412,-16,146,-178
0,2023-03-01T18:52:28.054919,1737579,1266,1819,195,-1293,-625,-415,-16,146,-178
0,2023-03-01T18:52:28.059504,1737584,1266,1819,195,-1293,-625,-415,-16,146,-178
0,2023-03-01T18:52:28.064798,1737589,1266,1819,195,-1293,-625,-415,-16,146,-178
0,2023-03-01T18:52:28.069976,1737594,1266,1819,195,-1293,-625,-415,-16,146,-178
0,2023-03-01T18:52:28.075014,1737600,1263,1818,195,-1268,-624,-414,-16,146,-178
0,2023-03-01T18:52:28.080558,1737606,1263,1818,195,-1268,-624,-414,-16,146,-178
0,2023-03-01T18:52:28.086631,1737611,1263,1818,195,-1268,-624,-414,-16,146,-178
0,2023-03-01T18:52:28.091769,1737616,1263,1818,195,-1268,-624,-414,-16,146,-178
0,2023-03-01T18:52:28.097314,1737622,1263,1816,191,-1283,-624,-411,-16,146,-178
0,2023-03-01T18:52:28.105669,1737630,1263,1816,191,-1283,-624,-411,-16,146,-178
0,2023-03-01T18:52:28.111283,1737636,1263,1816,191,-1283,-624,-411,-16,146,-178
0,2023-03-01T18:52:28.116396,1737640,1262,1815,190,-1276,-622,-414,-16,146,-178
0,2023-03-01T18:52:28.124068,1737649,1262,1815,190,-1276,-622,-414,-16,146,-178
0,2023-03-01T18:52:28.128695,1737654,1262,1815,190,-1276,-622,-414,-16,146,-178
0,2023-03-01T18:52:28.133611,1737658,1263,1816,198,-1288,-631,-420,-16,146,-178
0,2023-03-01T18:52:28.139515,1737664,1263,1816,198,-1288,-631,-420,-16,146,-178
0,2023-03-01T18:52:28.144678,1737669,1263,1816,198,-1288,-631,-420,-16,146,-178
0,2023-03-01T18:52:28.149818,1737674,1263,1816,198,-1288,-631,-420,-16,146,-178
0,2023-03-01T18:52:28.155249,1737679,1263,1818,198,-1284,-623,-403,-16,146,-178
0,2023-03-01T18:52:28.160518,1737686,1263,1818,198,-1284,-623,-403,-16,146,-178
0,2023-03-01T18:52:28.167158,1737692,1263,1818,198,-1284,-623,-403,-16,146,-178
0,2023-03-01T18:52:28.172231,1737697,1261,1816,205,-1289,-616,-414,-13,153,-177
0,2023-03-01T18:52:28.177605,1737702,1261,1816,205,-1289,-616,-414,-13,153,-177
0,2023-03-01T18:52:28.183054,1737708,1261,1816,205,-1289,-616,-414,-13,153,-177
0,2023-03-01T18:52:28.188380,1737713,1261,1816,205,-1289,-616,-414,-13,153,-177
0,2023-03-01T18:52:28.193664,1737718,1266,1819,200,-1295,-605,-407,-13,153,-177
0,2023-03-01T18:52:28.199699,1737724,1266,1819,200,-1295,-605,-407,-13,153,-177
0,2023-03-01T18:52:28.205468,1737731,1266,1819,200,-1295,-605,-407,-13,153,-177
0,2023-03-01T18:52:28.210333,1737735,1266,1819,200,-1295,-605,-407,-13,153,-177
0,2023-03-01T18:52:28.215282,1737740,1263,1817,203,-1277,-604,-406,-13,153,-177
0,2023-03-01T18:52:28.221731,1737746,1263,1817,203,-1277,-604,-406,-13,153,-177
0,2023-03-01T18:52:28.227378,1737752,1263,1817,203,-1277,-604,-406,-13,153,-177
0,2023-03-01T18:52:28.232058,1737757,1262,1816,199,-1275,-597,-392,-13,153,-177
0,2023-03-01T18:52:28.237934,1737762,1262,1816,199,-1275,-597,-392,-13,153,-177
0,2023-03-01T18:52:28.243683,1737768,1262,1816,199,-1275,-597,-392,-13,153,-177
0,2023-03-01T18:52:28.249577,1737775,1262,1816,199,-1275,-597,-392,-13,153,-177
0,2023-03-01T18:52:28.254590,1737779,1266,1820,204,-1275,-586,-399,-13,153,-177
0,2023-03-01T18:52:28.260001,1737785,1266,1820,204,-1275,-586,-399,-13,153,-177
0,2023-03-01T18:52:28.265468,1737790,1266,1820,204,-1275,-586,-399,-13,153,-177
0,2023-03-01T18:52:28.270022,1737795,1266,1820,204,-1275,-586,-399,-13,153,-177
0,2023-03-01T18:52:28.275046,1737799,1263,1816,196,-1283,-594,-402,-13,153,-177
0,2023-03-01T18:52:28.280535,1737805,1263,1816,196,-1283,-594,-402,-13,153,-177
0,2023-03-01T18:52:28.286836,1737811,1263,1816,196,-1283,-594,-402,-13,153,-177
0,2023-03-01T18:52:28.291916,1737817,1263,1816,196,-1283,-594,-402,-13,153,-177
0,2023-03-01T18:52:28.296841,1737822,1266,1814,203,-1279,-596,-401,-12,146,-172
0,2023-03-01T18:52:28.303101,1737828,1266,1814,203,-1279,-596,-401,-12,146,-172
0,2023-03-01T18:52:28.308001,1737833,1266,1814,203,-1279,-596,-401,-12,146,-172
0,2023-03-01T18:52:28.312787,1737837,1262,1817,207,-1273,-591,-405,-12,146,-172
0,2023-03-01T18:52:28.318580,1737843,1262,1817,207,-1273,-591,-405,-12,146,-172
0,2023-03-01T18:52:28.324089,1737848,1262,1817,207,-1273,-591,-405,-12,146,-172
0,2023-03-01T18:52:28.330813,1737856,1262,1817,207,-1273,-591,-405,-12,146,-172
0,2023-03-01T18:52:28.335862,1737861,1262,1812,205,-1283,-603,-400,-12,146,-172
0,2023-03-01T18:52:28.342042,1737867,1262,1812,205,-1283,-603,-400,-12,146,-172
0,2023-03-01T18:52:28.347238,1737872,1262,1812,205,-1283,-603,-400,-12,146,-172
0,2023-03-01T18:52:28.352497,1737877,1265,1817,209,-1281,-614,-414,-12,146,-172
0,2023-03-01T18:52:28.357955,1737882,1265,1817,209,-1281,-614,-414,-12,146,-172
0,2023-03-01T18:52:28.363534,1737888,1265,1817,209,-1281,-614,-414,-12,146,-172
0,2023-03-01T18:52:28.369311,1737894,1265,1817,209,-1281,-614,-414,-12,146,-172
0,2023-03-01T18:52:28.374366,1737900,1258,1816,216,-1283,-609,-398,-12,146,-172
0,2023-03-01T18:52:28.380149,1737905,1258,1816,216,-1283,-609,-398,-12,146,-172
0,2023-03-01T18:52:28.386570,1737911,1258,1816,216,-1283,-609,-398,-12,146,-172
0,2023-03-01T18:52:28.391522,1737916,1258,1816,216,-1283,-609,-398,-12,146,-172
0,2023-03-01T18:52:28.396318,1737921,1261,1813,207,-1290,-608,-408,-12,146,-172
0,2023-03-01T18:52:28.402473,1737927,1261,1813,207,-1290,-608,-408,-12,146,-172
0,2023-03-01T18:52:28.408394,1737932,1261,1813,207,-1290,-608,-408,-12,146,-172
0,2023-03-01T18:52:28.413237,1737937,1259,1813,214,-1278,-605,-408,-12,146,-172
0,2023-03-01T18:52:28.418941,1737944,1259,1813,214,-1278,-605,-408,-12,146,-172
0,2023-03-01T18:52:28.425171,1737950,1259,1813,214,-1278,-605,-408,-12,146,-172
0,2023-03-01T18:52:28.430671,1737955,1259,1813,214,-1278,-605,-408,-12,146,-172
0,2023-03-01T18:52:28.435833,1737960,1255,1814,216,-1280,-608,-408,-20,146,-170
0,2023-03-01T18:52:28.442112,1737966,1255,1814,216,-1280,-608,-408,-20,146,-170
0,2023-03-01T18:52:28.447887,1737972,1255,1814,216,-1280,-608,-408,-20,146,-170
0,2023-03-01T18:52:28.452665,1737977,1260,1815,217,-1278,-602,-403,-20,146,-170
0,2023-03-01T18:52:28.458101,1737982,1260,1815,217,-1278,-602,-403,-20,146,-170
0,2023-03-01T18:52:28.463826,1737989,1260,1815,217,-1278,-602,-403,-20,146,-170
0,2023-03-01T18:52:28.469839,1737995,1260,1815,217,-1278,-602,-403,-20,146,-170
0,2023-03-01T18:52:28.474824,1738000,1258,1817,215,-1298,-597,-399,-20,146,-170
0,2023-03-01T18:52:28.480381,1738005,1258,1817,215,-1298,-597,-399,-20,146,-170
0,2023-03-01T18:52:28.487021,1738011,1258,1817,215,-1298,-597,-399,-20,146,-170
0,2023-03-01T18:52:28.492225,1738016,1258,1817,215,-1298,-597,-399,-20,146,-170
0,2023-03-01T18:52:28.497413,1738021,1258,1814,207,-1293,-594,-407,-20,146,-170
0,2023-03-01T18:52:28.502520,1738027,1258,1814,207,-1293,-594,-407,-20,146,-170
0,2023-03-01T18:52:28.508033,1738033,1258,1814,207,-1293,-594,-407,-20,146,-170
0,2023-03-01T18:52:28.513155,1738038,1258,1817,215,-1285,-589,-409,-20,146,-170
0,2023-03-01T18:52:28.519308,1738044,1258,1817,215,-1285,-589,-409,-20,146,-170
0,2023-03-01T18:52:28.525884,1738050,1258,1817,215,-1285,-589,-409,-20,146,-170
0,2023-03-01T18:52:28.530706,1738055,1258,1817,215,-1285,-589,-409,-20,146,-170
0,2023-03-01T18:52:28.535668,1738060,1259,1815,213,-1290,-592,-406,-20,146,-170
0,2023-03-01T18:52:28.541269,1738065,1259,1815,213,-1290,-592,-406,-20,146,-170
0,2023-03-01T18:52:28.546618,1738071,1259,1815,213,-1290,-592,-406,-20,146,-170
0,2023-03-01T18:52:28.551579,1738077,1259,1815,213,-1290,-592,-406,-20,146,-170
0,2023-03-01T18:52:28.556360,1738081,1257,1814,220,-1283,-594,-406,-20,150,-168
0,2023-03-01T18:52:28.562200,1738087,1257,1814,220,-1283,-594,-406,-20,150,-168
0,2023-03-01T18:52:28.566987,1738092,1257,1814,220,-1283,-594,-406,-20,150,-168
0,2023-03-01T18:52:28.571911,1738097,1257,1814,220,-1283,-594,-406,-20,150,-168
0,2023-03-01T18:52:28.576853,1738101,1257,1817,221,-1290,-588,-408,-20,150,-168
0,2023-03-01T18:52:28.583360,1738108,1257,1817,221,-1290,-588,-408,-20,150,-168
0,2023-03-01T18:52:28.588922,1738114,1257,1817,221,-1290,-588,-408,-20,150,-168
0,2023-03-01T18:52:28.594234,1738119,1260,1810,215,-1267,-600,-402,-20,150,-168
0,2023-03-01T18:52:28.599987,1738125,1260,1810,215,-1267,-600,-402,-20,150,-168
0,2023-03-01T18:52:28.606174,1738131,1260,1810,215,-1267,-600,-402,-20,150,-168
0,2023-03-01T18:52:28.611013,1738136,1260,1810,215,-1267,-600,-402,-20,150,-168
0,2023-03-01T18:52:28.615988,1738140,1259,1812,222,-1281,-590,-409,-20,150,-168
0,2023-03-01T18:52:28.621860,1738146,1259,1812,222,-1281,-590,-409,-20,150,-168
0,2023-03-01T18:52:28.626831,1738151,1259,1812,222,-1281,-590,-409,-20,150,-168
0,2023-03-01T18:52:28.631844,1738157,1259,1812,222,-1281,-590,-409,-20,150,-168
0,2023-03-01T18:52:28.636743,1738162,1254,1816,224,-1284,-601,-413,-20,150,-168
0,2023-03-01T18:52:28.642640,1738167,1254,1816,224,-1284,-601,-413,-20,150,-168
0,2023-03-01T18:52:28.647632,1738172,1254,1816,224,-1284,-601,-413,-20,150,-168
0,2023-03-01T18:52:28.652206,1738177,1256,1812,224,-1287,-604,-419,-20,150,-168
0,2023-03-01T18:52:28.658556,1738182,1256,1812,224,-1287,-604,-419,-20,150,-168
0,2023-03-01T18:52:28.664111,1738188,1256,1812,224,-1287,-604,-419,-20,150,-168
0,2023-03-01T18:52:28.669519,1738194,1256,1812,224,-1287,-604,-419,-20,150,-168
0,2023-03-01T18:52:28.674489,1738200,1253,1812,220,-1291,-604,-413,-20,150,-168
0,2023-03-01T18:52:28.680137,1738205,1253,1812,220,-1291,-604,-413,-20,150,-168
0,2023-03-01T18:52:28.687321,1738212,1253,1812,220,-1291,-604,-413,-20,150,-168
0,2023-03-01T18:52:28.692909,1738217,1253,1812,220,-1291,-604,-413,-20,150,-168
0,2023-03-01T18:52:28.697873,1738222,1257,1809,231,-1285,-592,-408,-18,152,-176
0,2023-03-01T18:52:28.703654,1738228,1257,1809,231,-1285,-592,-408,-18,152,-176
0,2023-03-01T18:52:28.708597,1738233,1257,1809,231,-1285,-592,-408,-18,152,-176
0,2023-03-01T18:52:28.713245,1738237,1251,1811,228,-1287,-602,-413,-18,152,-176
0,2023-03-01T18:52:28.718925,1738244,1251,1811,228,-1287,-602,-413,-18,152,-176
0,2023-03-01T18:52:28.724535,1738249,1251,1811,228,-1287,-602,-413,-18,152,-176
0,2023-03-01T18:52:28.729807,1738255,1251,1811,228,-1287,-602,-413,-18,152,-176
0,2023-03-01T18:52:28.734874,1738260,1253,1813,230,-1282,-599,-419,-18,152,-176
0,2023-03-01T18:52:28.740299,1738265,1253,1813,230,-1282,-599,-419,-18,152,-176
0,2023-03-01T18:52:28.746539,1738271,1253,1813,230,-1282,-599,-419,-18,152,-176
0,2023-03-01T18:52:28.751369,1738276,1253,1813,230,-1282,-599,-419,-18,152,-176
0,2023-03-01T18:52:28.756592,1738281,1252,1812,223,-1287,-599,-412,-18,152,-176
0,2023-03-01T18:52:28.762594,1738288,1252,1812,223,-1287,-599,-412,-18,152,-176
0,2023-03-01T18:52:28.767494,1738292,1252,1812,223,-1287,-599,-412,-18,152,-176
0,2023-03-01T18:52:28.772348,1738297,1252,1812,223,-1287,-599,-412,-18,152,-176
0,2023-03-01T18:52:28.777218,1738302,1258,1811,231,-1289,-608,-412,-18,152,-176
0,2023-03-01T18:52:28.782991,1738308,1258,1811,231,-1289,-608,-412,-18,152,-176
0,2023-03-01T18:52:28.787835,1738312,1258,1811,231,-1289,-608,-412,-18,152,-176
0,2023-03-01T18:52:28.792759,1738317,1251,1811,230,-1287,-602,-407,-18,152,-176
0,2023-03-01T18:52:28.798349,1738323,1251,1811,230,-1287,-602,-407,-18,152,-176
0,2023-03-01T18:52:28.804198,1738329,1251,1811,230,-1287,-602,-407,-18,152,-176
0,2023-03-01T18:52:28.809075,1738334,1251,1811,230,-1287,-602,-407,-18,152,-176
0,2023-03-01T18:52:28.814001,1738339,1254,1813,234,-1295,-602,-409,-7,147,-177
0,2023-03-01T18:52:28.819441,1738344,1254,1813,234,-1295,-602,-409,-7,147,-177
0,2023-03-01T18:52:28.826068,1738351,1254,1813,234,-1295,-602,-409,-7,147,-177
0,2023-03-01T18:52:28.830909,1738355,1254,1813,234,-1295,-602,-409,-7,147,-177
0,2023-03-01T18:52:28.835967,1738360,1251,1811,232,-1295,-590,-415,-7,147,-177
0,2023-03-01T18:52:28.841636,1738366,1251,1811,232,-1295,-590,-415,-7,147,-177
0,2023-03-01T18:52:28.847093,1738372,1251,1811,232,-1295,-590,-415,-7,147,-177
0,2023-03-01T18:52:28.851694,1738377,1251,1811,232,-1295,-590,-415,-7,147,-177
0,2023-03-01T18:52:28.856547,1738381,1248,1807,234,-1290,-594,-405,-7,147,-177
0,2023-03-01T18:52:28.862411,1738387,1248,1807,234,-1290,-594,-405,-7,147,-177
0,2023-03-01T18:52:28.867728,1738392,1248,1807,234,-1290,-594,-405,-7,147,-177
0,2023-03-01T18:52:28.872634,1738397,1248,1807,234,-1290,-594,-405,-7,147,-177
0,2023-03-01T18:52:28.877763,1738402,1252,1810,226,-1297,-611,-408,-7,147,-177
0,2023-03-01T18:52:28.883966,1738408,1252,1810,226,-1297,-611,-408,-7,147,-177
0,2023-03-01T18:52:28.889132,1738414,1252,1810,226,-1297,-611,-408,-7,147,-177
0,2023-03-01T18:52:28.893906,1738419,1254,1809,234,-1288,-609,-404,-7,147,-177
0,2023-03-01T18:52:28.899555,1738424,1254,1809,234,-1288,-609,-404,-7,147,-177
0,2023-03-01T18:52:28.905767,1738430,1254,1809,234,-1288,-609,-404,-7,147,-177
0,2023-03-01T18:52:28.910751,1738435,1254,1809,234,-1288,-609,-404,-7,147,-177
0,2023-03-01T18:52:28.916097,1738440,1251,1810,236,-1291,-597,-413,-7,147,-177
0,2023-03-01T18:52:28.922070,1738446,1251,1810,236,-1291,-597,-413,-7,147,-177
0,2023-03-01T18:52:28.927539,1738452,1251,1810,236,-1291,-597,-413,-7,147,-177
0,2023-03-01T18:52:28.932573,1738457,1251,1810,236,-1291,-597,-413,-7,147,-177
0,2023-03-01T18:52:28.937499,1738462,1250,1808,231,-1289,-597,-412,-7,153,-169
0,2023-03-01T18:52:28.943662,1738468,1250,1808,231,-1289,-597,-412,-7,153,-169
0,2023-03-01T18:52:28.948559,1738473,1250,1808,231,-1289,-597,-412,-7,153,-169
0,2023-03-01T18:52:28.953789,1738478,1251,1811,236,-1295,-601,-410,-7,153,-169
0,2023-03-01T18:52:28.958958,1738483,1251,1811,236,-1295,-601,-410,-7,153,-169
0,2023-03-01T18:52:28.964963,1738489,1251,1811,236,-1295,-601,-410,-7,153,-169
0,2023-03-01T18:52:28.970528,1738496,1251,1811,236,-1295,-601,-410,-7,153,-169
0,2023-03-01T18:52:28.975055,1738500,1254,1811,238,-1288,-594,-407,-7,153,-169
0,2023-03-01T18:52:28.980926,1738506,1254,1811,238,-1288,-594,-407,-7,153,-169
0,2023-03-01T18:52:28.986762,1738512,1254,1811,238,-1288,-594,-407,-7,153,-169
0,2023-03-01T18:52:28.991795,1738516,1254,1811,238,-1288,-594,-407,-7,153,-169
0,2023-03-01T18:52:28.996619,1738521,1246,1812,239,-1292,-600,-407,-7,153,-169
0,2023-03-01T18:52:29.002444,1738527,1246,1812,239,-1292,-600,-407,-7,153,-169
0,2023-03-01T18:52:29.009599,1738533,1246,1812,239,-1292,-600,-407,-7,153,-169
0,2023-03-01T18:52:29.015455,1738541,1248,1810,244,-1299,-602,-404,-7,153,-169
0,2023-03-01T18:52:29.020918,1738546,1248,1810,244,-1299,-602,-404,-7,153,-169
0,2023-03-01T18:52:29.026590,1738551,1248,1810,244,-1299,-602,-404,-7,153,-169
0,2023-03-01T18:52:29.031332,1738556,1248,1810,244,-1299,-602,-404,-7,153,-169
0,2023-03-01T18:52:29.035984,1738561,1248,1808,242,-1292,-599,-417,-7,153,-169
0,2023-03-01T18:52:29.042144,1738566,1248,1808,242,-1292,-599,-417,-7,153,-169
0,2023-03-01T18:52:29.047884,1738572,1248,1808,242,-1292,-599,-417,-7,153,-169
0,2023-03-01T18:52:29.053255,1738577,1248,1808,242,-1292,-599,-417,-7,153,-169
0,2023-03-01T18:52:29.057898,1738583,1251,1814,248,-1287,-595,-415,-7,153,-169
0,2023-03-01T18:52:29.063694,1738589,1251,1814,248,-1287,-595,-415,-7,153,-169
0,2023-03-01T18:52:29.068575,1738593,1251,1814,248,-1287,-595,-415,-7,153,-169
0,2023-03-01T18:52:29.073366,1738598,1246,1809,244,-1279,-591,-414,-17,149,-177
0,2023-03-01T18:52:29.078509,1738603,1246,1809,244,-1279,-591,-414,-17,149,-177
0,2023-03-01T18:52:29.083562,1738608,1246,1809,244,-1279,-591,-414,-17,149,-177
0,2023-03-01T18:52:29.088446,1738613,1246,1809,244,-1279,-591,-414,-17,149,-177
0,2023-03-01T18:52:29.093657,1738618,1248,1809,247,-1280,-589,-413,-17,149,-177
0,2023-03-01T18:52:29.098905,1738624,1248,1809,247,-1280,-589,-413,-17,149,-177
0,2023-03-01T18:52:29.103926,1738629,1248,1809,247,-1280,-589,-413,-17,149,-177
0,2023-03-01T18:52:29.109343,1738634,1248,1809,247,-1280,-589,-413,-17,149,-177
0,2023-03-01T18:52:29.113944,1738639,1247,1803,243,-1301,-597,-404,-17,149,-177
0,2023-03-01T18:52:29.119548,1738644,1247,1803,243,-1301,-597,-404,-17,149,-177
0,2023-03-01T18:52:29.126352,1738651,1247,1803,243,-1301,-597,-404,-17,149,-177
0,2023-03-01T18:52:29.131087,1738656,1247,1803,243,-1301,-597,-404,-17,149,-177
0,2023-03-01T18:52:29.136206,1738660,1246,1807,251,-1285,-589,-424,-17,149,-177
0,2023-03-01T18:52:29.142430,1738667,1246,1807,251,-1285,-589,-424,-17,149,-177
0,2023-03-01T18:52:29.148257,1738673,1246,1807,251,-1285,-589,-424,-17,149,-177
0,2023-03-01T18:52:29.153002,1738678,1246,1803,249,-1281,-597,-417,-17,149,-177
0,2023-03-01T18:52:29.158545,1738683,1246,1803,249,-1281,-597,-417,-17,149,-177
0,2023-03-01T18:52:29.163961,1738689,1246,1803,249,-1281,-597,-417,-17,149,-177
0,2023-03-01T18:52:29.169103,1738694,1246,1803,249,-1281,-597,-417,-17,149,-177
0,2023-03-01T18:52:29.174076,1738698,1248,1806,241,-1301,-591,-414,-17,149,-177
0,2023-03-01T18:52:29.179894,1738704,1248,1806,241,-1301,-591,-414,-17,149,-177
0,2023-03-01T18:52:29.185828,1738711,1248,1806,241,-1301,-591,-414,-17,149,-177
0,2023-03-01T18:52:29.190729,1738716,1248,1806,241,-1301,-591,-414,-17,149,-177
0,2023-03-01T18:52:29.195187,1738720,1248,1812,249,-1290,-590,-410,-11,149,-175
0,2023-03-01T18:52:29.200600,1738725,1248,1812,249,-1290,-590,-410,-11,149,-175
0,2023-03-01T18:52:29.206070,1738731,1248,1812,249,-1290,-590,-410,-11,149,-175
0,2023-03-01T18:52:29.211071,1738735,1248,1812,249,-1290,-590,-410,-11,149,-175
0,2023-03-01T18:52:29.215881,1738740,1249,1808,255,-1290,-591,-411,-11,149,-175
0,2023-03-01T18:52:29.221268,1738746,1249,1808,255,-1290,-591,-411,-11,149,-175
0,2023-03-01T18:52:29.225886,1738750,1249,1808,255,-1290,-591,-411,-11,149,-175
0,2023-03-01T18:52:29.232621,1738758,1249,1808,255,-1290,-591,-411,-11,149,-175
0,2023-03-01T18:52:29.237479,1738762,1245,1807,246,-1291,-604,-421,-11,149,-175
0,2023-03-01T18:52:29.243639,1738768,1245,1807,246,-1291,-604,-421,-11,149,-175
0,2023-03-01T18:52:29.248941,1738774,1245,1807,246,-1291,-604,-421,-11,149,-175
0,2023-03-01T18:52:29.253966,1738778,1249,1809,253,-1284,-591,-414,-11,149,-175
0,2023-03-01T18:52:29.259304,1738784,1249,1809,253,-1284,-591,-414,-11,149,-175
0,2023-03-01T18:52:29.264588,1738789,1249,1809,253,-1284,-591,-414,-11,149,-175
0,2023-03-01T18:52:29.269870,1738795,1249,1809,253,-1284,-591,-414,-11,149,-175
0,2023-03-01T18:52:29.274700,1738800,1247,1809,247,-1290,-598,-407,-11,149,-175
0,2023-03-01T18:52:29.280212,1738805,1247,1809,247,-1290,-598,-407,-11,149,-175
0,2023-03-01T18:52:29.285338,1738810,1247,1809,247,-1290,-598,-407,-11,149,-175
0,2023-03-01T18:52:29.290472,1738815,1247,1809,247,-1290,-598,-407,-11,149,-175
0,2023-03-01T18:52:29.295310,1738820,1247,1808,255,-1290,-597,-412,-11,149,-175
0,2023-03-01T18:52:29.300711,1738825,1247,1808,255,-1290,-597,-412,-11,149,-175
0,2023-03-01T18:52:29.306621,1738831,1247,1808,255,-1290,-597,-412,-11,149,-175
0,2023-03-01T18:52:29.311533,1738836,1247,1808,255,-1290,-597,-412,-11,149,-175
0,2023-03-01T18:52:29.316846,1738842,1244,1807,257,-1289,-591,-410,-11,149,-175
0,2023-03-01T18:52:29.323059,1738848,1244,1807,257,-1289,-591,-410,-11,149,-175
0,2023-03-01T18:52:29.328461,1738853,1244,1807,257,-1289,-591,-410,-11,149,-175
0,2023-03-01T18:52:29.333421,1738858,1241,1803,258,-1294,-599,-407,-11,149,-175
0,2023-03-01T18:52:29.339566,1738863,1241,1803,258,-1294,-599,-407,-12,150,-182
0,2023-03-01T18:52:29.346032,1738870,1241,1803,258,-1294,-599,-407,-12,150,-182
0,2023-03-01T18:52:29.351444,1738876,1241,1803,258,-1294,-599,-407,-12,150,-182
0,2023-03-01T18:52:29.356145,1738881,1243,1809,257,-1291,-594,-409,-12,150,-182
0,2023-03-01T18:52:29.362035,1738887,1243,1809,257,-1291,-594,-409,-12,150,-182
0,2023-03-01T18:52:29.367280,1738892,1243,1809,257,-1291,-594,-409,-12,150,-182
0,2023-03-01T18:52:29.372803,1738897,1243,1809,257,-1291,-594,-409,-12,150,-182
0,2023-03-01T18:52:29.378097,1738902,1243,1809,257,-1291,-594,-409,-12,150,-182
0,2023-03-01T18:52:29.383737,1738908,1243,1809,257,-1291,-594,-409,-12,150,-182
0,2023-03-01T18:52:29.389121,1738913,1243,1809,257,-1291,-594,-409,-12,150,-182
0,2023-03-01T18:52:29.394120,1738918,1243,1807,255,-1292,-597,-412,-12,150,-182
0,2023-03-01T18:52:29.399743,1738925,1243,1807,255,-1292,-597,-412,-12,150,-182
0,2023-03-01T18:52:29.405994,1738931,1243,1807,255,-1292,-597,-412,-12,150,-182
0,2023-03-01T18:52:29.411080,1738936,1243,1807,255,-1292,-597,-412,-12,150,-182
0,2023-03-01T18:52:29.417041,1738941,1246,1805,259,-1287,-587,-410,-12,150,-182
0,2023-03-01T18:52:29.423087,1738948,1246,1805,259,-1287,-587,-410,-12,150,-182
0,2023-03-01T18:52:29.428800,1738953,1246,1805,259,-1287,-587,-410,-12,150,-182
0,2023-03-01T18:52:29.433573,1738958,1241,1806,264,-1297,-597,-413,-12,150,-182
0,2023-03-01T18:52:29.438733,1738963,1241,1806,264,-1297,-597,-413,-12,150,-182
0,2023-03-01T18:52:29.444357,1738969,1241,1806,264,-1297,-597,-413,-12,150,-182
0,2023-03-01T18:52:29.451249,1738976,1241,1806,264,-1297,-597,-413,-12,150,-182
0,2023-03-01T18:52:29.456175,1738981,1244,1805,267,-1278,-600,-414,-12,146,-170
0,2023-03-01T18:52:29.462367,1738987,1244,1805,267,-1278,-600,-414,-12,146,-170
0,2023-03-01T18:52:29.467064,1738992,1244,1805,267,-1278,-600,-414,-12,146,-170
0,2023-03-01T18:52:29.471820,1738996,1244,1805,267,-1278,-600,-414,-12,146,-170
0,2023-03-01T18:52:29.476985,1739001,1244,1805,267,-1278,-600,-414,-12,146,-170
0,2023-03-01T18:52:29.481749,1739006,1244,1805,267,-1278,-600,-414,-12,146,-170
0,2023-03-01T18:52:29.487353,1739012,1244,1805,267,-1278,-600,-414,-12,146,-170
0,2023-03-01T18:52:29.492570,1739018,1244,1805,267,-1278,-600,-414,-12,146,-170
0,2023-03-01T18:52:29.497349,1739022,1245,1807,261,-1288,-602,-412,-12,146,-170
0,2023-03-01T18:52:29.503417,1739028,1245,1807,261,-1288,-602,-412,-12,146,-170
0,2023-03-01T18:52:29.508456,1739033,1245,1807,261,-1288,-602,-412,-12,146,-170
0,2023-03-01T18:52:29.513544,1739038,1245,1807,261,-1288,-602,-412,-12,146,-170
0,2023-03-01T18:52:29.518439,1739043,1242,1804,268,-1281,-597,-414,-12,146,-170
0,2023-03-01T18:52:29.524126,1739049,1242,1804,268,-1281,-597,-414,-12,146,-170
0,2023-03-01T18:52:29.529414,1739054,1242,1804,268,-1281,-597,-414,-12,146,-170
0,2023-03-01T18:52:29.534586,1739060,1244,1806,267,-1285,-604,-415,-12,146,-170
0,2023-03-01T18:52:29.540725,1739065,1244,1806,267,-1285,-604,-415,-12,146,-170
0,2023-03-01T18:52:29.547234,1739072,1244,1806,267,-1285,-604,-415,-12,146,-170
0,2023-03-01T18:52:29.552602,1739077,1244,1806,267,-1285,-604,-415,-12,146,-170
0,2023-03-01T18:52:29.558162,1739082,1242,1803,269,-1275,-601,-408,-12,146,-170
0,2023-03-01T18:52:29.564357,1739088,1242,1803,269,-1275,-601,-408,-12,146,-170
0,2023-03-01T18:52:29.570046,1739095,1242,1803,269,-1275,-601,-408,-12,146,-170
0,2023-03-01T18:52:29.574659,1739100,1240,1803,261,-1287,-597,-414,-12,146,-170
0,2023-03-01T18:52:29.580224,1739105,1240,1803,261,-1287,-597,-414,-12,146,-170
0,2023-03-01T18:52:29.586464,1739111,1240,1803,261,-1287,-597,-414,-12,146,-170
0,2023-03-01T18:52:29.591840,1739116,1240,1803,261,-1287,-597,-414,-12,146,-170
0,2023-03-01T18:52:29.597106,1739121,1237,1803,271,-1304,-593,-408,-12,146,-170
0,2023-03-01T18:52:29.603233,1739128,1237,1803,271,-1304,-593,-408,-12,146,-170
0,2023-03-01T18:52:29.608569,1739133,1237,1803,271,-1304,-593,-408,-12,146,-170
0,2023-03-01T18:52:29.613575,1739139,1237,1803,271,-1304,-593,-408,-12,146,-170
0,2023-03-01T18:52:29.618350,1739143,1239,1804,274,-1288,-599,-412,-12,146,-170
0,2023-03-01T18:52:29.624376,1739149,1239,1804,274,-1288,-599,-412,-12,146,-170
0,2023-03-01T18:52:29.629427,1739154,1239,1804,274,-1288,-599,-412,-12,146,-170
0,2023-03-01T18:52:29.634407,1739159,1238,1801,273,-1283,-597,-406,-12,146,-170
0,2023-03-01T18:52:29.639793,1739164,1238,1801,273,-1283,-597,-406,-12,146,-170
0,2023-03-01T18:52:29.645219,1739170,1238,1801,273,-1283,-597,-406,-12,146,-170
0,2023-03-01T18:52:29.649891,1739174,1238,1801,273,-1283,-597,-406,-12,146,-170
0,2023-03-01T18:52:29.654547,1739180,1244,1800,276,-1284,-590,-411,-12,146,-170
0,2023-03-01T18:52:29.660866,1739185,1244,1800,276,-1284,-590,-411,-12,146,-170
0,2023-03-01T18:52:29.666241,1739191,1244,1800,276,-1284,-590,-411,-12,146,-170
0,2023-03-01T18:52:29.671385,1739196,1244,1800,276,-1284,-590,-411,-12,146,-170
0,2023-03-01T18:52:29.676810,1739201,1236,1798,273,-1281,-602,-416,-12,146,-170
0,2023-03-01T18:52:29.683394,1739208,1236,1798,273,-1281,-602,-416,-12,146,-170
0,2023-03-01T18:52:29.688557,1739213,1236,1798,273,-1281,-602,-416,-12,146,-170
0,2023-03-01T18:52:29.693070,1739218,1236,1798,273,-1281,-602,-416,-12,146,-170
0,2023-03-01T18:52:29.698163,1739223,1240,1802,271,-1282,-605,-421,-12,146,-170
0,2023-03-01T18:52:29.704120,1739229,1240,1802,271,-1282,-605,-421,-12,146,-170
0,2023-03-01T18:52:29.709502,1739234,1240,1802,271,-1282,-605,-421,-12,146,-170
0,2023-03-01T18:52:29.714414,1739239,1234,1803,283,-1291,-608,-415,-13,151,-181
0,2023-03-01T18:52:29.719686,1739244,1234,1803,283,-1291,-608,-415,-13,151,-181
0,2023-03-01T18:52:29.724923,1739249,1234,1803,283,-1291,-608,-415,-13,151,-181
0,2023-03-01T18:52:29.729561,1739254,1234,1803,283,-1291,-608,-415,-13,151,-181
0,2023-03-01T18:52:29.734619,1739259,1241,1800,277,-1297,-608,-414,-13,151,-181
0,2023-03-01T18:52:29.739462,1739265,1241,1800,277,-1297,-608,-414,-13,151,-181
0,2023-03-01T18:52:29.744799,1739270,1241,1800,277,-1297,-608,-414,-13,151,-181
0,2023-03-01T18:52:29.749612,1739275,1241,1800,277,-1297,-608,-414,-13,151,-181
0,2023-03-01T18:52:29.754950,1739280,1240,1804,280,-1288,-591,-408,-13,151,-181
0,2023-03-01T18:52:29.760511,1739285,1240,1804,280,-1288,-591,-408,-13,151,-181
0,2023-03-01T18:52:29.766540,1739291,1240,1804,280,-1288,-591,-408,-13,151,-181
0,2023-03-01T18:52:29.771777,1739296,1240,1804,280,-1288,-591,-408,-13,151,-181
0,2023-03-01T18:52:29.777438,1739301,1239,1801,280,-1279,-608,-415,-13,151,-181
0,2023-03-01T18:52:29.783357,1739308,1239,1801,280,-1279,-608,-415,-13,151,-181
0,2023-03-01T18:52:29.788746,1739314,1239,1801,280,-1279,-608,-415,-13,151,-181
0,2023-03-01T18:52:29.793634,1739319,1239,1801,280,-1279,-608,-415,-13,151,-181
0,2023-03-01T18:52:29.798269,1739323,1235,1804,271,-1279,-598,-421,-13,151,-181
0,2023-03-01T18:52:29.804217,1739329,1235,1804,271,-1279,-598,-421,-13,151,-181
0,2023-03-01T18:52:29.809225,1739334,1235,1804,271,-1279,-598,-421,-13,151,-181
0,2023-03-01T18:52:29.814229,1739339,1241,1802,286,-1270,-595,-412,-13,151,-181
0,2023-03-01T18:52:29.819624,1739344,1241,1802,286,-1270,-595,-412,-13,151,-181
0,2023-03-01T18:52:29.825290,1739350,1241,1802,286,-1270,-595,-412,-13,151,-181
0,2023-03-01T18:52:29.830872,1739356,1241,1802,286,-1270,-595,-412,-13,151,-181
0,2023-03-01T18:52:29.836022,1739361,1235,1806,281,-1284,-595,-412,-13,149,-171
0,2023-03-01T18:52:29.842160,1739367,1235,1806,281,-1284,-595,-412,-13,149,-171
0,2023-03-01T18:52:29.847555,1739372,1235,1806,281,-1284,-595,-412,-13,149,-171
0,2023-03-01T18:52:29.852549,1739377,1235,1806,281,-1284,-595,-412,-13,149,-171
0,2023-03-01T18:52:29.857405,1739382,1237,1802,286,-1287,-602,-416,-13,149,-171
0,2023-03-01T18:52:29.863593,1739387,1237,1802,286,-1287,-602,-416,-13,149,-171
0,2023-03-01T18:52:29.868841,1739394,1237,1802,286,-1287,-602,-416,-13,149,-171
0,2023-03-01T18:52:29.873691,1739399,1237,1802,286,-1287,-602,-416,-13,149,-171
0,2023-03-01T18:52:29.878407,1739403,1234,1803,285,-1300,-602,-417,-13,149,-171
0,2023-03-01T18:52:29.886268,1739411,1234,1803,285,-1300,-602,-417,-13,149,-171
0,2023-03-01T18:52:29.891069,1739416,1234,1803,285,-1300,-602,-417,-13,149,-171
0,2023-03-01T18:52:29.895768,1739420,1235,1799,286,-1288,-599,-412,-13,149,-171
0,2023-03-01T18:52:29.901786,1739426,1235,1799,286,-1288,-599,-412,-13,149,-171
0,2023-03-01T18:52:29.907422,1739432,1235,1799,286,-1288,-599,-412,-13,149,-171
0,2023-03-01T18:52:29.912165,1739437,1235,1799,286,-1288,-599,-412,-13,149,-171
0,2023-03-01T18:52:29.917008,1739442,1236,1800,287,-1292,-591,-416,-13,149,-171
0,2023-03-01T18:52:29.922775,1739448,1236,1800,287,-1292,-591,-416,-13,149,-171
0,2023-03-01T18:52:29.928538,1739453,1236,1800,287,-1292,-591,-416,-13,149,-171
0,2023-03-01T18:52:29.933419,1739458,1236,1800,287,-1292,-591,-416,-13,149,-171
0,2023-03-01T18:52:29.938415,1739463,1235,1800,284,-1277,-592,-416,-13,149,-171
0,2023-03-01T18:52:29.944398,1739469,1235,1800,284,-1277,-592,-416,-13,149,-171
0,2023-03-01T18:52:29.949492,1739474,1235,1800,284,-1277,-592,-416,-13,149,-171
0,2023-03-01T18:52:29.954513,1739480,1234,1802,291,-1281,-586,-413,-13,149,-171
0,2023-03-01T18:52:29.959944,1739485,1234,1802,291,-1281,-586,-413,-13,149,-171
0,2023-03-01T18:52:29.965534,1739490,1234,1802,291,-1281,-586,-413,-13,149,-171
0,2023-03-01T18:52:29.970722,1739495,1234,1802,291,-1281,-586,-413,-13,149,-171
0,2023-03-01T18:52:29.975380,1739500,1235,1801,295,-1280,-594,-414,-12,150,-178
0,2023-03-01T18:52:29.980874,1739505,1235,1801,295,-1280,-594,-414,-12,150,-178
0,2023-03-01T18:52:29.987548,1739512,1235,1801,295,-1280,-594,-414,-12,150,-178
0,2023-03-01T18:52:29.992539,1739517,1235,1801,295,-1280,-594,-414,-12,150,-178
0,2023-03-01T18:52:29.997468,1739523,1231,1799,295,-1278,-606,-420,-12,150,-178
0,2023-03-01T18:52:30.003283,1739528,1231,1799,295,-1278,-606,-420,-12,150,-178
0,2023-03-01T18:52:30.008680,1739534,1231,1799,295,-1278,-606,-420,-12,150,-178
0,2023-03-01T18:52:30.013965,1739539,1231,1799,295,-1278,-606,-420,-12,150,-178
0,2023-03-01T18:52:30.018975,1739543,1233,1803,291,-1286,-606,-416,-12,150,-178
0,2023-03-01T18:52:30.025658,1739550,1233,1803,291,-1286,-606,-416,-12,150,-178
0,2023-03-01T18:52:30.030822,1739555,1233,1803,291,-1286,-606,-416,-12,150,-178
0,2023-03-01T18:52:30.035709,1739560,1233,1800,291,-1283,-598,-416,-12,150,-178
0,2023-03-01T18:52:30.041203,1739566,1233,1800,291,-1283,-598,-416,-12,150,-178
0,2023-03-01T18:52:30.047392,1739572,1233,1800,291,-1283,-598,-416,-12,150,-178
0,2023-03-01T18:52:30.052752,1739578,1233,1800,291,-1283,-598,-416,-12,150,-178
0,2023-03-01T18:52:30.058228,1739583,1231,1800,292,-1276,-594,-419,-12,150,-178
0,2023-03-01T18:52:30.064460,1739589,1231,1800,292,-1276,-594,-419,-12,150,-178
0,2023-03-01T18:52:30.069682,1739594,1231,1800,292,-1276,-594,-419,-12,150,-178
0,2023-03-01T18:52:30.074886,1739599,1229,1795,287,-1283,-596,-409,-12,150,-178
0,2023-03-01T18:52:30.080620,1739606,1229,1795,287,-1283,-596,-409,-12,150,-178
0,2023-03-01T18:52:30.087191,1739612,1229,1795,287,-1283,-596,-409,-12,150,-178
0,2023-03-01T18:52:30.092011,1739617,1229,1795,287,-1283,-596,-409,-12,150,-178
0,2023-03-01T18:52:30.097345,1739622,1231,1801,300,-1279,-599,-423,-15,153,-175
0,2023-03-01T18:52:30.105873,1739630,1231,1801,300,-1279,-599,-423,-15,153,-175
0,2023-03-01T18:52:30.110731,1739635,1231,1801,300,-1279,-599,-423,-15,153,-175
0,2023-03-01T18:52:30.115688,1739640,1229,1794,297,-1279,-598,-412,-15,153,-175
0,2023-03-01T18:52:30.121347,1739645,1229,1794,297,-1279,-598,-412,-15,153,-175
0,2023-03-01T18:52:30.127457,1739653,1229,1794,297,-1279,-598,-412,-15,153,-175
0,2023-03-01T18:52:30.133040,1739657,1229,1794,297,-1279,-598,-412,-15,153,-175
0,2023-03-01T18:52:30.137921,1739663,1235,1794,304,-1276,-594,-419,-15,153,-175
0,2023-03-01T18:52:30.143401,1739668,1235,1794,304,-1276,-594,-419,-15,153,-175
0,2023-03-01T18:52:30.148557,1739673,1235,1794,304,-1276,-594,-419,-15,153,-175
0,2023-03-01T18:52:30.153649,1739678,1235,1794,304,-1276,-594,-419,-15,153,-175
0,2023-03-01T18:52:30.158533,1739683,1229,1792,304,-1277,-610,-411,-15,153,-175
0,2023-03-01T18:52:30.164057,1739688,1229,1792,304,-1277,-610,-411,-15,153,-175
0,2023-03-01T18:52:30.169661,1739695,1229,1792,304,-1277,-610,-411,-15,153,-175
0,2023-03-01T18:52:30.174417,1739699,1229,1797,293,-1290,-606,-417,-15,153,-175
0,2023-03-01T18:52:30.180037,1739705,1229,1797,293,-1290,-606,-417,-15,153,-175
0,2023-03-01T18:52:30.185880,1739710,1229,1797,293,-1290,-606,-417,-15,153,-175
0,2023-03-01T18:52:30.190663,1739715,1229,1797,293,-1290,-606,-417,-15,153,-175
0,2023-03-01T18:52:30.195602,1739720,1230,1795,306,-1284,-599,-408,-15,153,-175
0,2023-03-01T18:52:30.201243,1739726,1230,1795,306,-1284,-599,-408,-15,153,-175
0,2023-03-01T18:52:30.207082,1739731,1230,1795,306,-1284,-599,-408,-15,153,-175
0,2023-03-01T18:52:30.212210,1739737,1230,1795,306,-1284,-599,-408,-15,153,-175
0,2023-03-01T18:52:30.217266,1739742,1233,1798,304,-1290,-598,-418,-15,153,-175
0,2023-03-01T18:52:30.223433,1739748,1233,1798,304,-1290,-598,-418,-15,153,-175
0,2023-03-01T18:52:30.229130,1739754,1233,1798,304,-1290,-598,-418,-15,153,-175
0,2023-03-01T18:52:30.234059,1739758,1233,1798,304,-1290,-598,-418,-15,153,-175
0,2023-03-01T18:52:30.239311,1739764,1227,1797,302,-1284,-599,-405,-15,149,-171
0,2023-03-01T18:52:30.245122,1739769,1227,1797,302,-1284,-599,-405,-15,149,-171
0,2023-03-01T18:52:30.250920,1739776,1227,1797,302,-1284,-599,-405,-15,149,-171
0,2023-03-01T18:52:30.255881,1739781,1231,1798,312,-1292,-585,-421,-15,149,-171
0,2023-03-01T18:52:30.262213,1739787,1231,1798,312,-1292,-585,-421,-15,149,-171
0,2023-03-01T18:52:30.267933,1739793,1231,1798,312,-1292,-585,-421,-15,149,-171
0,2023-03-01T18:52:30.272746,1739797,1231,1798,312,-1292,-585,-421,-15,149,-171
0,2023-03-01T18:52:30.278252,1739803,1228,1795,303,-1279,-602,-418,-15,149,-171
0,2023-03-01T18:52:30.284308,1739809,1228,1795,303,-1279,-602,-418,-15,149,-171
0,2023-03-01T18:52:30.289351,1739813,1228,1795,303,-1279,-602,-418,-15,149,-171
0,2023-03-01T18:52:30.294369,1739820,1228,1795,303,-1279,-602,-418,-15,149,-171
0,2023-03-01T18:52:30.299798,1739825,1231,1798,307,-1271,-599,-419,-15,149,-171
0,2023-03-01T18:52:30.305588,1739831,1231,1798,307,-1271,-599,-419,-15,149,-171
0,2023-03-01T18:52:30.310245,1739835,1231,1798,307,-1271,-599,-419,-15,149,-171
0,2023-03-01T18:52:30.314901,1739840,1226,1800,305,-1284,-601,-411,-15,149,-171
0,2023-03-01T18:52:30.320552,1739845,1226,1800,305,-1284,-601,-411,-15,149,-171
0,2023-03-01T18:52:30.326313,1739851,1226,1800,305,-1284,-601,-411,-15,149,-171
0,2023-03-01T18:52:30.331421,1739856,1226,1800,305,-1284,-601,-411,-15,149,-171
0,2023-03-01T18:52:30.336554,1739862,1231,1792,303,-1278,-607,-420,-15,149,-171
0,2023-03-01T18:52:30.342554,1739868,1231,1792,303,-1278,-607,-420,-15,149,-171
0,2023-03-01T18:52:30.348132,1739873,1231,1792,303,-1278,-607,-420,-15,149,-171
0,2023-03-01T18:52:30.353108,1739878,1231,1792,303,-1278,-607,-420,-15,149,-171
0,2023-03-01T18:52:30.358076,1739883,1229,1799,315,-1293,-616,-424,-17,153,-167
0,2023-03-01T18:52:30.364359,1739889,1229,1799,315,-1293,-616,-424,-17,153,-167
0,2023-03-01T18:52:30.369660,1739894,1229,1799,315,-1293,-616,-424,-17,153,-167
0,2023-03-01T18:52:30.374539,1739899,1229,1799,315,-1293,-616,-424,-17,153,-167
0,2023-03-01T18:52:30.379528,1739905,1225,1791,308,-1283,-602,-413,-17,153,-167
0,2023-03-01T18:52:30.385709,1739911,1225,1791,308,-1283,-602,-413,-17,153,-167
0,2023-03-01T18:52:30.391445,1739916,1225,1791,308,-1283,-602,-413,-17,153,-167
0,2023-03-01T18:52:30.396139,1739921,1225,1798,308,-1288,-605,-424,-17,153,-167
0,2023-03-01T18:52:30.402099,1739927,1225,1798,308,-1288,-605,-424,-17,153,-167
0,2023-03-01T18:52:30.406820,1739931,1225,1798,308,-1288,-605,-424,-17,153,-167
0,2023-03-01T18:52:30.411571,1739936,1225,1798,308,-1288,-605,-424,-17,153,-167
0,2023-03-01T18:52:30.416268,1739941,1226,1796,312,-1289,-610,-418,-17,153,-167
0,2023-03-01T18:52:30.422247,1739947,1226,1796,312,-1289,-610,-418,-17,153,-167
0,2023-03-01T18:52:30.427068,1739952,1226,1796,312,-1289,-610,-418,-17,153,-167
0,2023-03-01T18:52:30.431691,1739957,1226,1796,312,-1289,-610,-418,-17,153,-167
0,2023-03-01T18:52:30.437186,1739962,1223,1794,308,-1292,-609,-427,-17,153,-167
0,2023-03-01T18:52:30.443246,1739968,1223,1794,308,-1292,-609,-427,-17,153,-167
0,2023-03-01T18:52:30.448589,1739973,1223,1794,308,-1292,-609,-427,-17,153,-167
0,2023-03-01T18:52:30.453434,1739978,1223,1794,308,-1292,-609,-427,-17,153,-167
0,2023-03-01T18:52:30.458236,1739983,1228,1800,311,-1293,-605,-424,-17,153,-167
0,2023-03-01T18:52:30.464274,1739988,1228,1800,311,-1293,-605,-424,-17,153,-167
0,2023-03-01T18:52:30.469823,1739995,1228,1800,311,-1293,-605,-424,-17,153,-167
0,2023-03-01T18:52:30.474614,1739999,1228,1800,311,-1293,-605,-424,-17,153,-167
0,2023-03-01T18:52:30.479465,1740004,1222,1795,316,-1294,-609,-421,-6,148,-178
0,2023-03-01T18:52:30.485580,1740010,1222,1795,316,-1294,-609,-421,-6,148,-178
0,2023-03-01T18:52:30.490499,1740015,1222,1795,316,-1294,-609,-421,-6,148,-178
0,2023-03-01T18:52:30.495396,1740020,1226,1795,322,-1293,-610,-422,-6,148,-178
0,2023-03-01T18:52:30.501184,1740025,1226,1795,322,-1293,-610,-422,-6,148,-178
0,2023-03-01T18:52:30.508032,1740033,1226,1795,322,-1293,-610,-422,-6,148,-178
0,2023-03-01T18:52:30.513067,1740038,1226,1795,322,-1293,-610,-422,-6,148,-178
0,2023-03-01T18:52:30.517920,1740043,1222,1794,310,-1291,-615,-419,-6,148,-178
0,2023-03-01T18:52:30.523887,1740048,1222,1794,310,-1291,-615,-419,-6,148,-178
0,2023-03-01T18:52:30.528545,1740053,1222,1794,310,-1291,-615,-419,-6,148,-178
0,2023-03-01T18:52:30.533339,1740058,1222,1794,310,-1291,-615,-419,-6,148,-178
0,2023-03-01T18:52:30.538406,1740063,1224,1797,313,-1291,-599,-419,-6,148,-178
0,2023-03-01T18:52:30.544750,1740069,1224,1797,313,-1291,-599,-419,-6,148,-178
0,2023-03-01T18:52:30.549742,1740075,1224,1797,313,-1291,-599,-419,-6,148,-178
0,2023-03-01T18:52:30.554720,1740080,1224,1797,313,-1291,-599,-419,-6,148,-178
0,2023-03-01T18:52:30.560108,1740085,1226,1794,319,-1286,-603,-424,-6,148,-178
0,2023-03-01T18:52:30.566205,1740091,1226,1794,319,-1286,-603,-424,-6,148,-178
0,2023-03-01T18:52:30.571228,1740096,1226,1794,319,-1286,-603,-424,-6,148,-178
0,2023-03-01T18:52:30.576461,1740101,1223,1795,325,-1275,-600,-433,-6,148,-178
0,2023-03-01T18:52:30.583064,1740107,1223,1795,325,-1275,-600,-433,-6,148,-178
0,2023-03-01T18:52:30.588603,1740113,1223,1795,325,-1275,-600,-433,-6,148,-178
0,2023-03-01T18:52:30.593560,1740119,1223,1795,325,-1275,-600,-433,-6,148,-178
0,2023-03-01T18:52:30.598370,1740123,1222,1795,316,-1274,-604,-411,-6,148,-178
0,2023-03-01T18:52:30.604746,1740129,1222,1795,316,-1274,-604,-411,-6,148,-178
0,2023-03-01T18:52:30.610613,1740135,1222,1795,316,-1274,-604,-411,-6,148,-178
0,2023-03-01T18:52:30.616634,1740141,1222,1793,332,-1275,-613,-416,-12,156,-162
0,2023-03-01T18:52:30.622685,1740147,1222,1793,332,-1275,-613,-416,-12,156,-162
0,2023-03-01T18:52:30.627951,1740152,1222,1793,332,-1275,-613,-416,-12,156,-162
0,2023-03-01T18:52:30.632867,1740157,1222,1793,332,-1275,-613,-416,-12,156,-162
0,2023-03-01T18:52:30.637642,1740163,1224,1794,319,-1286,-617,-416,-12,156,-162
0,2023-03-01T18:52:30.643374,1740168,1224,1794,319,-1286,-617,-416,-12,156,-162
0,2023-03-01T18:52:30.648188,1740173,1224,1794,319,-1286,-617,-416,-12,156,-162
0,2023-03-01T18:52:30.653294,1740178,1224,1794,319,-1286,-617,-416,-12,156,-162
0,2023-03-01T18:52:30.658398,1740183,1223,1791,325,-1278,-611,-418,-12,156,-162
0,2023-03-01T18:52:30.664387,1740189,1223,1791,325,-1278,-611,-418,-12,156,-162
0,2023-03-01T18:52:30.669506,1740194,1223,1791,325,-1278,-611,-418,-12,156,-162
0,2023-03-01T18:52:30.674447,1740199,1223,1791,325,-1278,-611,-418,-12,156,-162
0,2023-03-01T18:52:30.679395,1740204,1223,1791,325,-1278,-611,-418,-12,156,-162
0,2023-03-01T18:52:30.684161,1740209,1223,1791,325,-1278,-611,-418,-12,156,-162
0,2023-03-01T18:52:30.689722,1740215,1223,1791,325,-1278,-611,-418,-12,156,-162
0,2023-03-01T18:52:30.694489,1740219,1223,1791,325,-1278,-611,-418,-12,156,-162
0,2023-03-01T18:52:30.699313,1740224,1221,1793,331,-1284,-615,-422,-12,156,-162
0,2023-03-01T18:52:30.705023,1740230,1221,1793,331,-1284,-615,-422,-12,156,-162
0,2023-03-01T18:52:30.710430,1740235,1221,1793,331,-1284,-615,-422,-12,156,-162
0,2023-03-01T18:52:30.715251,1740240,1219,1791,323,-1280,-595,-422,-12,156,-162
0,2023-03-01T18:52:30.721007,1740246,1219,1791,323,-1280,-595,-422,-12,156,-162
0,2023-03-01T18:52:30.727205,1740252,1219,1791,323,-1280,-595,-422,-12,156,-162
0,2023-03-01T18:52:30.732041,1740257,1219,1791,323,-1280,-595,-422,-12,156,-162
0,2023-03-01T18:52:30.736820,1740262,1224,1793,326,-1277,-607,-421,-4,154,-166
0,2023-03-01T18:52:30.742893,1740267,1224,1793,326,-1277,-607,-421,-4,154,-166
0,2023-03-01T18:52:30.748801,1740273,1224,1793,326,-1277,-607,-421,-4,154,-166
0,2023-03-01T18:52:30.753558,1740278,1224,1793,326,-1277,-607,-421,-4,154,-166
0,2023-03-01T18:52:30.758314,1740283,1221,1795,328,-1280,-606,-430,-4,154,-166
0,2023-03-01T18:52:30.764577,1740290,1221,1795,328,-1280,-606,-430,-4,154,-166
0,2023-03-01T18:52:30.769632,1740294,1221,1795,328,-1280,-606,-430,-4,154,-166
0,2023-03-01T18:52:30.774688,1740300,1221,1795,328,-1280,-606,-430,-4,154,-166
0,2023-03-01T18:52:30.779920,1740305,1220,1790,323,-1282,-609,-411,-4,154,-166
0,2023-03-01T18:52:30.785921,1740311,1220,1790,323,-1282,-609,-411,-4,154,-166
0,2023-03-01T18:52:30.791027,1740315,1220,1790,323,-1282,-609,-411,-4,154,-166
0,2023-03-01T18:52:30.796081,1740321,1218,1792,336,-1282,-592,-419,-4,154,-166
0,2023-03-01T18:52:30.802063,1740326,1218,1792,336,-1282,-592,-419,-4,154,-166
0,2023-03-01T18:52:30.807146,1740332,1218,1792,336,-1282,-592,-419,-4,154,-166
0,2023-03-01T18:52:30.812284,1740337,1218,1792,336,-1282,-592,-419,-4,154,-166
0,2023-03-01T18:52:30.817266,1740342,1220,1787,332,-1274,-596,-408,-4,154,-166
0,2023-03-01T18:52:30.823124,1740348,1220,1787,332,-1274,-596,-408,-4,154,-166
0,2023-03-01T18:52:30.827890,1740353,1220,1787,332,-1274,-596,-408,-4,154,-166
0,2023-03-01T18:52:30.832813,1740357,1220,1787,332,-1274,-596,-408,-4,154,-166
0,2023-03-01T18:52:30.837487,1740362,1218,1793,331,-1269,-601,-420,-4,154,-166
0,2023-03-01T18:52:30.843214,1740368,1218,1793,331,-1269,-601,-420,-4,154,-166
0,2023-03-01T18:52:30.848039,1740372,1218,1793,331,-1269,-601,-420,-4,154,-166
0,2023-03-01T18:52:30.853134,1740378,1218,1793,331,-1269,-601,-420,-4,154,-166
0,2023-03-01T18:52:30.858329,1740383,1223,1794,340,-1257,-592,-413,-4,154,-166
0,2023-03-01T18:52:30.864631,1740390,1223,1794,340,-1257,-592,-413,-4,154,-166
0,2023-03-01T18:52:30.870805,1740396,1223,1794,340,-1257,-592,-413,-4,154,-166
0,2023-03-01T18:52:30.875707,1740400,1217,1796,337,-1269,-599,-415,-7,153,-175
0,2023-03-01T18:52:30.881320,1740406,1217,1796,337,-1269,-599,-415,-7,153,-175
0,2023-03-01T18:52:30.886675,1740411,1217,1796,337,-1269,-599,-415,-7,153,-175
0,2023-03-01T18:52:30.891446,1740417,1217,1796,337,-1269,-599,-415,-7,153,-175
0,2023-03-01T18:52:30.896449,1740422,1223,1791,328,-1259,-600,-415,-7,153,-175
0,2023-03-01T18:52:30.902634,1740427,1223,1791,328,-1259,-600,-415,-7,153,-175
0,2023-03-01T18:52:30.908363,1740433,1223,1791,328,-1259,-600,-415,-7,153,-175
0,2023-03-01T18:52:30.913673,1740438,1223,1791,328,-1259,-600,-415,-7,153,-175
0,2023-03-01T18:52:30.918470,1740443,1217,1790,339,-1263,-603,-417,-7,153,-175
0,2023-03-01T18:52:30.924115,1740449,1217,1790,339,-1263,-603,-417,-7,153,-175
0,2023-03-01T18:52:30.929434,1740454,1217,1790,339,-1263,-603,-417,-7,153,-175
0,2023-03-01T18:52:30.934009,1740459,1217,1790,339,-1263,-603,-417,-7,153,-175
0,2023-03-01T18:52:30.939037,1740464,1220,1787,334,-1281,-611,-421,-7,153,-175
0,2023-03-01T18:52:30.944453,1740469,1220,1787,334,-1281,-611,-421,-7,153,-175
0,2023-03-01T18:52:30.949963,1740475,1220,1787,334,-1281,-611,-421,-7,153,-175
0,2023-03-01T18:52:30.954644,1740480,1220,1787,334,-1281,-611,-421,-7,153,-175
0,2023-03-01T18:52:30.959336,1740484,1218,1790,338,-1270,-609,-417,-7,153,-175
0,2023-03-01T18:52:30.965527,1740490,1218,1790,338,-1270,-609,-417,-7,153,-175
0,2023-03-01T18:52:30.971339,1740496,1218,1790,338,-1270,-609,-417,-7,153,-175
0,2023-03-01T18:52:30.976160,1740502,1221,1789,337,-1268,-603,-415,-7,153,-175
0,2023-03-01T18:52:30.982013,1740507,1221,1789,337,-1268,-603,-415,-7,153,-175
0,2023-03-01T18:52:30.987560,1740513,1221,1789,337,-1268,-603,-415,-7,153,-175
0,2023-03-01T18:52:30.992659,1740517,1221,1789,337,-1268,-603,-415,-7,153,-175
0,2023-03-01T18:52:30.997725,1740522,1216,1790,345,-1257,-599,-418,-7,149,-169
0,2023-03-01T18:52:31.004534,1740529,1216,1790,345,-1257,-599,-418,-7,149,-169
0,2023-03-01T18:52:31.009514,1740534,1216,1790,345,-1257,-599,-418,-7,149,-169
0,2023-03-01T18:52:31.014166,1740538,1216,1790,345,-1257,-599,-418,-7,149,-169
0,2023-03-01T18:52:31.019126,1740544,1220,1789,344,-1272,-604,-417,-7,149,-169
0,2023-03-01T18:52:31.025896,1740550,1220,1789,344,-1272,-604,-417,-7,149,-169
0,2023-03-01T18:52:31.031654,1740557,1220,1789,344,-1272,-604,-417,-7,149,-169
0,2023-03-01T18:52:31.036951,1740562,1216,1786,334,-1260,-601,-410,-7,149,-169
0,2023-03-01T18:52:31.042815,1740567,1216,1786,334,-1260,-601,-410,-7,149,-169
0,2023-03-01T18:52:31.048254,1740573,1216,1786,334,-1260,-601,-410,-7,149,-169
0,2023-03-01T18:52:31.053258,1740578,1216,1786,334,-1260,-601,-410,-7,149,-169
0,2023-03-01T18:52:31.058386,1740582,1214,1787,340,-1252,-587,-415,-7,149,-169
0,2023-03-01T18:52:31.064693,1740590,1214,1787,340,-1252,-587,-415,-7,149,-169
0,2023-03-01T18:52:31.070216,1740595,1214,1787,340,-1252,-587,-415,-7,149,-169
0,2023-03-01T18:52:31.075141,1740600,1214,1787,340,-1252,-587,-415,-7,149,-169
0,2023-03-01T18:52:31.079946,1740605,1215,1790,341,-1266,-595,-406,-7,149,-169
0,2023-03-01T18:52:31.086362,1740611,1215,1790,341,-1266,-595,-406,-7,149,-169
0,2023-03-01T18:52:31.092081,1740617,1215,1790,341,-1266,-595,-406,-7,149,-169
0,2023-03-01T18:52:31.097073,1740621,1216,1786,342,-1273,-601,-414,-7,149,-169
0,2023-03-01T18:52:31.103267,1740627,1216,1786,342,-1273,-601,-414,-7,149,-169
0,2023-03-01T18:52:31.108233,1740633,1216,1786,342,-1273,-601,-414,-7,149,-169
0,2023-03-01T18:52:31.113272,1740638,1216,1786,342,-1273,-601,-414,-7,149,-169
0,2023-03-01T18:52:31.118047,1740643,1216,1788,336,-1271,-593,-414,-7,149,-169
0,2023-03-01T18:52:31.124450,1740649,1216,1788,336,-1271,-593,-414,-7,149,-169
0,2023-03-01T18:52:31.129491,1740654,1216,1788,336,-1271,-593,-414,-7,149,-169
0,2023-03-01T18:52:31.134320,1740659,1216,1788,336,-1271,-593,-414,-7,149,-169
0,2023-03-01T18:52:31.139167,1740664,1217,1791,344,-1274,-593,-423,-10,152,-172
0,2023-03-01T18:52:31.145400,1740670,1217,1791,344,-1274,-593,-423,-10,152,-172
0,2023-03-01T18:52:31.151247,1740676,1217,1791,344,-1274,-593,-423,-10,152,-172
0,2023-03-01T18:52:31.156136,1740681,1212,1791,350,-1268,-590,-417,-10,152,-172
0,2023-03-01T18:52:31.162022,1740687,1212,1791,350,-1268,-590,-417,-10,152,-172
0,2023-03-01T18:52:31.166848,1740692,1212,1791,350,-1268,-590,-417,-10,152,-172
0,2023-03-01T18:52:31.171682,1740696,1212,1791,350,-1268,-590,-417,-10,152,-172
0,2023-03-01T18:52:31.176946,1740701,1217,1791,343,-1274,-602,-411,-10,152,-172
0,2023-03-01T18:52:31.182639,1740707,1217,1791,343,-1274,-602,-411,-10,152,-172
0,2023-03-01T18:52:31.187878,1740712,1217,1791,343,-1274,-602,-411,-10,152,-172
0,2023-03-01T18:52:31.193026,1740718,1217,1791,343,-1274,-602,-411,-10,152,-172
0,2023-03-01T18:52:31.197922,1740723,1213,1786,353,-1260,-587,-418,-10,152,-172
0,2023-03-01T18:52:31.204255,1740728,1213,1786,353,-1260,-587,-418,-10,152,-172
0,2023-03-01T18:52:31.210182,1740735,1213,1786,353,-1260,-587,-418,-10,152,-172
0,2023-03-01T18:52:31.214884,1740740,1213,1786,353,-1260,-587,-418,-10,152,-172
0,2023-03-01T18:52:31.219790,1740744,1214,1787,346,-1278,-604,-410,-10,152,-172
0,2023-03-01T18:52:31.226446,1740751,1214,1787,346,-1278,-604,-410,-10,152,-172
0,2023-03-01T18:52:31.233042,1740758,1214,1787,346,-1278,-604,-410,-10,152,-172
0,2023-03-01T18:52:31.238175,1740763,1214,1790,351,-1262,-605,-414,-10,152,-172
0,2023-03-01T18:52:31.244225,1740769,1214,1790,351,-1262,-605,-414,-10,152,-172
0,2023-03-01T18:52:31.249369,1740774,1214,1790,351,-1262,-605,-414,-10,152,-172
0,2023-03-01T18:52:31.254544,1740779,1214,1790,351,-1262,-605,-414,-10,152,-172
0,2023-03-01T18:52:31.259853,1740785,1215,1785,354,-1264,-599,-412,-5,159,-167
0,2023-03-01T18:52:31.265523,1740790,1215,1785,354,-1264,-599,-412,-5,159,-167
0,2023-03-01T18:52:31.270186,1740795,1215,1785,354,-1264,-599,-412,-5,159,-167
0,2023-03-01T18:52:31.274822,1740800,1215,1785,354,-1264,-599,-412,-5,159,-167
0,2023-03-01T18:52:31.279679,1740805,1211,1788,345,-1260,-598,-410,-5,159,-167
0,2023-03-01T18:52:31.286035,1740811,1211,1788,345,-1260,-598,-410,-5,159,-167
0,2023-03-01T18:52:31.291453,1740816,1211,1788,345,-1260,-598,-410,-5,159,-167
0,2023-03-01T18:52:31.296231,1740821,1215,1786,353,-1260,-591,-413,-5,159,-167
0,2023-03-01T18:52:31.302339,1740827,1215,1786,353,-1260,-591,-413,-5,159,-167
0,2023-03-01T18:52:31.307623,1740832,1215,1786,353,-1260,-591,-413,-5,159,-167
0,2023-03-01T18:52:31.312501,1740837,1215,1786,353,-1260,-591,-413,-5,159,-167
0,2023-03-01T18:52:31.319002,1740844,1211,1791,354,-1282,-605,-417,-5,159,-167
0,2023-03-01T18:52:31.324713,1740850,1211,1791,354,-1282,-605,-417,-5,159,-167
0,2023-03-01T18:52:31.329436,1740855,1211,1791,354,-1282,-605,-417,-5,159,-167
0,2023-03-01T18:52:31.334866,1740859,1211,1791,354,-1282,-605,-417,-5,159,-167
0,2023-03-01T18:52:31.339975,1740865,1213,1786,354,-1264,-600,-413,-5,159,-167
0,2023-03-01T18:52:31.345597,1740870,1213,1786,354,-1264,-600,-413,-5,159,-167
0,2023-03-01T18:52:31.350227,1740875,1213,1786,354,-1264,-600,-413,-5,159,-167
0,2023-03-01T18:52:31.354809,1740879,1213,1786,354,-1264,-600,-413,-5,159,-167
0,2023-03-01T18:52:31.359641,1740884,1210,1788,362,-1273,-599,-422,-5,159,-167
0,2023-03-01T18:52:31.364951,1740890,1210,1788,362,-1273,-599,-422,-5,159,-167
0,2023-03-01T18:52:31.370541,1740895,1210,1788,362,-1273,-599,-422,-5,159,-167
0,2023-03-01T18:52:31.375376,1740900,1210,1788,362,-1273,-599,-422,-5,159,-167
0,2023-03-01T18:52:31.380304,1740905,1213,1785,349,-1275,-602,-419,-15,149,-169
0,2023-03-01T18:52:31.386187,1740911,1213,1785,349,-1275,-602,-419,-15,149,-169
0,2023-03-01T18:52:31.391876,1740916,1213,1785,349,-1275,-602,-419,-15,149,-169
0,2023-03-01T18:52:31.396699,1740921,1207,1786,360,-1279,-608,-425,-15,149,-169
0,2023-03-01T18:52:31.402586,1740928,1207,1786,360,-1279,-608,-425,-15,149,-169
0,2023-03-01T18:52:31.407647,1740933,1207,1786,360,-1279,-608,-425,-15,149,-169
0,2023-03-01T18:52:31.412608,1740938,1207,1786,360,-1279,-608,-425,-15,149,-169
0,2023-03-01T18:52:31.417364,1740942,1212,1789,353,-1283,-601,-419,-15,149,-169
0,2023-03-01T18:52:31.423853,1740948,1212,1789,353,-1283,-601,-419,-15,149,-169
0,2023-03-01T18:52:31.430141,1740955,1212,1789,353,-1283,-601,-419,-15,149,-169
0,2023-03-01T18:52:31.435020,1740960,1212,1789,353,-1283,-601,-419,-15,149,-169
0,2023-03-01T18:52:31.439760,1740964,1208,1788,356,-1277,-594,-424,-15,149,-169
0,2023-03-01T18:52:31.445475,1740971,1208,1788,356,-1277,-594,-424,-15,149,-169
0,2023-03-01T18:52:31.451039,1740976,1208,1788,356,-1277,-594,-424,-15,149,-169
0,2023-03-01T18:52:31.456232,1740981,1210,1790,360,-1283,-588,-418,-15,149,-169
0,2023-03-01T18:52:31.461803,1740987,1210,1790,360,-1283,-588,-418,-15,149,-169
0,2023-03-01T18:52:31.467588,1740993,1210,1790,360,-1283,-588,-418,-15,149,-169
0,2023-03-01T18:52:31.472737,1740997,1210,1790,360,-1283,-588,-418,-15,149,-169
0,2023-03-01T18:52:31.477620,1741002,1207,1785,362,-1267,-605,-420,-15,149,-169
0,2023-03-01T18:52:31.483910,1741008,1207,1785,362,-1267,-605,-420,-15,149,-169
0,2023-03-01T18:52:31.489848,1741015,1207,1785,362,-1267,-605,-420,-15,149,-169
0,2023-03-01T18:52:31.494959,1741020,1207,1785,362,-1267,-605,-420,-15,149,-169
0,2023-03-01T18:52:31.499825,1741025,1207,1786,362,-1266,-597,-414,-15,149,-169
0,2023-03-01T18:52:31.506002,1741031,1207,1786,362,-1266,-597,-414,-15,149,-169
0,2023-03-01T18:52:31.510810,1741036,1207,1786,362,-1266,-597,-414,-15,149,-169
0,2023-03-01T18:52:31.515695,1741040,1207,1786,362,-1266,-597,-414,-15,149,-169
0,2023-03-01T18:52:31.520918,1741045,1208,1781,366,-1261,-598,-409,-7,151,-163
0,2023-03-01T18:52:31.526843,1741051,1208,1781,366,-1261,-598,-409,-7,151,-163
0,2023-03-01T18:52:31.532671,1741058,1208,1781,366,-1261,-598,-409,-7,151,-163
0,2023-03-01T18:52:31.537603,1741063,1206,1785,367,-1276,-601,-428,-7,151,-163
0,2023-03-01T18:52:31.544129,1741069,1206,1785,367,-1276,-601,-428,-7,151,-163
0,2023-03-01T18:52:31.549900,1741074,1206,1785,367,-1276,-601,-428,-7,151,-163
0,2023-03-01T18:52:31.554871,1741079,1206,1785,367,-1276,-601,-428,-7,151,-163
0,2023-03-01T18:52:31.559836,1741084,1208,1782,366,-1275,-601,-420,-7,151,-163
0,2023-03-01T18:52:31.565839,1741090,1208,1782,366,-1275,-601,-420,-7,151,-163
0,2023-03-01T18:52:31.571588,1741096,1208,1782,366,-1275,-601,-420,-7,151,-163
0,2023-03-01T18:52:31.576590,1741102,1206,1781,359,-1272,-605,-421,-7,151,-163
0,2023-03-01T18:52:31.582968,1741108,1206,1781,359,-1272,-605,-421,-7,151,-163
0,2023-03-01T18:52:31.588142,1741113,1206,1781,359,-1272,-605,-421,-7,151,-163
0,2023-03-01T18:52:31.593230,1741118,1206,1781,359,-1272,-605,-421,-7,151,-163
0,2023-03-01T18:52:31.598900,1741124,1206,1782,366,-1277,-597,-408,-7,151,-163
0,2023-03-01T18:52:31.605392,1741130,1206,1782,366,-1277,-597,-408,-7,151,-163
0,2023-03-01T18:52:31.611507,1741135,1206,1782,366,-1277,-597,-408,-7,151,-163
0,2023-03-01T18:52:31.617364,1741142,1208,1781,370,-1277,-592,-421,-7,151,-163
0,2023-03-01T18:52:31.623815,1741149,1208,1781,370,-1277,-592,-421,-7,151,-163
0,2023-03-01T18:52:31.628935,1741154,1208,1781,370,-1277,-592,-421,-7,151,-163
0,2023-03-01T18:52:31.633912,1741159,1208,1781,370,-1277,-592,-421,-7,151,-163
0,2023-03-01T18:52:31.638494,1741163,1206,1785,370,-1259,-609,-418,-11,153,-165
0,2023-03-01T18:52:31.645019,1741169,1206,1785,370,-1259,-609,-418,-11,153,-165
0,2023-03-01T18:52:31.650757,1741175,1206,1785,370,-1259,-609,-418,-11,153,-165
0,2023-03-01T18:52:31.655803,1741180,1206,1785,370,-1259,-609,-418,-11,153,-165
0,2023-03-01T18:52:31.660655,1741186,1211,1783,372,-1262,-610,-429,-11,153,-165
0,2023-03-01T18:52:31.666920,1741192,1211,1783,372,-1262,-610,-429,-11,153,-165
0,2023-03-01T18:52:31.671816,1741197,1211,1783,372,-1262,-610,-429,-11,153,-165
0,2023-03-01T18:52:31.676644,1741202,1205,1780,370,-1276,-611,-436,-11,153,-165
0,2023-03-01T18:52:31.683127,1741208,1205,1780,370,-1276,-611,-436,-11,153,-165
0,2023-03-01T18:52:31.687959,1741213,1205,1780,370,-1276,-611,-436,-11,153,-165
0,2023-03-01T18:52:31.692677,1741217,1205,1780,370,-1276,-611,-436,-11,153,-165
0,2023-03-01T18:52:31.697710,1741222,1205,1780,375,-1282,-615,-419,-11,153,-165
0,2023-03-01T18:52:31.704255,1741229,1205,1780,375,-1282,-615,-419,-11,153,-165
0,2023-03-01T18:52:31.709207,1741234,1205,1780,375,-1282,-615,-419,-11,153,-165
0,2023-03-01T18:52:31.714297,1741239,1205,1780,375,-1282,-615,-419,-11,153,-165
0,2023-03-01T18:52:31.719257,1741244,1203,1787,365,-1275,-611,-423,-11,153,-165
0,2023-03-01T18:52:31.725608,1741250,1203,1787,365,-1275,-611,-423,-11,153,-165
0,2023-03-01T18:52:31.731250,1741256,1203,1787,365,-1275,-611,-423,-11,153,-165
0,2023-03-01T18:52:31.735914,1741261,1203,1787,365,-1275,-611,-423,-11,153,-165
0,2023-03-01T18:52:31.740857,1741265,1203,1785,375,-1283,-603,-421,-11,153,-165
0,2023-03-01T18:52:31.746556,1741272,1203,1785,375,-1283,-603,-421,-11,153,-165
0,2023-03-01T18:52:31.751657,1741277,1203,1785,375,-1283,-603,-421,-11,153,-165
0,2023-03-01T18:52:31.756987,1741281,1202,1780,372,-1279,-608,-421,-11,153,-165
0,2023-03-01T18:52:31.763614,1741288,1202,1780,372,-1279,-608,-421,-11,153,-165
0,2023-03-01T18:52:31.768384,1741293,1202,1780,372,-1279,-608,-421,-11,153,-165
0,2023-03-01T18:52:31.773731,1741298,1202,1780,372,-1279,-608,-421,-11,153,-165
0,2023-03-01T18:52:31.778563,1741303,1203,1781,381,-1284,-601,-423,-10,154,-168
0,2023-03-01T18:52:31.785217,1741309,1203,1781,381,-1284,-601,-423,-10,154,-168
0,2023-03-01T18:52:31.790136,1741315,1203,1781,381,-1284,-601,-423,-10,154,-168
0,2023-03-01T18:52:31.794596,1741320,1203,1781,381,-1284,-601,-423,-10,154,-168
0,2023-03-01T18:52:31.799526,1741325,1203,1781,383,-1281,-606,-426,-10,154,-168
0,2023-03-01T18:52:31.805672,1741330,1203,1781,383,-1281,-606,-426,-10,154,-168
0,2023-03-01T18:52:31.811946,1741336,1203,1781,383,-1281,-606,-426,-10,154,-168
0,2023-03-01T18:52:31.817460,1741342,1203,1779,374,-1267,-605,-429,-10,154,-168
0,2023-03-01T18:52:31.823236,1741348,1203,1779,374,-1267,-605,-429,-10,154,-168
0,2023-03-01T18:52:31.828203,1741353,1203,1779,374,-1267,-605,-429,-10,154,-168
0,2023-03-01T18:52:31.833175,1741358,1203,1779,374,-1267,-605,-429,-10,154,-168
0,2023-03-01T18:52:31.838002,1741363,1199,1779,381,-1283,-596,-438,-10,154,-168
0,2023-03-01T18:52:31.844343,1741369,1199,1779,381,-1283,-596,-438,-10,154,-168
0,2023-03-01T18:52:31.849205,1741374,1199,1779,381,-1283,-596,-438,-10,154,-168
0,2023-03-01T18:52:31.853803,1741379,1199,1779,381,-1283,-596,-438,-10,154,-168
0,2023-03-01T18:52:31.858515,1741383,1202,1785,379,-1286,-597,-470,-10,154,-168
0,2023-03-01T18:52:31.865686,1741389,1202,1785,379,-1286,-597,-470,-10,154,-168
0,2023-03-01T18:52:31.872324,1741396,1202,1785,379,-1286,-597,-470,-10,154,-168
0,2023-03-01T18:52:31.877062,1741402,1199,1783,372,-1291,-618,-462,-10,154,-168
0,2023-03-01T18:52:31.882842,1741408,1199,1783,372,-1291,-618,-462,-10,154,-168
0,2023-03-01T18:52:31.888474,1741413,1199,1783,372,-1291,-618,-462,-10,154,-168
0,2023-03-01T18:52:31.893579,1741418,1199,1783,372,-1291,-618,-462,-10,154,-168
0,2023-03-01T18:52:31.898404,1741423,1204,1784,381,-1286,-603,-413,1,157,-169
0,2023-03-01T18:52:31.904635,1741429,1204,1784,381,-1286,-603,-413,1,157,-169
0,2023-03-01T18:52:31.909431,1741434,1204,1784,381,-1286,-603,-413,1,157,-169
0,2023-03-01T18:52:31.914303,1741438,1204,1784,381,-1286,-603,-413,1,157,-169
0,2023-03-01T18:52:31.919293,1741444,1202,1782,384,-1268,-603,-408,1,157,-169
0,2023-03-01T18:52:31.925299,1741450,1202,1782,384,-1268,-603,-408,1,157,-169
0,2023-03-01T18:52:31.930027,1741455,1202,1782,384,-1268,-603,-408,1,157,-169
0,2023-03-01T18:52:31.934913,1741460,1202,1782,384,-1268,-603,-408,1,157,-169
0,2023-03-01T18:52:31.939841,1741465,1204,1778,387,-1270,-610,-427,1,157,-169
0,2023-03-01T18:52:31.945437,1741470,1204,1778,387,-1270,-610,-427,1,157,-169
0,2023-03-01T18:52:31.950669,1741475,1204,1778,387,-1270,-610,-427,1,157,-169
0,2023-03-01T18:52:31.956056,1741480,1204,1778,387,-1270,-610,-427,1,157,-169
0,2023-03-01T18:52:31.961563,1741486,1201,1780,387,-1285,-600,-426,1,157,-169
0,2023-03-01T18:52:31.967327,1741492,1201,1780,387,-1285,-600,-426,1,157,-169
0,2023-03-01T18:52:31.972956,1741498,1201,1780,387,-1285,-600,-426,1,157,-169
0,2023-03-01T18:52:31.978053,1741503,1200,1780,382,-1279,-600,-438,1,157,-169
0,2023-03-01T18:52:31.984529,1741509,1200,1780,382,-1279,-600,-438,1,157,-169
0,2023-03-01T18:52:31.989429,1741514,1200,1780,382,-1279,-600,-438,1,157,-169
0,2023-03-01T18:52:31.994263,1741519,1200,1780,382,-1279,-600,-438,1,157,-169
0,2023-03-01T18:52:31.999267,1741524,1202,1783,380,-1266,-618,-425,1,157,-169
0,2023-03-01T18:52:32.005379,1741531,1202,1783,380,-1266,-618,-425,1,157,-169
0,2023-03-01T18:52:32.010935,1741536,1202,1783,380,-1266,-618,-425,1,157,-169
0,2023-03-01T18:52:32.015600,1741541,1202,1783,380,-1266,-618,-425,1,157,-169
0,2023-03-01T18:52:32.020351,1741545,1196,1778,380,-1268,-598,-419,1,157,-169
0,2023-03-01T18:52:32.026056,1741550,1196,1778,380,-1268,-598,-419,1,157,-169
0,2023-03-01T18:52:32.030788,1741555,1196,1778,380,-1268,-598,-419,1,157,-169
0,2023-03-01T18:52:32.035930,1741560,1196,1778,380,-1268,-598,-419,1,157,-169
0,2023-03-01T18:52:32.041079,1741565,1195,1778,386,-1276,-602,-416,-3,155,-165
0,2023-03-01T18:52:32.047309,1741573,1195,1778,386,-1276,-602,-416,-3,155,-165
0,2023-03-01T18:52:32.052663,1741578,1195,1778,386,-1276,-602,-416,-3,155,-165
0,2023-03-01T18:52:32.058057,1741583,1203,1776,389,-1276,-599,-419,-3,155,-165
0,2023-03-01T18:52:32.064028,1741589,1203,1776,389,-1276,-599,-419,-3,155,-165
0,2023-03-01T18:52:32.069758,1741594,1203,1776,389,-1276,-599,-419,-3,155,-165
0,2023-03-01T18:52:32.074425,1741599,1203,1776,389,-1276,-599,-419,-3,155,-165
0,2023-03-01T18:52:32.079544,1741604,1197,1780,384,-1261,-596,-407,-3,155,-165
0,2023-03-01T18:52:32.085349,1741609,1197,1780,384,-1261,-596,-407,-3,155,-165
0,2023-03-01T18:52:32.090264,1741615,1197,1780,384,-1261,-596,-407,-3,155,-165
0,2023-03-01T18:52:32.095383,1741620,1197,1780,384,-1261,-596,-407,-3,155,-165
0,2023-03-01T18:52:32.100211,1741625,1200,1777,391,-1261,-595,-411,-3,155,-165
0,2023-03-01T18:52:32.106897,1741632,1200,1777,391,-1261,-595,-411,-3,155,-165
0,2023-03-01T18:52:32.112061,1741636,1200,1777,391,-1261,-595,-411,-3,155,-165
0,2023-03-01T18:52:32.116725,1741641,1195,1778,389,-1262,-600,-421,-3,155,-165
0,2023-03-01T18:52:32.123045,1741647,1195,1778,389,-1262,-600,-421,-3,155,-165
0,2023-03-01T18:52:32.129029,1741654,1195,1778,389,-1262,-600,-421,-3,155,-165
0,2023-03-01T18:52:32.134237,1741659,1195,1778,389,-1262,-600,-421,-3,155,-165
0,2023-03-01T18:52:32.139290,1741664,1201,1779,390,-1275,-602,-431,-3,155,-165
0,2023-03-01T18:52:32.145459,1741670,1201,1779,390,-1275,-602,-431,-3,155,-165
0,2023-03-01T18:52:32.150702,1741675,1201,1779,390,-1275,-602,-431,-3,155,-165
0,2023-03-01T18:52:32.155386,1741680,1201,1779,390,-1275,-602,-431,-3,155,-165
0,2023-03-01T18:52:32.160189,1741685,1196,1779,393,-1267,-593,-419,-10,156,-168
0,2023-03-01T18:52:32.166558,1741691,1196,1779,393,-1267,-593,-419,-10,156,-168
0,2023-03-01T18:52:32.172371,1741698,1196,1779,393,-1267,-593,-419,-10,156,-168
0,2023-03-01T18:52:32.178057,1741703,1195,1777,386,-1266,-599,-415,-10,156,-168
0,2023-03-01T18:52:32.184195,1741709,1195,1777,386,-1266,-599,-415,-10,156,-168
0,2023-03-01T18:52:32.188835,1741714,1195,1777,386,-1266,-599,-415,-10,156,-168
0,2023-03-01T18:52:32.193817,1741718,1195,1777,386,-1266,-599,-415,-10,156,-168
0,2023-03-01T18:52:32.199715,1741724,1193,1779,399,-1270,-583,-419,-10,156,-168
0,2023-03-01T18:52:32.206631,1741731,1193,1779,399,-1270,-583,-419,-10,156,-168
0,2023-03-01T18:52:32.213848,1741739,1193,1779,399,-1270,-583,-419,-10,156,-168
0,2023-03-01T18:52:32.218715,1741744,1196,1776,398,-1275,-600,-425,-10,156,-168
0,2023-03-01T18:52:32.227309,1741750,1196,1776,398,-1275,-600,-425,-10,156,-168
0,2023-03-01T18:52:32.232826,1741758,1196,1776,398,-1275,-600,-425,-10,156,-168
0,2023-03-01T18:52:32.237603,1741762,1192,1776,391,-1270,-606,-421,-10,156,-168
0,2023-03-01T18:52:32.243602,1741768,1192,1776,391,-1270,-606,-421,-10,156,-168
0,2023-03-01T18:52:32.248891,1741773,1192,1776,391,-1270,-606,-421,-10,156,-168
0,2023-03-01T18:52:32.253879,1741778,1192,1776,391,-1270,-606,-421,-10,156,-168
0,2023-03-01T18:52:32.258571,1741784,1192,1777,400,-1264,-592,-429,-10,156,-168
0,2023-03-01T18:52:32.264835,1741790,1192,1777,400,-1264,-592,-429,-10,156,-168
0,2023-03-01T18:52:32.270245,1741795,1192,1777,400,-1264,-592,-429,-10,156,-168
0,2023-03-01T18:52:32.274997,1741800,1192,1777,400,-1264,-592,-429,-10,156,-168
0,2023-03-01T18:52:32.280158,1741805,1194,1777,386,-1265,-613,-421,-10,154,-168
0,2023-03-01T18:52:32.286414,1741811,1194,1777,386,-1265,-613,-421,-10,154,-168
0,2023-03-01T18:52:32.291654,1741816,1194,1777,386,-1265,-613,-421,-10,154,-168
0,2023-03-01T18:52:32.296584,1741821,1194,1777,386,-1265,-613,-421,-10,154,-168
0,2023-03-01T18:52:32.301911,1741827,1194,1777,403,-1266,-595,-427,-10,154,-168
0,2023-03-01T18:52:32.308258,1741833,1194,1777,403,-1266,-595,-427,-10,154,-168
0,2023-03-01T18:52:32.313775,1741839,1194,1777,403,-1266,-595,-427,-10,154,-168
0,2023-03-01T18:52:32.318512,1741843,1193,1777,404,-1283,-605,-423,-10,154,-168
0,2023-03-01T18:52:32.324349,1741849,1193,1777,404,-1283,-605,-423,-10,154,-168
0,2023-03-01T18:52:32.329288,1741854,1193,1777,404,-1283,-605,-423,-10,154,-168
0,2023-03-01T18:52:32.334330,1741859,1193,1777,404,-1283,-605,-423,-10,154,-168
0,2023-03-01T18:52:32.339809,1741864,1196,1775,391,-1275,-613,-419,-10,154,-168
0,2023-03-01T18:52:32.345702,1741871,1196,1775,391,-1275,-613,-419,-10,154,-168
0,2023-03-01T18:52:32.350462,1741876,1196,1775,391,-1275,-613,-419,-10,154,-168
0,2023-03-01T18:52:32.355348,1741880,1196,1775,391,-1275,-613,-419,-10,154,-168
0,2023-03-01T18:52:32.359872,1741885,1192,1777,410,-1270,-604,-423,-10,154,-168
0,2023-03-01T18:52:32.365901,1741891,1192,1777,410,-1270,-604,-423,-10,154,-168
0,2023-03-01T18:52:32.371246,1741895,1192,1777,410,-1270,-604,-423,-10,154,-168
0,2023-03-01T18:52:32.376423,1741901,1192,1777,410,-1270,-604,-423,-10,154,-168
0,2023-03-01T18:52:32.381263,1741906,1190,1773,404,-1269,-601,-430,-10,154,-168
0,2023-03-01T18:52:32.387558,1741913,1190,1773,404,-1269,-601,-430,-10,154,-168
0,2023-03-01T18:52:32.393282,1741918,1190,1773,404,-1269,-601,-430,-10,154,-168
0,2023-03-01T18:52:32.398304,1741923,1196,1774,402,-1266,-596,-430,-10,154,-168
0,2023-03-01T18:52:32.404312,1741929,1196,1774,402,-1266,-596,-430,-10,154,-168
0,2023-03-01T18:52:32.409624,1741935,1196,1774,402,-1266,-596,-430,-10,154,-168
0,2023-03-01T18:52:32.414551,1741939,1196,1774,402,-1266,-596,-430,-10,154,-168
0,2023-03-01T18:52:32.419062,1741944,1194,1778,404,-1269,-602,-425,-10,154,-170
0,2023-03-01T18:52:32.425487,1741950,1194,1778,404,-1269,-602,-425,-10,154,-170
0,2023-03-01T18:52:32.431267,1741957,1194,1778,404,-1269,-602,-425,-10,154,-170
0,2023-03-01T18:52:32.436707,1741962,1194,1778,404,-1269,-602,-425,-10,154,-170
0,2023-03-01T18:52:32.442158,1741967,1190,1775,405,-1279,-607,-425,-10,154,-170
0,2023-03-01T18:52:32.448239,1741973,1190,1775,405,-1279,-607,-425,-10,154,-170
0,2023-03-01T18:52:32.453218,1741978,1190,1775,405,-1279,-607,-425,-10,154,-170
0,2023-03-01T18:52:32.457942,1741983,1193,1776,414,-1281,-608,-437,-10,154,-170
0,2023-03-01T18:52:32.463517,1741988,1193,1776,414,-1281,-608,-437,-10,154,-170
0,2023-03-01T18:52:32.469204,1741993,1193,1776,414,-1281,-608,-437,-10,154,-170
0,2023-03-01T18:52:32.474011,1741999,1193,1776,414,-1281,-608,-437,-10,154,-170
0,2023-03-01T18:52:32.479030,1742004,1191,1778,411,-1284,-611,-426,-10,154,-170
0,2023-03-01T18:52:32.484996,1742010,1191,1778,411,-1284,-611,-426,-10,154,-170
0,2023-03-01T18:52:32.490368,1742015,1191,1778,411,-1284,-611,-426,-10,154,-170
0,2023-03-01T18:52:32.495316,1742020,1191,1778,411,-1284,-611,-426,-10,154,-170
0,2023-03-01T18:52:32.500122,1742025,1189,1772,403,-1280,-616,-438,-10,154,-170
0,2023-03-01T18:52:32.505822,1742030,1189,1772,403,-1280,-616,-438,-10,154,-170
0,2023-03-01T18:52:32.511050,1742035,1189,1772,403,-1280,-616,-438,-10,154,-170
0,2023-03-01T18:52:32.515733,1742041,1189,1772,403,-1280,-616,-438,-10,154,-170
0,2023-03-01T18:52:32.520907,1742046,1186,1773,413,-1273,-616,-417,-10,154,-170
0,2023-03-01T18:52:32.526664,1742052,1186,1773,413,-1273,-616,-417,-10,154,-170
0,2023-03-01T18:52:32.532216,1742057,1186,1773,413,-1273,-616,-417,-10,154,-170
0,2023-03-01T18:52:32.537216,1742062,1186,1773,413,-1273,-616,-417,-10,154,-170
0,2023-03-01T18:52:32.542755,1742067,1187,1773,411,-1272,-605,-433,-9,153,-163
0,2023-03-01T18:52:32.548993,1742074,1187,1773,411,-1272,-605,-433,-9,153,-163
0,2023-03-01T18:52:32.553982,1742078,1187,1773,411,-1272,-605,-433,-9,153,-163
0,2023-03-01T18:52:32.558844,1742084,1187,1774,410,-1271,-614,-429,-9,153,-163
0,2023-03-01T18:52:32.565220,1742090,1187,1774,410,-1271,-614,-429,-9,153,-163
0,2023-03-01T18:52:32.570533,1742095,1187,1774,410,-1271,-614,-429,-9,153,-163
0,2023-03-01T18:52:32.575474,1742100,1187,1774,410,-1271,-614,-429,-9,153,-163
0,2023-03-01T18:52:32.580218,1742105,1190,1771,412,-1285,-616,-427,-9,153,-163
0,2023-03-01T18:52:32.587289,1742112,1190,1771,412,-1285,-616,-427,-9,153,-163
0,2023-03-01T18:52:32.593089,1742117,1190,1771,412,-1285,-616,-427,-9,153,-163
0,2023-03-01T18:52:32.598152,1742123,1185,1771,413,-1267,-609,-425,-9,153,-163
0,2023-03-01T18:52:32.604259,1742129,1185,1771,413,-1267,-609,-425,-9,153,-163
0,2023-03-01T18:52:32.609280,1742134,1185,1771,413,-1267,-609,-425,-9,153,-163
0,2023-03-01T18:52:32.614153,1742139,1185,1771,413,-1267,-609,-425,-9,153,-163
0,2023-03-01T18:52:32.619272,1742144,1191,1774,408,-1282,-625,-431,-9,153,-163
0,2023-03-01T18:52:32.625636,1742150,1191,1774,408,-1282,-625,-431,-9,153,-163
0,2023-03-01T18:52:32.631340,1742156,1191,1774,408,-1282,-625,-431,-9,153,-163
0,2023-03-01T18:52:32.636523,1742160,1191,1774,408,-1282,-625,-431,-9,153,-163
0,2023-03-01T18:52:32.641635,1742167,1188,1775,414,-1271,-609,-429,-9,153,-163
0,2023-03-01T18:52:32.647721,1742173,1188,1775,414,-1271,-609,-429,-9,153,-163
0,2023-03-01T18:52:32.653229,1742178,1188,1775,414,-1271,-609,-429,-9,153,-163
0,2023-03-01T18:52:32.658057,1742183,1189,1773,412,-1276,-611,-432,-9,153,-163
0,2023-03-01T18:52:32.664226,1742189,1189,1773,412,-1276,-611,-432,-9,153,-163
0,2023-03-01T18:52:32.669439,1742194,1189,1773,412,-1276,-611,-432,-9,153,-163
0,2023-03-01T18:52:32.674402,1742199,1189,1773,412,-1276,-611,-432,-9,153,-163
0,2023-03-01T18:52:32.679854,1742204,1186,1773,419,-1256,-607,-425,-6,150,-166
0,2023-03-01T18:52:32.686336,1742212,1186,1773,419,-1256,-607,-425,-6,150,-166
0,2023-03-01T18:52:32.692119,1742217,1186,1773,419,-1256,-607,-425,-6,150,-166
0,2023-03-01T18:52:32.697052,1742222,1186,1773,419,-1256,-607,-425,-6,150,-166
0,2023-03-01T18:52:32.702127,1742227,1184,1772,425,-1260,-612,-423,-6,150,-166
0,2023-03-01T18:52:32.708240,1742233,1184,1772,425,-1260,-612,-423,-6,150,-166
0,2023-03-01T18:52:32.713465,1742238,1184,1772,425,-1260,-612,-423,-6,150,-166
0,2023-03-01T18:52:32.718148,1742243,1187,1771,413,-1257,-620,-425,-6,150,-166
0,2023-03-01T18:52:32.723930,1742248,1187,1771,413,-1257,-620,-425,-6,150,-166
0,2023-03-01T18:52:32.728698,1742254,1187,1771,413,-1257,-620,-425,-6,150,-166
0,2023-03-01T18:52:32.733437,1742259,1187,1771,413,-1257,-620,-425,-6,150,-166
0,2023-03-01T18:52:32.738633,1742264,1186,1770,422,-1268,-621,-424,-6,150,-166
0,2023-03-01T18:52:32.744756,1742270,1186,1770,422,-1268,-621,-424,-6,150,-166
0,2023-03-01T18:52:32.750919,1742275,1186,1770,422,-1268,-621,-424,-6,150,-166
0,2023-03-01T18:52:32.755925,1742281,1186,1770,422,-1268,-621,-424,-6,150,-166
0,2023-03-01T18:52:32.760630,1742285,1190,1771,410,-1270,-625,-428,-6,150,-166
0,2023-03-01T18:52:32.767053,1742291,1190,1771,410,-1270,-625,-428,-6,150,-166
0,2023-03-01T18:52:32.772527,1742298,1190,1771,410,-1270,-625,-428,-6,150,-166
0,2023-03-01T18:52:32.777076,1742302,1190,1771,410,-1270,-625,-428,-6,150,-166
0,2023-03-01T18:52:32.781777,1742307,1183,1768,423,-1262,-619,-436,-6,150,-166
0,2023-03-01T18:52:32.787574,1742312,1183,1768,423,-1262,-619,-436,-6,150,-166
0,2023-03-01T18:52:32.792492,1742317,1183,1768,423,-1262,-619,-436,-6,150,-166
0,2023-03-01T18:52:32.797465,1742322,1183,1768,423,-1262,-619,-436,-6,150,-166
0,2023-03-01T18:52:32.802648,1742327,1184,1772,420,-1263,-616,-438,-6,154,-160
0,2023-03-01T18:52:32.807645,1742332,1184,1772,420,-1263,-616,-438,-6,154,-160
0,2023-03-01T18:52:32.812386,1742338,1184,1772,420,-1263,-616,-438,-6,154,-160
0,2023-03-01T18:52:32.817661,1742343,1184,1772,420,-1263,-616,-438,-6,154,-160
0,2023-03-01T18:52:32.822983,1742348,1182,1768,420,-1271,-615,-429,-6,154,-160
0,2023-03-01T18:52:32.828749,1742354,1182,1768,420,-1271,-615,-429,-6,154,-160
0,2023-03-01T18:52:32.833638,1742358,1182,1768,420,-1271,-615,-429,-6,154,-160
0,2023-03-01T18:52:32.838396,1742363,1186,1769,421,-1253,-617,-416,-6,154,-160
0,2023-03-01T18:52:32.844014,1742369,1186,1769,421,-1253,-617,-416,-6,154,-160
0,2023-03-01T18:52:32.848651,1742373,1186,1769,421,-1253,-617,-416,-6,154,-160
0,2023-03-01T18:52:32.853578,1742379,1186,1769,421,-1253,-617,-416,-6,154,-160
0,2023-03-01T18:52:32.858547,1742384,1186,1769,421,-1256,-618,-414,-6,154,-160
0,2023-03-01T18:52:32.864930,1742390,1186,1769,421,-1256,-618,-414,-6,154,-160
0,2023-03-01T18:52:32.870386,1742395,1186,1769,421,-1256,-618,-414,-6,154,-160
0,2023-03-01T18:52:32.875463,1742400,1186,1769,421,-1256,-618,-414,-6,154,-160
0,2023-03-01T18:52:32.880547,1742405,1189,1771,424,-1262,-616,-422,-6,154,-160
0,2023-03-01T18:52:32.886431,1742411,1189,1771,424,-1262,-616,-422,-6,154,-160
0,2023-03-01T18:52:32.891211,1742416,1189,1771,424,-1262,-616,-422,-6,154,-160
0,2023-03-01T18:52:32.895974,1742420,1189,1771,424,-1262,-616,-422,-6,154,-160
0,2023-03-01T18:52:32.900573,1742426,1186,1772,421,-1268,-615,-419,-6,154,-160
0,2023-03-01T18:52:32.906590,1742432,1186,1772,421,-1268,-615,-419,-6,154,-160
0,2023-03-01T18:52:32.911585,1742437,1186,1772,421,-1268,-615,-419,-6,154,-160
0,2023-03-01T18:52:32.916547,1742442,1186,1772,421,-1268,-615,-419,-6,154,-160
0,2023-03-01T18:52:32.921613,1742446,1183,1765,422,-1262,-611,-431,-6,154,-160
0,2023-03-01T18:52:32.928195,1742453,1183,1765,422,-1262,-611,-431,-6,154,-160
0,2023-03-01T18:52:32.934023,1742458,1183,1765,422,-1262,-611,-431,-6,154,-160
0,2023-03-01T18:52:32.938712,1742464,1185,1769,426,-1270,-615,-432,-1,155,-159
0,2023-03-01T18:52:32.943807,1742469,1185,1769,426,-1270,-615,-432,-1,155,-159
0,2023-03-01T18:52:32.950248,1742475,1185,1769,426,-1270,-615,-432,-1,155,-159
0,2023-03-01T18:52:32.954963,1742480,1185,1769,426,-1270,-615,-432,-1,155,-159
0,2023-03-01T18:52:32.960369,1742485,1183,1765,432,-1270,-623,-423,-1,155,-159
0,2023-03-01T18:52:32.966265,1742491,1183,1765,432,-1270,-623,-423,-1,155,-159
0,2023-03-01T18:52:32.971952,1742496,1183,1765,432,-1270,-623,-423,-1,155,-159
0,2023-03-01T18:52:32.978176,1742502,1182,1765,435,-1255,-616,-428,-1,155,-159
0,2023-03-01T18:52:32.984355,1742510,1182,1765,435,-1255,-616,-428,-1,155,-159
0,2023-03-01T18:52:32.989888,1742515,1182,1765,435,-1255,-616,-428,-1,155,-159
0,2023-03-01T18:52:32.994397,1742520,1182,1765,435,-1255,-616,-428,-1,155,-159
0,2023-03-01T18:52:32.999315,1742524,1180,1764,426,-1264,-616,-427,-1,155,-159
0,2023-03-01T18:52:33.005121,1742530,1180,1764,426,-1264,-616,-427,-1,155,-159
0,2023-03-01T18:52:33.009982,1742535,1180,1764,426,-1264,-616,-427,-1,155,-159
0,2023-03-01T18:52:33.015060,1742540,1180,1764,426,-1264,-616,-427,-1,155,-159
0,2023-03-01T18:52:33.020000,1742545,1181,1769,426,-1255,-607,-421,-1,155,-159
0,2023-03-01T18:52:33.026028,1742551,1181,1769,426,-1255,-607,-421,-1,155,-159
0,2023-03-01T18:52:33.031500,1742557,1181,1769,426,-1255,-607,-421,-1,155,-159
0,2023-03-01T18:52:33.036604,1742562,1181,1769,426,-1255,-607,-421,-1,155,-159
0,2023-03-01T18:52:33.042039,1742567,1181,1765,434,-1259,-609,-420,-1,155,-159
0,2023-03-01T18:52:33.048230,1742573,1181,1765,434,-1259,-609,-420,-1,155,-159
0,2023-03-01T18:52:33.053396,1742578,1181,1765,434,-1259,-609,-420,-1,155,-159
0,2023-03-01T18:52:33.058010,1742583,1180,1768,436,-1258,-613,-425,-4,155,-159
0,2023-03-01T18:52:33.062541,1742587,1180,1768,436,-1258,-613,-425,-4,160,-158
0,2023-03-01T18:52:33.067565,1742593,1180,1768,436,-1258,-613,-425,-4,160,-158
0,2023-03-01T18:52:33.072331,1742598,1180,1768,436,-1258,-613,-425,-4,160,-158
0,2023-03-01T18:52:33.077331,1742602,1180,1768,436,-1258,-613,-425,-4,160,-158
0,2023-03-01T18:52:33.083279,1742608,1179,1766,429,-1259,-613,-425,-4,160,-158
0,2023-03-01T18:52:33.089004,1742614,1179,1766,429,-1259,-613,-425,-4,160,-158
0,2023-03-01T18:52:33.093860,1742619,1179,1766,429,-1259,-613,-425,-4,160,-158
0,2023-03-01T18:52:33.098778,1742623,1181,1770,432,-1274,-615,-421,-4,160,-158
0,2023-03-01T18:52:33.104727,1742629,1181,1770,432,-1274,-615,-421,-4,160,-158
0,2023-03-01T18:52:33.110235,1742636,1181,1770,432,-1274,-615,-421,-4,160,-158
0,2023-03-01T18:52:33.114976,1742640,1181,1770,432,-1274,-615,-421,-4,160,-158
0,2023-03-01T18:52:33.119884,1742645,1181,1763,432,-1263,-609,-415,-4,160,-158
0,2023-03-01T18:52:33.126033,1742651,1181,1763,432,-1263,-609,-415,-4,160,-158
0,2023-03-01T18:52:33.130851,1742656,1181,1763,432,-1263,-609,-415,-4,160,-158
0,2023-03-01T18:52:33.136036,1742661,1181,1763,432,-1263,-609,-415,-4,160,-158
0,2023-03-01T18:52:33.141157,1742665,1182,1765,432,-1270,-606,-425,-4,160,-158
0,2023-03-01T18:52:33.146850,1742672,1182,1765,432,-1270,-606,-425,-4,160,-158
0,2023-03-01T18:52:33.151900,1742676,1182,1765,432,-1270,-606,-425,-4,160,-158
0,2023-03-01T18:52:33.156670,1742682,1182,1765,432,-1270,-606,-425,-4,160,-158
0,2023-03-01T18:52:33.162389,1742688,1179,1768,437,-1256,-603,-422,-4,160,-158
0,2023-03-01T18:52:33.168132,1742693,1179,1768,437,-1256,-603,-422,-4,160,-158
0,2023-03-01T18:52:33.174090,1742699,1179,1768,437,-1256,-603,-422,-4,160,-158
0,2023-03-01T18:52:33.179425,1742704,1181,1766,432,-1260,-615,-423,1,159,-169
0,2023-03-01T18:52:33.185356,1742710,1181,1766,432,-1260,-615,-423,1,159,-169
0,2023-03-01T18:52:33.191410,1742715,1181,1766,432,-1260,-615,-423,1,159,-169
0,2023-03-01T18:52:33.197930,1742723,1181,1766,432,-1260,-615,-423,1,159,-169
0,2023-03-01T18:52:33.204102,1742729,1181,1768,438,-1261,-614,-428,1,159,-169
0,2023-03-01T18:52:33.210477,1742735,1181,1768,438,-1261,-614,-428,1,159,-169
0,2023-03-01T18:52:33.215631,1742740,1181,1768,438,-1261,-614,-428,1,159,-169
0,2023-03-01T18:52:33.220585,1742745,1175,1764,432,-1259,-604,-427,1,159,-169
0,2023-03-01T18:52:33.226574,1742751,1175,1764,432,-1259,-604,-427,1,159,-169
0,2023-03-01T18:52:33.232496,1742757,1175,1764,432,-1259,-604,-427,1,159,-169
0,2023-03-01T18:52:33.238367,1742763,1175,1764,432,-1259,-604,-427,1,159,-169
0,2023-03-01T18:52:33.243880,1742769,1179,1765,436,-1262,-610,-427,1,159,-169
0,2023-03-01T18:52:33.250014,1742775,1179,1765,436,-1262,-610,-427,1,159,-169
0,2023-03-01T18:52:33.255150,1742780,1179,1765,436,-1262,-610,-427,1,159,-169
0,2023-03-01T18:52:33.260149,1742785,1178,1762,443,-1258,-605,-427,1,159,-169
0,2023-03-01T18:52:33.265905,1742790,1178,1762,443,-1258,-605,-427,1,159,-169
0,2023-03-01T18:52:33.271084,1742795,1178,1762,443,-1258,-605,-427,1,159,-169
0,2023-03-01T18:52:33.276160,1742801,1178,1762,443,-1258,-605,-427,1,159,-169
0,2023-03-01T18:52:33.280638,1742806,1177,1759,442,-1269,-608,-435,1,159,-169
0,2023-03-01T18:52:33.286544,1742812,1177,1759,442,-1269,-608,-435,1,159,-169
0,2023-03-01T18:52:33.291627,1742817,1177,1759,442,-1269,-608,-435,1,159,-169
0,2023-03-01T18:52:33.296420,1742821,1177,1759,442,-1269,-608,-435,1,159,-169
0,2023-03-01T18:52:33.301757,1742826,1179,1768,440,-1272,-608,-430,1,159,-169
0,2023-03-01T18:52:33.308144,1742833,1179,1768,440,-1272,-608,-430,1,159,-169
0,2023-03-01T18:52:33.314398,1742838,1179,1768,440,-1272,-608,-430,1,159,-169
0,2023-03-01T18:52:33.319960,1742844,1173,1760,437,-1263,-616,-432,0,158,-164
0,2023-03-01T18:52:33.325946,1742851,1173,1760,437,-1263,-616,-432,0,158,-164
0,2023-03-01T18:52:33.330769,1742856,1173,1760,437,-1263,-616,-432,0,158,-164
0,2023-03-01T18:52:33.335949,1742861,1173,1760,437,-1263,-616,-432,0,158,-164
0,2023-03-01T18:52:33.341043,1742866,1174,1764,444,-1260,-609,-434,0,158,-164
0,2023-03-01T18:52:33.347108,1742872,1174,1764,444,-1260,-609,-434,0,158,-164
0,2023-03-01T18:52:33.352268,1742877,1174,1764,444,-1260,-609,-434,0,158,-164
0,2023-03-01T18:52:33.357114,1742882,1174,1764,444,-1260,-609,-434,0,158,-164
0,2023-03-01T18:52:33.362606,1742887,1179,1764,446,-1250,-613,-432,0,158,-164
0,2023-03-01T18:52:33.368637,1742894,1179,1764,446,-1250,-613,-432,0,158,-164
0,2023-03-01T18:52:33.373786,1742899,1179,1764,446,-1250,-613,-432,0,158,-164
0,2023-03-01T18:52:33.378728,1742904,1174,1762,448,-1260,-618,-432,0,158,-164
0,2023-03-01T18:52:33.385069,1742910,1174,1762,448,-1260,-618,-432,0,158,-164
0,2023-03-01T18:52:33.389926,1742915,1174,1762,448,-1260,-618,-432,0,158,-164
0,2023-03-01T18:52:33.394829,1742920,1174,1762,448,-1260,-618,-432,0,158,-164
0,2023-03-01T18:52:33.399526,1742924,1176,1762,443,-1265,-619,-429,0,158,-164
0,2023-03-01T18:52:33.405900,1742930,1176,1762,443,-1265,-619,-429,0,158,-164
0,2023-03-01T18:52:33.410999,1742936,1176,1762,443,-1265,-619,-429,0,158,-164
0,2023-03-01T18:52:33.415979,1742941,1176,1762,443,-1265,-619,-429,0,158,-164
0,2023-03-01T18:52:33.420977,1742946,1173,1760,451,-1262,-615,-425,0,158,-164
0,2023-03-01T18:52:33.428129,1742952,1173,1760,451,-1262,-615,-425,0,158,-164
0,2023-03-01T18:52:33.434169,1742959,1173,1760,451,-1262,-615,-425,0,158,-164
0,2023-03-01T18:52:33.439048,1742964,1175,1764,445,-1263,-617,-426,-4,154,-160
0,2023-03-01T18:52:33.444354,1742969,1175,1764,445,-1263,-617,-426,-4,154,-160
0,2023-03-01T18:52:33.449717,1742974,1175,1764,445,-1263,-617,-426,-4,154,-160
0,2023-03-01T18:52:33.454542,1742980,1175,1764,445,-1263,-617,-426,-4,154,-160
0,2023-03-01T18:52:33.459235,1742984,1176,1763,451,-1266,-620,-431,-4,154,-160
0,2023-03-01T18:52:33.465502,1742990,1176,1763,451,-1266,-620,-431,-4,154,-160
0,2023-03-01T18:52:33.471518,1742996,1176,1763,451,-1266,-620,-431,-4,154,-160
0,2023-03-01T18:52:33.476453,1743001,1176,1763,451,-1266,-620,-431,-4,154,-160
0,2023-03-01T18:52:33.481473,1743006,1173,1762,452,-1261,-613,-426,-4,154,-160
0,2023-03-01T18:52:33.487363,1743012,1173,1762,452,-1261,-613,-426,-4,154,-160
0,2023-03-01T18:52:33.492434,1743017,1173,1762,452,-1261,-613,-426,-4,154,-160
0,2023-03-01T18:52:33.497362,1743023,1173,1762,452,-1261,-613,-426,-4,154,-160
0,2023-03-01T18:52:33.502159,1743027,1172,1761,453,-1263,-611,-420,-4,154,-160
0,2023-03-01T18:52:33.507347,1743032,1172,1761,453,-1263,-611,-420,-4,154,-160
0,2023-03-01T18:52:33.512475,1743037,1172,1761,453,-1263,-611,-420,-4,154,-160
0,2023-03-01T18:52:33.517561,1743042,1172,1761,453,-1263,-611,-420,-4,154,-160
0,2023-03-01T18:52:33.522993,1743048,1175,1762,451,-1260,-613,-428,-4,154,-160
0,2023-03-01T18:52:33.528794,1743053,1175,1762,451,-1260,-613,-428,-4,154,-160
0,2023-03-01T18:52:33.534299,1743059,1175,1762,451,-1260,-613,-428,-4,154,-160
0,2023-03-01T18:52:33.539560,1743065,1172,1759,453,-1273,-610,-436,-4,154,-160
0,2023-03-01T18:52:33.545860,1743071,1172,1759,453,-1273,-610,-436,-4,154,-160
0,2023-03-01T18:52:33.551557,1743077,1172,1759,453,-1273,-610,-436,-4,154,-160
0,2023-03-01T18:52:33.556657,1743082,1172,1759,453,-1273,-610,-436,-4,154,-160
0,2023-03-01T18:52:33.561715,1743086,1175,1759,449,-1272,-608,-424,-4,154,-160
0,2023-03-01T18:52:33.567773,1743092,1175,1759,449,-1272,-608,-424,-4,154,-160
0,2023-03-01T18:52:33.572489,1743097,1175,1759,449,-1272,-608,-424,-4,154,-160
0,2023-03-01T18:52:33.577248,1743102,1175,1759,449,-1272,-608,-424,-4,154,-160
0,2023-03-01T18:52:33.582967,1743108,1173,1761,455,-1275,-612,-436,-6,150,-170
0,2023-03-01T18:52:33.588693,1743114,1173,1761,455,-1275,-612,-436,-6,150,-170
0,2023-03-01T18:52:33.594247,1743119,1173,1761,455,-1275,-612,-436,-6,150,-170
0,2023-03-01T18:52:33.598902,1743124,1174,1760,464,-1268,-609,-428,-6,150,-170
0,2023-03-01T18:52:33.604534,1743129,1174,1760,464,-1268,-609,-428,-6,150,-170
0,2023-03-01T18:52:33.610480,1743135,1174,1760,464,-1268,-609,-428,-6,150,-170
0,2023-03-01T18:52:33.615425,1743140,1174,1760,464,-1268,-609,-428,-6,150,-170
0,2023-03-01T18:52:33.620394,1743145,1166,1759,461,-1278,-609,-437,-6,150,-170
0,2023-03-01T18:52:33.626332,1743152,1166,1759,461,-1278,-609,-437,-6,150,-170
0,2023-03-01T18:52:33.631021,1743156,1166,1759,461,-1278,-609,-437,-6,150,-170
0,2023-03-01T18:52:33.635989,1743161,1166,1759,461,-1278,-609,-437,-6,150,-170
0,2023-03-01T18:52:33.640993,1743166,1172,1758,459,-1283,-598,-432,-6,150,-170
0,2023-03-01T18:52:33.647271,1743172,1172,1758,459,-1283,-598,-432,-6,150,-170
0,2023-03-01T18:52:33.652346,1743177,1172,1758,459,-1283,-598,-432,-6,150,-170
0,2023-03-01T18:52:33.657431,1743182,1172,1758,459,-1283,-598,-432,-6,150,-170
0,2023-03-01T18:52:33.662674,1743187,1171,1756,459,-1275,-609,-433,-6,150,-170
0,2023-03-01T18:52:33.668276,1743194,1171,1756,459,-1275,-609,-433,-6,150,-170
0,2023-03-01T18:52:33.674659,1743199,1171,1756,459,-1275,-609,-433,-6,150,-170
0,2023-03-01T18:52:33.679735,1743205,1168,1764,457,-1283,-608,-436,-6,150,-170
0,2023-03-01T18:52:33.685815,1743211,1168,1764,457,-1283,-608,-436,-6,150,-170
0,2023-03-01T18:52:33.692002,1743216,1168,1764,457,-1283,-608,-436,-6,150,-170
0,2023-03-01T18:52:33.697170,1743222,1168,1764,457,-1283,-608,-436,-6,150,-170
0,2023-03-01T18:52:33.702916,1743227,1170,1754,462,-1271,-609,-428,0,164,-164
0,2023-03-01T18:52:33.708735,1743234,1170,1754,462,-1271,-609,-428,0,164,-164
0,2023-03-01T18:52:33.714340,1743240,1170,1754,462,-1271,-609,-428,0,164,-164
0,2023-03-01T18:52:33.719411,1743245,1171,1760,463,-1277,-596,-438,0,164,-164
0,2023-03-01T18:52:33.725013,1743250,1171,1760,463,-1277,-596,-438,0,164,-164
0,2023-03-01T18:52:33.730733,1743256,1171,1760,463,-1277,-596,-438,0,164,-164
0,2023-03-01T18:52:33.735931,1743261,1171,1760,463,-1277,-596,-438,0,164,-164
0,2023-03-01T18:52:33.740719,1743265,1168,1759,464,-1268,-605,-431,0,164,-164
0,2023-03-01T18:52:33.747073,1743272,1168,1759,464,-1268,-605,-431,0,164,-164
0,2023-03-01T18:52:33.751945,1743277,1168,1759,464,-1268,-605,-431,0,164,-164
0,2023-03-01T18:52:33.756872,1743282,1168,1759,464,-1268,-605,-431,0,164,-164
0,2023-03-01T18:52:33.762226,1743287,1170,1759,463,-1269,-618,-439,0,164,-164
0,2023-03-01T18:52:33.767984,1743293,1170,1759,463,-1269,-618,-439,0,164,-164
0,2023-03-01T18:52:33.772894,1743298,1170,1759,463,-1269,-618,-439,0,164,-164
0,2023-03-01T18:52:33.777786,1743303,1170,1759,463,-1269,-618,-439,0,164,-164
0,2023-03-01T18:52:33.783111,1743308,1167,1759,464,-1273,-612,-436,0,164,-164
0,2023-03-01T18:52:33.788911,1743313,1167,1759,464,-1273,-612,-436,0,164,-164
0,2023-03-01T18:52:33.793935,1743319,1167,1759,464,-1273,-612,-436,0,164,-164
0,2023-03-01T18:52:33.799550,1743325,1170,1759,463,-1268,-616,-435,0,164,-164
0,2023-03-01T18:52:33.806557,1743331,1170,1759,463,-1268,-616,-435,0,164,-164
0,2023-03-01T18:52:33.812257,1743337,1170,1759,463,-1268,-616,-435,0,164,-164
0,2023-03-01T18:52:33.817194,1743342,1170,1759,463,-1268,-616,-435,0,164,-164
0,2023-03-01T18:52:33.822765,1743348,1170,1760,467,-1267,-613,-434,-3,151,-163
0,2023-03-01T18:52:33.827955,1743353,1170,1760,467,-1267,-613,-434,-3,151,-163
0,2023-03-01T18:52:33.833837,1743358,1170,1760,467,-1267,-613,-434,-3,151,-163
0,2023-03-01T18:52:33.838769,1743364,1170,1760,467,-1267,-613,-434,-3,151,-163
0,2023-03-01T18:52:33.844183,1743369,1163,1758,461,-1268,-612,-438,-3,151,-163
0,2023-03-01T18:52:33.850028,1743375,1163,1758,461,-1268,-612,-438,-3,151,-163
0,2023-03-01T18:52:33.856584,1743381,1163,1758,461,-1268,-612,-438,-3,151,-163
0,2023-03-01T18:52:33.861421,1743386,1164,1759,462,-1279,-610,-434,-3,151,-163
0,2023-03-01T18:52:33.867724,1743392,1164,1759,462,-1279,-610,-434,-3,151,-163
0,2023-03-01T18:52:33.872469,1743397,1164,1759,462,-1279,-610,-434,-3,151,-163
0,2023-03-01T18:52:33.877373,1743403,1164,1759,462,-1279,-610,-434,-3,151,-163
0,2023-03-01T18:52:33.882952,1743408,1165,1755,472,-1280,-608,-437,-3,151,-163
0,2023-03-01T18:52:33.888294,1743414,1165,1755,472,-1280,-608,-437,-3,151,-163
0,2023-03-01T18:52:33.893170,1743418,1165,1755,472,-1280,-608,-437,-3,151,-163
0,2023-03-01T18:52:33.898173,1743423,1165,1755,472,-1280,-608,-437,-3,151,-163
0,2023-03-01T18:52:33.903532,1743429,1163,1757,468,-1294,-611,-444,-3,151,-163
0,2023-03-01T18:52:33.908753,1743433,1163,1757,468,-1294,-611,-444,-3,151,-163
0,2023-03-01T18:52:33.913481,1743438,1163,1757,468,-1294,-611,-444,-3,151,-163
0,2023-03-01T18:52:33.918127,1743443,1163,1757,468,-1294,-611,-444,-3,151,-163
0,2023-03-01T18:52:33.922927,1743448,1166,1757,470,-1283,-609,-436,-3,151,-163
0,2023-03-01T18:52:33.929043,1743454,1166,1757,470,-1283,-609,-436,-3,151,-163
0,2023-03-01T18:52:33.933880,1743459,1166,1757,470,-1283,-609,-436,-3,151,-163
0,2023-03-01T18:52:33.938837,1743464,1166,1757,470,-1283,-609,-436,-3,151,-163
0,2023-03-01T18:52:33.944177,1743469,1165,1753,471,-1275,-615,-439,-3,151,-163
0,2023-03-01T18:52:33.950323,1743475,1165,1753,471,-1275,-615,-439,-3,151,-163
0,2023-03-01T18:52:33.955059,1743480,1165,1753,471,-1275,-615,-439,-3,151,-163
0,2023-03-01T18:52:33.959969,1743484,1167,1754,473,-1282,-609,-443,-5,161,-165
0,2023-03-01T18:52:33.966295,1743492,1167,1754,473,-1282,-609,-443,-5,161,-165
0,2023-03-01T18:52:33.971348,1743496,1167,1754,473,-1282,-609,-443,-5,161,-165
0,2023-03-01T18:52:33.976097,1743501,1167,1754,473,-1282,-609,-443,-5,161,-165
0,2023-03-01T18:52:33.980734,1743506,1165,1753,476,-1282,-605,-442,-5,161,-165
0,2023-03-01T18:52:33.986329,1743511,1165,1753,476,-1282,-605,-442,-5,161,-165
0,2023-03-01T18:52:33.991379,1743516,1165,1753,476,-1282,-605,-442,-5,161,-165
0,2023-03-01T18:52:33.995942,1743521,1165,1753,476,-1282,-605,-442,-5,161,-165
0,2023-03-01T18:52:34.000935,1743525,1165,1755,473,-1289,-612,-440,-5,161,-165
0,2023-03-01T18:52:34.007131,1743532,1165,1755,473,-1289,-612,-440,-5,161,-165
0,2023-03-01T18:52:34.012401,1743538,1165,1755,473,-1289,-612,-440,-5,161,-165
0,2023-03-01T18:52:34.017411,1743543,1165,1755,473,-1289,-612,-440,-5,161,-165
0,2023-03-01T18:52:34.022096,1743547,1164,1755,477,-1279,-610,-439,-5,161,-165
0,2023-03-01T18:52:34.027587,1743553,1164,1755,477,-1279,-610,-439,-5,161,-165
0,2023-03-01T18:52:34.033375,1743558,1164,1755,477,-1279,-610,-439,-5,161,-165
0,2023-03-01T18:52:34.038380,1743563,1164,1755,477,-1279,-610,-439,-5,161,-165
0,2023-03-01T18:52:34.044046,1743569,1165,1756,473,-1280,-611,-430,-5,161,-165
0,2023-03-01T18:52:34.049537,1743575,1165,1756,473,-1280,-611,-430,-5,161,-165
0,2023-03-01T18:52:34.054470,1743580,1165,1756,473,-1280,-611,-430,-5,161,-165
0,2023-03-01T18:52:34.059550,1743585,1168,1756,478,-1284,-611,-435,-5,161,-165
0,2023-03-01T18:52:34.066015,1743591,1168,1756,478,-1284,-611,-435,-5,161,-165
0,2023-03-01T18:52:34.072128,1743597,1168,1756,478,-1284,-611,-435,-5,161,-165
0,2023-03-01T18:52:34.077284,1743602,1168,1756,478,-1284,-611,-435,-5,161,-165
0,2023-03-01T18:52:34.082874,1743608,1160,1755,484,-1282,-607,-444,-5,159,-165
0,2023-03-01T18:52:34.088361,1743613,1160,1755,484,-1282,-607,-444,-5,159,-165
0,2023-03-01T18:52:34.093152,1743618,1160,1755,484,-1282,-607,-444,-5,159,-165
0,2023-03-01T18:52:34.097827,1743623,1160,1755,484,-1282,-607,-444,-5,159,-165
0,2023-03-01T18:52:34.103291,1743628,1165,1754,475,-1291,-614,-438,-5,159,-165
0,2023-03-01T18:52:34.109446,1743634,1165,1754,475,-1291,-614,-438,-5,159,-165
0,2023-03-01T18:52:34.114434,1743639,1165,1754,475,-1291,-614,-438,-5,159,-165
0,2023-03-01T18:52:34.119725,1743644,1162,1754,482,-1288,-608,-448,-5,159,-165
0,2023-03-01T18:52:34.125851,1743650,1162,1754,482,-1288,-608,-448,-5,159,-165
0,2023-03-01T18:52:34.131013,1743655,1162,1754,482,-1288,-608,-448,-5,159,-165
0,2023-03-01T18:52:34.136096,1743661,1162,1754,482,-1288,-608,-448,-5,159,-165
0,2023-03-01T18:52:34.140780,1743666,1159,1750,481,-1292,-614,-438,-5,159,-165
0,2023-03-01T18:52:34.147484,1743673,1159,1750,481,-1292,-614,-438,-5,159,-165
0,2023-03-01T18:52:34.152419,1743677,1159,1750,481,-1292,-614,-438,-5,159,-165
0,2023-03-01T18:52:34.157096,1743682,1159,1750,481,-1292,-614,-438,-5,159,-165
0,2023-03-01T18:52:34.162746,1743687,1162,1755,480,-1288,-607,-444,-5,159,-165
0,2023-03-01T18:52:34.168017,1743692,1162,1755,480,-1288,-607,-444,-5,159,-165
0,2023-03-01T18:52:34.173060,1743697,1162,1755,480,-1288,-607,-444,-5,159,-165
0,2023-03-01T18:52:34.177950,1743703,1162,1755,480,-1288,-607,-444,-5,159,-165
0,2023-03-01T18:52:34.183758,1743709,1160,1747,484,-1278,-609,-433,-5,159,-165
0,2023-03-01T18:52:34.189362,1743714,1160,1747,484,-1278,-609,-433,-5,159,-165
0,2023-03-01T18:52:34.195000,1743720,1160,1747,484,-1278,-609,-433,-5,159,-165
0,2023-03-01T18:52:34.199968,1743725,1161,1754,479,-1293,-607,-442,-5,159,-165
0,2023-03-01T18:52:34.206421,1743731,1161,1754,479,-1293,-607,-442,-5,159,-165
0,2023-03-01T18:52:34.212416,1743737,1161,1754,479,-1293,-607,-442,-5,159,-165
0,2023-03-01T18:52:34.217493,1743742,1161,1754,479,-1293,-607,-442,-5,159,-165
0,2023-03-01T18:52:34.223283,1743748,1161,1752,490,-1272,-604,-435,-8,154,-160
0,2023-03-01T18:52:34.229518,1743754,1161,1752,490,-1272,-604,-435,-8,154,-160
0,2023-03-01T18:52:34.235019,1743760,1161,1752,490,-1272,-604,-435,-8,154,-160
0,2023-03-01T18:52:34.239844,1743765,1158,1751,487,-1281,-608,-447,-8,154,-160
0,2023-03-01T18:52:34.245934,1743771,1158,1751,487,-1281,-608,-447,-8,154,-160
0,2023-03-01T18:52:34.251343,1743776,1158,1751,487,-1281,-608,-447,-8,154,-160
0,2023-03-01T18:52:34.256133,1743781,1158,1751,487,-1281,-608,-447,-8,154,-160
0,2023-03-01T18:52:34.261446,1743787,1159,1752,490,-1281,-607,-439,-8,154,-160
0,2023-03-01T18:52:34.267603,1743793,1159,1752,490,-1281,-607,-439,-8,154,-160
0,2023-03-01T18:52:34.272349,1743797,1159,1752,490,-1281,-607,-439,-8,154,-160
0,2023-03-01T18:52:34.277349,1743802,1159,1752,490,-1281,-607,-439,-8,154,-160
0,2023-03-01T18:52:34.282511,1743807,1159,1752,489,-1283,-601,-442,-8,154,-160
0,2023-03-01T18:52:34.288688,1743813,1159,1752,489,-1283,-601,-442,-8,154,-160
0,2023-03-01T18:52:34.294488,1743819,1159,1752,489,-1283,-601,-442,-8,154,-160
0,2023-03-01T18:52:34.299421,1743824,1159,1751,485,-1285,-603,-437,-8,154,-160
0,2023-03-01T18:52:34.306517,1743832,1159,1751,485,-1285,-603,-437,-8,154,-160
0,2023-03-01T18:52:34.312082,1743837,1159,1751,485,-1285,-603,-437,-8,154,-160
0,2023-03-01T18:52:34.317539,1743842,1159,1751,485,-1285,-603,-437,-8,154,-160
0,2023-03-01T18:52:34.322586,1743848,1157,1752,484,-1280,-602,-422,-8,154,-160
0,2023-03-01T18:52:34.328213,1743853,1157,1752,484,-1280,-602,-422,-8,154,-160
0,2023-03-01T18:52:34.333227,1743858,1157,1752,484,-1280,-602,-422,-8,154,-160
0,2023-03-01T18:52:34.338105,1743863,1157,1752,484,-1280,-602,-422,-8,154,-160
0,2023-03-01T18:52:34.343859,1743868,1159,1750,492,-1292,-600,-437,-1,157,-159
0,2023-03-01T18:52:34.349200,1743875,1159,1750,492,-1292,-600,-437,-1,157,-159
0,2023-03-01T18:52:34.354059,1743879,1159,1750,492,-1292,-600,-437,-1,157,-159
0,2023-03-01T18:52:34.359276,1743884,1159,1750,492,-1292,-600,-437,-1,157,-159
0,2023-03-01T18:52:34.365270,1743890,1155,1751,493,-1288,-609,-432,-1,157,-159
0,2023-03-01T18:52:34.371142,1743896,1155,1751,493,-1288,-609,-432,-1,157,-159
0,2023-03-01T18:52:34.376403,1743901,1155,1751,493,-1288,-609,-432,-1,157,-159
0,2023-03-01T18:52:34.381407,1743906,1159,1752,495,-1290,-606,-443,-1,157,-159
0,2023-03-01T18:52:34.387614,1743912,1159,1752,495,-1290,-606,-443,-1,157,-159
0,2023-03-01T18:52:34.392582,1743918,1159,1752,495,-1290,-606,-443,-1,157,-159
0,2023-03-01T18:52:34.397780,1743923,1159,1752,495,-1290,-606,-443,-1,157,-159
0,2023-03-01T18:52:34.403191,1743928,1157,1747,487,-1288,-603,-440,-1,157,-159
0,2023-03-01T18:52:34.408429,1743933,1157,1747,487,-1288,-603,-440,-1,157,-159
0,2023-03-01T18:52:34.413300,1743938,1157,1747,487,-1288,-603,-440,-1,157,-159
0,2023-03-01T18:52:34.418263,1743943,1157,1747,487,-1288,-603,-440,-1,157,-159
0,2023-03-01T18:52:34.423696,1743948,1153,1746,498,-1286,-598,-437,-1,157,-159
0,2023-03-01T18:52:34.429178,1743954,1153,1746,498,-1286,-598,-437,-1,157,-159
0,2023-03-01T18:52:34.433900,1743959,1153,1746,498,-1286,-598,-437,-1,157,-159
0,2023-03-01T18:52:34.438508,1743964,1153,1746,498,-1286,-598,-437,-1,157,-159
0,2023-03-01T18:52:34.444047,1743969,1154,1747,498,-1296,-597,-438,-1,157,-159
0,2023-03-01T18:52:34.449830,1743975,1154,1747,498,-1296,-597,-438,-1,157,-159
0,2023-03-01T18:52:34.455468,1743980,1154,1747,498,-1296,-597,-438,-1,157,-159
0,2023-03-01T18:52:34.460305,1743985,1153,1750,492,-1291,-591,-444,-1,157,-159
0,2023-03-01T18:52:34.465889,1743990,1153,1750,492,-1291,-591,-444,-1,157,-159
0,2023-03-01T18:52:34.470972,1743995,1153,1750,492,-1291,-591,-444,-1,157,-159
0,2023-03-01T18:52:34.475855,1744001,1153,1750,492,-1291,-591,-444,-1,157,-159
0,2023-03-01T18:52:34.480796,1744006,1156,1748,497,-1297,-596,-446,-1,155,-157
0,2023-03-01T18:52:34.486821,1744012,1156,1748,497,-1297,-596,-446,-1,155,-157
0,2023-03-01T18:52:34.491711,1744017,1156,1748,497,-1297,-596,-446,-1,155,-157
0,2023-03-01T18:52:34.496899,1744022,1156,1748,497,-1297,-596,-446,-1,155,-157
0,2023-03-01T18:52:34.501533,1744026,1154,1749,501,-1290,-595,-439,-1,155,-157
0,2023-03-01T18:52:34.507550,1744032,1154,1749,501,-1290,-595,-439,-1,155,-157
0,2023-03-01T18:52:34.512434,1744037,1154,1749,501,-1290,-595,-439,-1,155,-157
0,2023-03-01T18:52:34.517181,1744043,1154,1749,501,-1290,-595,-439,-1,155,-157
0,2023-03-01T18:52:34.522200,1744047,1156,1747,504,-1282,-583,-442,-1,155,-157
0,2023-03-01T18:52:34.527731,1744053,1156,1747,504,-1282,-583,-442,-1,155,-157
0,2023-03-01T18:52:34.533613,1744059,1156,1747,504,-1282,-583,-442,-1,155,-157
0,2023-03-01T18:52:34.538472,1744063,1156,1747,504,-1282,-583,-442,-1,155,-157
0,2023-03-01T18:52:34.544097,1744069,1154,1749,501,-1288,-590,-437,-1,155,-157
0,2023-03-01T18:52:34.549333,1744074,1154,1749,501,-1288,-590,-437,-1,155,-157
0,2023-03-01T18:52:34.554355,1744079,1154,1749,501,-1288,-590,-437,-1,155,-157
0,2023-03-01T18:52:34.559389,1744084,1154,1749,501,-1288,-590,-437,-1,155,-157
0,2023-03-01T18:52:34.565275,1744090,1151,1746,499,-1279,-593,-431,-1,155,-157
0,2023-03-01T18:52:34.571212,1744096,1151,1746,499,-1279,-593,-431,-1,155,-157
0,2023-03-01T18:52:34.576339,1744101,1151,1746,499,-1279,-593,-431,-1,155,-157
0,2023-03-01T18:52:34.581644,1744107,1156,1749,501,-1280,-599,-441,-1,155,-157
0,2023-03-01T18:52:34.587918,1744113,1156,1749,501,-1280,-599,-441,-1,155,-157
0,2023-03-01T18:52:34.592893,1744118,1156,1749,501,-1280,-599,-441,-1,155,-157
0,2023-03-01T18:52:34.597807,1744122,1156,1749,501,-1280,-599,-441,-1,155,-157
0,2023-03-01T18:52:34.603197,1744129,1154,1746,503,-1272,-597,-434,-4,152,-160
0,2023-03-01T18:52:34.608719,1744134,1154,1746,503,-1272,-597,-434,-4,152,-160
0,2023-03-01T18:52:34.613801,1744139,1154,1746,503,-1272,-597,-434,-4,152,-160
0,2023-03-01T18:52:34.618695,1744144,1154,1746,503,-1272,-597,-434,-4,152,-160
0,2023-03-01T18:52:34.623510,1744149,1155,1748,506,-1281,-600,-434,-4,152,-160
0,2023-03-01T18:52:34.628840,1744154,1155,1748,506,-1281,-600,-434,-4,152,-160
0,2023-03-01T18:52:34.634139,1744159,1155,1748,506,-1281,-600,-434,-4,152,-160
0,2023-03-01T18:52:34.639102,1744164,1155,1748,506,-1281,-600,-434,-4,152,-160
0,2023-03-01T18:52:34.644737,1744169,1153,1748,501,-1277,-599,-434,-4,152,-160
0,2023-03-01T18:52:34.650619,1744176,1153,1748,501,-1277,-599,-434,-4,152,-160
0,2023-03-01T18:52:34.656242,1744181,1153,1748,501,-1277,-599,-434,-4,152,-160
0,2023-03-01T18:52:34.661267,1744186,1151,1744,501,-1277,-599,-431,-4,152,-160
0,2023-03-01T18:52:34.666523,1744192,1151,1744,501,-1277,-599,-431,-4,152,-160
0,2023-03-01T18:52:34.671337,1744196,1151,1744,501,-1277,-599,-431,-4,152,-160
0,2023-03-01T18:52:34.676047,1744201,1151,1744,501,-1277,-599,-431,-4,152,-160
0,2023-03-01T18:52:34.680732,1744205,1150,1745,509,-1280,-600,-436,-4,152,-160
0,2023-03-01T18:52:34.686427,1744211,1150,1745,509,-1280,-600,-436,-4,152,-160
0,2023-03-01T18:52:34.691210,1744217,1150,1745,509,-1280,-600,-436,-4,152,-160
0,2023-03-01T18:52:34.695947,1744221,1150,1745,509,-1280,-600,-436,-4,152,-160
0,2023-03-01T18:52:34.700889,1744226,1149,1745,507,-1287,-590,-432,-4,152,-160
0,2023-03-01T18:52:34.707121,1744232,1149,1745,507,-1287,-590,-432,-4,152,-160
0,2023-03-01T18:52:34.712069,1744237,1149,1745,507,-1287,-590,-432,-4,152,-160
0,2023-03-01T18:52:34.717114,1744242,1149,1745,507,-1287,-590,-432,-4,152,-160
0,2023-03-01T18:52:34.721821,1744247,1148,1749,508,-1282,-586,-435,2,152,-162
0,2023-03-01T18:52:34.728000,1744252,1148,1749,508,-1282,-586,-435,2,152,-162
0,2023-03-01T18:52:34.733595,1744259,1148,1749,508,-1282,-586,-435,2,152,-162
0,2023-03-01T18:52:34.738404,1744264,1148,1749,508,-1282,-586,-435,2,152,-162
0,2023-03-01T18:52:34.744011,1744269,1152,1745,516,-1276,-586,-432,2,152,-162
0,2023-03-01T18:52:34.749477,1744274,1152,1745,516,-1276,-586,-432,2,152,-162
0,2023-03-01T18:52:34.754486,1744279,1152,1745,516,-1276,-586,-432,2,152,-162
0,2023-03-01T18:52:34.759370,1744284,1152,1745,516,-1276,-586,-432,2,152,-162
0,2023-03-01T18:52:34.764060,1744289,1147,1746,518,-1278,-580,-437,2,152,-162
0,2023-03-01T18:52:34.769839,1744294,1147,1746,518,-1278,-580,-437,2,152,-162
0,2023-03-01T18:52:34.775286,1744301,1147,1746,518,-1278,-580,-437,2,152,-162
0,2023-03-01T18:52:34.780012,1744305,1150,1745,511,-1272,-583,-437,2,152,-162
0,2023-03-01T18:52:34.785952,1744311,1150,1745,511,-1272,-583,-437,2,152,-162
0,2023-03-01T18:52:34.791359,1744316,1150,1745,511,-1272,-583,-437,2,152,-162
0,2023-03-01T18:52:34.796134,1744321,1150,1745,511,-1272,-583,-437,2,152,-162
0,2023-03-01T18:52:34.801525,1744326,1149,1745,513,-1279,-587,-437,2,152,-162
0,2023-03-01T18:52:34.808090,1744333,1149,1745,513,-1279,-587,-437,2,152,-162
0,2023-03-01T18:52:34.813594,1744338,1149,1745,513,-1279,-587,-437,2,152,-162
0,2023-03-01T18:52:34.818861,1744344,1149,1745,513,-1279,-587,-437,2,152,-162
0,2023-03-01T18:52:34.824545,1744350,1148,1747,510,-1282,-597,-435,2,152,-162
0,2023-03-01T18:52:34.830670,1744356,1148,1747,510,-1282,-597,-435,2,152,-162
0,2023-03-01T18:52:34.835806,1744361,1148,1747,510,-1282,-597,-435,2,152,-162
0,2023-03-01T18:52:34.840800,1744366,1146,1740,515,-1277,-582,-431,2,152,-162
0,2023-03-01T18:52:34.846603,1744371,1146,1740,515,-1277,-582,-431,2,152,-162
0,2023-03-01T18:52:34.851765,1744376,1146,1740,515,-1277,-582,-431,2,152,-162
0,2023-03-01T18:52:34.856618,1744381,1146,1740,515,-1277,-582,-431,2,152,-162
0,2023-03-01T18:52:34.861466,1744387,1150,1746,513,-1283,-589,-440,1,157,-163
0,2023-03-01T18:52:34.868240,1744393,1150,1746,513,-1283,-589,-440,1,157,-163
0,2023-03-01T18:52:34.872987,1744398,1150,1746,513,-1283,-589,-440,1,157,-163
0,2023-03-01T18:52:34.877877,1744403,1150,1746,513,-1283,-589,-440,1,157,-163
0,2023-03-01T18:52:34.883514,1744408,1147,1739,521,-1275,-592,-433,1,157,-163
0,2023-03-01T18:52:34.888847,1744414,1147,1739,521,-1275,-592,-433,1,157,-163
0,2023-03-01T18:52:34.893751,1744418,1147,1739,521,-1275,-592,-433,1,157,-163
0,2023-03-01T18:52:34.899011,1744423,1147,1739,521,-1275,-592,-433,1,157,-163
0,2023-03-01T18:52:34.904538,1744430,1147,1742,521,-1275,-591,-435,1,157,-163
0,2023-03-01T18:52:34.910992,1744436,1147,1742,521,-1275,-591,-435,1,157,-163
0,2023-03-01T18:52:34.915922,1744441,1147,1742,521,-1275,-591,-435,1,157,-163
0,2023-03-01T18:52:34.920705,1744446,1146,1742,519,-1276,-603,-439,1,157,-163
0,2023-03-01T18:52:34.926579,1744451,1146,1742,519,-1276,-603,-439,1,157,-163
0,2023-03-01T18:52:34.931810,1744457,1146,1742,519,-1276,-603,-439,1,157,-163
0,2023-03-01T18:52:34.936616,1744461,1146,1742,519,-1276,-603,-439,1,157,-163
0,2023-03-01T18:52:34.941503,1744466,1149,1744,518,-1276,-596,-441,1,157,-163
0,2023-03-01T18:52:34.947448,1744473,1149,1744,518,-1276,-596,-441,1,157,-163
0,2023-03-01T18:52:34.952198,1744477,1149,1744,518,-1276,-596,-441,1,157,-163
0,2023-03-01T18:52:34.957129,1744482,1149,1744,518,-1276,-596,-441,1,157,-163
0,2023-03-01T18:52:34.961631,1744487,1144,1742,519,-1277,-595,-433,1,157,-163
0,2023-03-01T18:52:34.967614,1744493,1144,1742,519,-1277,-595,-433,1,157,-163
0,2023-03-01T18:52:34.972529,1744497,1144,1742,519,-1277,-595,-433,1,157,-163
0,2023-03-01T18:52:34.977366,1744502,1144,1742,519,-1277,-595,-433,1,157,-163
0,2023-03-01T18:52:34.982682,1744507,1143,1743,519,-1271,-600,-436,-3,159,-159
0,2023-03-01T18:52:34.987938,1744513,1143,1743,519,-1271,-600,-436,-3,159,-159
0,2023-03-01T18:52:34.992820,1744518,1143,1743,519,-1271,-600,-436,-3,159,-159
0,2023-03-01T18:52:34.998157,1744523,1143,1743,519,-1271,-600,-436,-3,159,-159
0,2023-03-01T18:52:35.003591,1744529,1147,1747,524,-1280,-599,-440,-3,159,-159
0,2023-03-01T18:52:35.009016,1744534,1147,1747,524,-1280,-599,-440,-3,159,-159
0,2023-03-01T18:52:35.014071,1744539,1147,1747,524,-1280,-599,-440,-3,159,-159
0,2023-03-01T18:52:35.019418,1744544,1147,1747,524,-1280,-599,-440,-3,159,-159
0,2023-03-01T18:52:35.025015,1744550,1144,1739,521,-1284,-597,-446,-3,159,-159
0,2023-03-01T18:52:35.031008,1744557,1144,1739,521,-1284,-597,-446,-3,159,-159
0,2023-03-01T18:52:35.035958,1744561,1144,1739,521,-1284,-597,-446,-3,159,-159
0,2023-03-01T18:52:35.041324,1744566,1137,1739,524,-1278,-595,-429,-3,159,-159
0,2023-03-01T18:52:35.047273,1744572,1137,1739,524,-1278,-595,-429,-3,159,-159
0,2023-03-01T18:52:35.052928,1744578,1137,1739,524,-1278,-595,-429,-3,159,-159
0,2023-03-01T18:52:35.058022,1744583,1137,1739,524,-1278,-595,-429,-3,159,-159
0,2023-03-01T18:52:35.063276,1744588,1145,1744,525,-1283,-597,-431,-3,159,-159
0,2023-03-01T18:52:35.069260,1744594,1145,1744,525,-1283,-597,-431,-3,159,-159
0,2023-03-01T18:52:35.073912,1744599,1145,1744,525,-1283,-597,-431,-3,159,-159
0,2023-03-01T18:52:35.079062,1744604,1145,1744,525,-1283,-597,-431,-3,159,-159
0,2023-03-01T18:52:35.084494,1744610,1143,1741,524,-1279,-585,-440,-3,159,-159
0,2023-03-01T18:52:35.090235,1744615,1143,1741,524,-1279,-585,-440,-3,159,-159
0,2023-03-01T18:52:35.095436,1744620,1143,1741,524,-1279,-585,-440,-3,159,-159
0,2023-03-01T18:52:35.100531,1744625,1141,1738,519,-1286,-587,-433,-3,159,-159
0,2023-03-01T18:52:35.106546,1744631,1141,1738,519,-1286,-587,-433,-3,159,-159
0,2023-03-01T18:52:35.111475,1744636,1141,1738,519,-1286,-587,-433,-3,159,-159
0,2023-03-01T18:52:35.117111,1744643,1141,1738,519,-1286,-587,-433,-3,159,-159
0,2023-03-01T18:52:35.121759,1744647,1138,1737,536,-1272,-580,-437,-4,156,-160
0,2023-03-01T18:52:35.127634,1744653,1138,1737,536,-1272,-580,-437,-4,156,-160
0,2023-03-01T18:52:35.132924,1744658,1138,1737,536,-1272,-580,-437,-4,156,-160
0,2023-03-01T18:52:35.138111,1744663,1138,1737,536,-1272,-580,-437,-4,156,-160
0,2023-03-01T18:52:35.143727,1744668,1141,1738,528,-1282,-595,-439,-4,156,-160
0,2023-03-01T18:52:35.149115,1744674,1141,1738,528,-1282,-595,-439,-4,156,-160
0,2023-03-01T18:52:35.154422,1744679,1141,1738,528,-1282,-595,-439,-4,156,-160
0,2023-03-01T18:52:35.159219,1744684,1141,1738,528,-1282,-595,-439,-4,156,-160
0,2023-03-01T18:52:35.164746,1744690,1143,1741,526,-1286,-596,-433,-4,156,-160
0,2023-03-01T18:52:35.170460,1744696,1143,1741,526,-1286,-596,-433,-4,156,-160
0,2023-03-01T18:52:35.175213,1744700,1143,1741,526,-1286,-596,-433,-4,156,-160
0,2023-03-01T18:52:35.179950,1744705,1143,1741,526,-1286,-596,-433,-4,156,-160
