imu,server_time,arduino_time,ax,ay,az,gx,gy,gz,mx,my,mz
0,2023-03-01T18:51:32.901927,1682423,1383,1840,-495,-1188,-799,-301,-61,169,-275
0,2023-03-01T18:51:32.907947,1682429,1377,1840,-495,-1186,-788,-303,-61,169,-275
0,2023-03-01T18:51:32.913956,1682436,1377,1840,-495,-1186,-788,-303,-61,169,-275
0,2023-03-01T18:51:32.918624,1682440,1377,1840,-495,-1186,-788,-303,-61,169,-275
0,2023-03-01T18:51:32.923414,1682445,1377,1840,-495,-1186,-788,-303,-61,169,-275
0,2023-03-01T18:51:32.928756,1682450,1383,1840,-496,-1182,-786,-303,-61,169,-275
0,2023-03-01T18:51:32.934336,1682456,1383,1840,-496,-1182,-786,-303,-61,169,-275
0,2023-03-01T18:51:32.940059,1682462,1383,1840,-496,-1182,-786,-303,-61,169,-275
0,2023-03-01T18:51:32.945482,1682467,1381,1840,-495,-1182,-788,-305,-61,169,-275
0,2023-03-01T18:51:32.951074,1682472,1381,1840,-495,-1182,-788,-305,-61,169,-275
0,2023-03-01T18:51:32.955915,1682478,1381,1840,-495,-1182,-788,-305,-61,169,-275
0,2023-03-01T18:51:32.961087,1682483,1381,1840,-495,-1182,-788,-305,-61,169,-275
0,2023-03-01T18:51:32.965963,1682488,1385,1838,-496,-1199,-797,-300,-61,169,-275
0,2023-03-01T18:51:32.971490,1682493,1385,1838,-496,-1199,-797,-300,-61,169,-275
0,2023-03-01T18:51:32.977353,1682499,1385,1838,-496,-1199,-797,-300,-61,169,-275
0,2023-03-01T18:51:32.982544,1682504,1385,1838,-496,-1199,-797,-300,-61,169,-275
0,2023-03-01T18:51:32.987927,1682509,1382,1836,-485,-1186,-801,-299,-68,166,-278
0,2023-03-01T18:51:32.993045,1682514,1382,1836,-485,-1186,-801,-299,-68,166,-278
0,2023-03-01T18:51:32.998976,1682521,1382,1836,-485,-1186,-801,-299,-68,166,-278
0,2023-03-01T18:51:33.003880,1682526,1380,1835,-488,-1192,-802,-295,-68,166,-278
0,2023-03-01T18:51:33.009839,1682531,1380,1835,-488,-1192,-802,-295,-68,166,-278
0,2023-03-01T18:51:33.014703,1682536,1380,1835,-488,-1192,-802,-295,-68,166,-278
0,2023-03-01T18:51:33.020561,1682542,1380,1835,-488,-1192,-802,-295,-68,166,-278
0,2023-03-01T18:51:33.025974,1682547,1381,1841,-496,-1198,-804,-306,-68,166,-278
0,2023-03-01T18:51:33.031007,1682552,1381,1841,-496,-1198,-804,-306,-68,166,-278
0,2023-03-01T18:51:33.036290,1682557,1381,1841,-496,-1198,-804,-306,-68,166,-278
0,2023-03-01T18:51:33.040811,1682563,1381,1841,-496,-1198,-804,-306,-68,166,-278
0,2023-03-01T18:51:33.045662,1682568,1384,1844,-490,-1201,-804,-305,-68,166,-278
0,2023-03-01T18:51:33.051763,1682573,1384,1844,-490,-1201,-804,-305,-68,166,-278
0,2023-03-01T18:51:33.056879,1682578,1384,1844,-490,-1201,-804,-305,-68,166,-278
0,2023-03-01T18:51:33.061587,1682583,1384,1844,-490,-1201,-804,-305,-68,166,-278
0,2023-03-01T18:51:33.067210,1682588,1383,1843,-496,-1189,-810,-301,-68,166,-278
0,2023-03-01T18:51:33.072747,1682594,1383,1843,-496,-1189,-810,-301,-68,166,-278
0,2023-03-01T18:51:33.077650,1682599,1383,1843,-496,-1189,-810,-301,-68,166,-278
0,2023-03-01T18:51:33.082352,1682604,1383,1843,-496,-1189,-810,-301,-68,166,-278
0,2023-03-01T18:51:33.087172,1682609,1383,1843,-496,-1189,-810,-301,-68,166,-278
0,2023-03-01T18:51:33.092490,1682614,1383,1843,-496,-1189,-810,-301,-68,166,-278
0,2023-03-01T18:51:33.098003,1682620,1383,1843,-496,-1189,-810,-301,-68,166,-278
0,2023-03-01T18:51:33.102506,1682624,1383,1843,-496,-1189,-810,-301,-68,166,-278
0,2023-03-01T18:51:33.107847,1682629,1382,1840,-493,-1193,-802,-289,-68,164,-276
0,2023-03-01T18:51:33.113149,1682635,1382,1840,-493,-1193,-802,-289,-68,164,-276
0,2023-03-01T18:51:33.117928,1682639,1382,1840,-493,-1193,-802,-289,-68,164,-276
0,2023-03-01T18:51:33.122951,1682644,1382,1840,-493,-1193,-802,-289,-68,164,-276
0,2023-03-01T18:51:33.128591,1682650,1383,1840,-491,-1188,-800,-297,-68,164,-276
0,2023-03-01T18:51:33.133993,1682656,1383,1840,-491,-1188,-800,-297,-68,164,-276
0,2023-03-01T18:51:33.138512,1682660,1383,1840,-491,-1188,-800,-297,-68,164,-276
0,2023-03-01T18:51:33.143004,1682665,1383,1840,-491,-1188,-800,-297,-68,164,-276
0,2023-03-01T18:51:33.148022,1682670,1384,1842,-500,-1189,-798,-298,-68,164,-276
0,2023-03-01T18:51:33.153368,1682675,1384,1842,-500,-1189,-798,-298,-68,164,-276
0,2023-03-01T18:51:33.158230,1682679,1384,1842,-500,-1189,-798,-298,-68,164,-276
0,2023-03-01T18:51:33.163196,1682684,1384,1842,-500,-1189,-798,-298,-68,164,-276
0,2023-03-01T18:51:33.168804,1682691,1381,1838,-493,-1196,-795,-303,-68,164,-276
0,2023-03-01T18:51:33.173981,1682696,1381,1838,-493,-1196,-795,-303,-68,164,-276
0,2023-03-01T18:51:33.179185,1682701,1381,1838,-493,-1196,-795,-303,-68,164,-276
0,2023-03-01T18:51:33.184857,1682706,1381,1840,-491,-1191,-799,-300,-68,164,-276
0,2023-03-01T18:51:33.190409,1682712,1381,1840,-491,-1191,-799,-300,-68,164,-276
0,2023-03-01T18:51:33.195132,1682716,1381,1840,-491,-1191,-799,-300,-68,164,-276
0,2023-03-01T18:51:33.200768,1682722,1381,1840,-491,-1191,-799,-300,-68,164,-276
0,2023-03-01T18:51:33.207103,1682727,1383,1842,-489,-1182,-784,-306,-68,164,-276
0,2023-03-01T18:51:33.212783,1682734,1383,1842,-489,-1182,-784,-306,-68,164,-276
0,2023-03-01T18:51:33.218612,1682740,1383,1842,-489,-1182,-784,-306,-68,164,-276
0,2023-03-01T18:51:33.223397,1682745,1383,1842,-489,-1182,-784,-306,-68,164,-276
0,2023-03-01T18:51:33.228640,1682750,1380,1840,-499,-1190,-786,-301,-68,164,-276
0,2023-03-01T18:51:33.233825,1682756,1380,1840,-499,-1190,-786,-301,-68,164,-276
0,2023-03-01T18:51:33.238646,1682760,1380,1840,-499,-1190,-786,-301,-68,164,-276
0,2023-03-01T18:51:33.243441,1682765,1380,1840,-499,-1190,-786,-301,-68,164,-276
0,2023-03-01T18:51:33.248941,1682770,1384,1840,-494,-1182,-787,-308,-64,172,-274
0,2023-03-01T18:51:33.254504,1682776,1384,1840,-494,-1182,-787,-308,-64,172,-274
0,2023-03-01T18:51:33.258984,1682781,1384,1840,-494,-1182,-787,-308,-64,172,-274
0,2023-03-01T18:51:33.264301,1682786,1382,1835,-493,-1178,-790,-303,-64,172,-274
0,2023-03-01T18:51:33.270440,1682791,1382,1835,-493,-1178,-790,-303,-64,172,-274
0,2023-03-01T18:51:33.276986,1682798,1382,1835,-493,-1178,-790,-303,-64,172,-274
0,2023-03-01T18:51:33.282241,1682803,1382,1835,-493,-1178,-790,-303,-64,172,-274
0,2023-03-01T18:51:33.287555,1682809,1383,1839,-495,-1185,-789,-303,-64,172,-274
0,2023-03-01T18:51:33.293352,1682814,1383,1839,-495,-1185,-789,-303,-64,172,-274
0,2023-03-01T18:51:33.298979,1682821,1383,1839,-495,-1185,-789,-303,-64,172,-274
0,2023-03-01T18:51:33.303931,1682826,1383,1839,-495,-1185,-789,-303,-64,172,-274
0,2023-03-01T18:51:33.309809,1682831,1385,1839,-499,-1184,-791,-297,-64,172,-274
0,2023-03-01T18:51:33.315104,1682837,1385,1839,-499,-1184,-791,-297,-64,172,-274
0,2023-03-01T18:51:33.319681,1682841,1385,1839,-499,-1184,-791,-297,-64,172,-274
0,2023-03-01T18:51:33.325245,1682846,1385,1836,-492,-1180,-788,-299,-64,172,-274
0,2023-03-01T18:51:33.331292,1682852,1385,1836,-492,-1180,-788,-299,-64,172,-274
0,2023-03-01T18:51:33.338054,1682860,1385,1836,-492,-1180,-788,-299,-64,172,-274
0,2023-03-01T18:51:33.342574,1682865,1385,1836,-492,-1180,-788,-299,-64,172,-274
0,2023-03-01T18:51:33.347918,1682870,1383,1844,-496,-1175,-788,-299,-64,172,-274
0,2023-03-01T18:51:33.353394,1682875,1383,1844,-496,-1175,-788,-299,-64,172,-274
0,2023-03-01T18:51:33.358681,1682880,1383,1844,-496,-1175,-788,-299,-64,172,-274
0,2023-03-01T18:51:33.363492,1682885,1383,1844,-496,-1175,-788,-299,-64,172,-274
0,2023-03-01T18:51:33.368985,1682890,1382,1837,-491,-1182,-789,-299,-68,170,-280
0,2023-03-01T18:51:33.374320,1682896,1382,1837,-491,-1182,-789,-299,-68,170,-280
0,2023-03-01T18:51:33.378945,1682900,1382,1837,-491,-1182,-789,-299,-68,170,-280
0,2023-03-01T18:51:33.383975,1682906,1382,1837,-491,-1182,-789,-299,-68,170,-280
0,2023-03-01T18:51:33.390134,1682912,1380,1836,-492,-1189,-795,-299,-68,170,-280
0,2023-03-01T18:51:33.395540,1682917,1380,1836,-492,-1189,-795,-299,-68,170,-280
0,2023-03-01T18:51:33.399960,1682922,1380,1836,-492,-1189,-795,-299,-68,170,-280
0,2023-03-01T18:51:33.405085,1682927,1384,1839,-499,-1181,-784,-303,-68,170,-280
0,2023-03-01T18:51:33.410460,1682932,1384,1839,-499,-1181,-784,-303,-68,170,-280
0,2023-03-01T18:51:33.415053,1682936,1384,1839,-499,-1181,-784,-303,-68,170,-280
0,2023-03-01T18:51:33.419976,1682941,1384,1839,-499,-1181,-784,-303,-68,170,-280
0,2023-03-01T18:51:33.425437,1682947,1381,1836,-496,-1180,-778,-298,-68,170,-280
0,2023-03-01T18:51:33.430711,1682953,1381,1836,-496,-1180,-778,-298,-68,170,-280
0,2023-03-01T18:51:33.435722,1682957,1381,1836,-496,-1180,-778,-298,-68,170,-280
0,2023-03-01T18:51:33.440461,1682962,1381,1836,-496,-1180,-778,-298,-68,170,-280
0,2023-03-01T18:51:33.445770,1682967,1381,1839,-492,-1178,-782,-300,-68,170,-280
0,2023-03-01T18:51:33.451067,1682973,1381,1839,-492,-1178,-782,-300,-68,170,-280
0,2023-03-01T18:51:33.456864,1682978,1381,1839,-492,-1178,-782,-300,-68,170,-280
0,2023-03-01T18:51:33.462394,1682983,1381,1839,-492,-1178,-782,-300,-68,170,-280
0,2023-03-01T18:51:33.467862,1682990,1384,1839,-500,-1176,-779,-297,-68,170,-280
0,2023-03-01T18:51:33.473005,1682995,1384,1839,-500,-1176,-779,-297,-68,170,-280
0,2023-03-01T18:51:33.478393,1683000,1384,1839,-500,-1176,-779,-297,-68,170,-280
0,2023-03-01T18:51:33.483028,1683005,1384,1839,-500,-1176,-779,-297,-68,170,-280
0,2023-03-01T18:51:33.489930,1683010,1382,1841,-501,-1168,-777,-300,-68,170,-280
0,2023-03-01T18:51:33.496267,1683017,1382,1841,-501,-1168,-777,-300,-68,170,-280
0,2023-03-01T18:51:33.502379,1683023,1382,1841,-501,-1168,-777,-300,-68,170,-280
0,2023-03-01T18:51:33.507816,1683030,1382,1842,-492,-1181,-783,-296,-65,167,-269
0,2023-03-01T18:51:33.512803,1683035,1382,1842,-492,-1181,-783,-296,-65,167,-269
0,2023-03-01T18:51:33.517737,1683039,1382,1842,-492,-1181,-783,-296,-65,167,-269
0,2023-03-01T18:51:33.522579,1683044,1382,1842,-492,-1181,-783,-296,-65,167,-269
0,2023-03-01T18:51:33.528007,1683050,1382,1839,-495,-1174,-761,-296,-65,167,-269
0,2023-03-01T18:51:33.533322,1683055,1382,1839,-495,-1174,-761,-296,-65,167,-269
0,2023-03-01T18:51:33.537944,1683059,1382,1839,-495,-1174,-761,-296,-65,167,-269
0,2023-03-01T18:51:33.543041,1683064,1382,1839,-495,-1174,-761,-296,-65,167,-269
0,2023-03-01T18:51:33.548634,1683070,1383,1838,-499,-1169,-768,-306,-65,167,-269
0,2023-03-01T18:51:33.554323,1683076,1383,1838,-499,-1169,-768,-306,-65,167,-269
0,2023-03-01T18:51:33.558922,1683081,1383,1838,-499,-1169,-768,-306,-65,167,-269
0,2023-03-01T18:51:33.563534,1683085,1383,1838,-499,-1169,-768,-306,-65,167,-269
0,2023-03-01T18:51:33.568776,1683090,1385,1838,-498,-1165,-763,-297,-65,167,-269
0,2023-03-01T18:51:33.574386,1683096,1385,1838,-498,-1165,-763,-297,-65,167,-269
0,2023-03-01T18:51:33.579944,1683101,1385,1838,-498,-1165,-763,-297,-65,167,-269
0,2023-03-01T18:51:33.585111,1683107,1381,1835,-493,-1162,-761,-304,-65,167,-269
0,2023-03-01T18:51:33.591705,1683113,1381,1835,-493,-1162,-761,-304,-65,167,-269
0,2023-03-01T18:51:33.596540,1683118,1381,1835,-493,-1162,-761,-304,-65,167,-269
0,2023-03-01T18:51:33.601835,1683123,1381,1835,-493,-1162,-761,-304,-65,167,-269
0,2023-03-01T18:51:33.607080,1683129,1385,1840,-499,-1157,-768,-308,-65,167,-269
0,2023-03-01T18:51:33.612885,1683134,1385,1840,-499,-1157,-768,-308,-65,167,-269
0,2023-03-01T18:51:33.617831,1683139,1385,1840,-499,-1157,-768,-308,-65,167,-269
0,2023-03-01T18:51:33.622785,1683144,1385,1840,-499,-1157,-768,-308,-65,167,-269
0,2023-03-01T18:51:33.628033,1683149,1385,1839,-501,-1163,-764,-301,-66,164,-276
0,2023-03-01T18:51:33.633729,1683155,1385,1839,-501,-1163,-764,-301,-66,164,-276
0,2023-03-01T18:51:33.639147,1683161,1385,1839,-501,-1163,-764,-301,-66,164,-276
0,2023-03-01T18:51:33.644546,1683166,1385,1839,-501,-1163,-764,-301,-66,164,-276
0,2023-03-01T18:51:33.649957,1683172,1383,1834,-493,-1168,-766,-300,-66,164,-276
0,2023-03-01T18:51:33.655505,1683177,1383,1834,-493,-1168,-766,-300,-66,164,-276
0,2023-03-01T18:51:33.660481,1683182,1383,1834,-493,-1168,-766,-300,-66,164,-276
0,2023-03-01T18:51:33.666903,1683188,1383,1842,-499,-1177,-771,-306,-66,164,-276
0,2023-03-01T18:51:33.672797,1683194,1383,1842,-499,-1177,-771,-306,-66,164,-276
0,2023-03-01T18:51:33.678809,1683200,1383,1842,-499,-1177,-771,-306,-66,164,-276
0,2023-03-01T18:51:33.684064,1683206,1383,1842,-499,-1177,-771,-306,-66,164,-276
0,2023-03-01T18:51:33.689906,1683212,1383,1838,-498,-1177,-766,-296,-66,164,-276
0,2023-03-01T18:51:33.695688,1683217,1383,1838,-498,-1177,-766,-296,-66,164,-276
0,2023-03-01T18:51:33.700487,1683222,1383,1838,-498,-1177,-766,-296,-66,164,-276
0,2023-03-01T18:51:33.706349,1683228,1382,1837,-497,-1171,-774,-295,-66,164,-276
0,2023-03-01T18:51:33.712238,1683233,1382,1837,-497,-1171,-774,-295,-66,164,-276
0,2023-03-01T18:51:33.718216,1683239,1382,1837,-497,-1171,-774,-295,-66,164,-276
0,2023-03-01T18:51:33.723725,1683245,1382,1837,-497,-1171,-774,-295,-66,164,-276
0,2023-03-01T18:51:33.729797,1683252,1385,1839,-498,-1184,-779,-301,-66,164,-276
0,2023-03-01T18:51:33.735772,1683257,1385,1839,-498,-1184,-779,-301,-66,164,-276
0,2023-03-01T18:51:33.741903,1683263,1385,1839,-498,-1184,-779,-301,-66,164,-276
0,2023-03-01T18:51:33.747692,1683269,1383,1834,-495,-1188,-779,-294,-58,176,-270
0,2023-03-01T18:51:33.753256,1683275,1383,1834,-495,-1188,-779,-294,-58,176,-270
0,2023-03-01T18:51:33.759084,1683280,1383,1834,-495,-1188,-779,-294,-58,176,-270
0,2023-03-01T18:51:33.763973,1683286,1383,1834,-495,-1188,-779,-294,-58,176,-270
0,2023-03-01T18:51:33.769606,1683291,1383,1841,-492,-1182,-774,-302,-58,176,-270
0,2023-03-01T18:51:33.775880,1683297,1383,1841,-492,-1182,-774,-302,-58,176,-270
0,2023-03-01T18:51:33.781439,1683303,1383,1841,-492,-1182,-774,-302,-58,176,-270
0,2023-03-01T18:51:33.787067,1683309,1384,1839,-498,-1175,-783,-304,-58,176,-270
0,2023-03-01T18:51:33.792766,1683314,1384,1839,-498,-1175,-783,-304,-58,176,-270
0,2023-03-01T18:51:33.797956,1683319,1384,1839,-498,-1175,-783,-304,-58,176,-270
0,2023-03-01T18:51:33.803071,1683324,1384,1839,-498,-1175,-783,-304,-58,176,-270
0,2023-03-01T18:51:33.808523,1683331,1384,1837,-488,-1181,-770,-290,-58,176,-270
0,2023-03-01T18:51:33.814401,1683336,1384,1837,-488,-1181,-770,-290,-58,176,-270
0,2023-03-01T18:51:33.820284,1683342,1384,1837,-488,-1181,-770,-290,-58,176,-270
0,2023-03-01T18:51:33.826164,1683348,1383,1838,-498,-1182,-777,-302,-58,176,-270
0,2023-03-01T18:51:33.832136,1683353,1383,1838,-498,-1182,-777,-302,-58,176,-270
0,2023-03-01T18:51:33.837782,1683359,1383,1838,-498,-1182,-777,-302,-58,176,-270
0,2023-03-01T18:51:33.842543,1683364,1383,1838,-498,-1182,-777,-302,-58,176,-270
0,2023-03-01T18:51:33.848922,1683369,1383,1837,-500,-1181,-785,-295,-58,176,-270
0,2023-03-01T18:51:33.854854,1683377,1383,1837,-500,-1181,-785,-295,-58,176,-270
0,2023-03-01T18:51:33.859916,1683381,1383,1837,-500,-1181,-785,-295,-58,176,-270
0,2023-03-01T18:51:33.865400,1683387,1384,1837,-501,-1180,-785,-299,-58,176,-270
0,2023-03-01T18:51:33.871054,1683392,1384,1837,-501,-1180,-785,-299,-58,176,-270
0,2023-03-01T18:51:33.875879,1683397,1384,1837,-501,-1180,-785,-299,-58,176,-270
0,2023-03-01T18:51:33.881450,1683403,1384,1837,-501,-1180,-785,-299,-58,176,-270
0,2023-03-01T18:51:33.887275,1683408,1387,1843,-490,-1181,-776,-300,-64,170,-272
0,2023-03-01T18:51:33.893161,1683415,1387,1843,-490,-1181,-776,-300,-64,170,-272
0,2023-03-01T18:51:33.898227,1683420,1387,1843,-490,-1181,-776,-300,-64,170,-272
0,2023-03-01T18:51:33.903703,1683425,1387,1843,-490,-1181,-776,-300,-64,170,-272
0,2023-03-01T18:51:33.909046,1683430,1381,1837,-490,-1178,-784,-301,-64,170,-272
0,2023-03-01T18:51:33.914978,1683436,1381,1837,-490,-1178,-784,-301,-64,170,-272
0,2023-03-01T18:51:33.920035,1683441,1381,1837,-490,-1178,-784,-301,-64,170,-272
0,2023-03-01T18:51:33.925606,1683447,1385,1837,-494,-1181,-787,-299,-64,170,-272
0,2023-03-01T18:51:33.931279,1683452,1385,1837,-494,-1181,-787,-299,-64,170,-272
0,2023-03-01T18:51:33.936493,1683459,1385,1837,-494,-1181,-787,-299,-64,170,-272
0,2023-03-01T18:51:33.941678,1683463,1385,1837,-494,-1181,-787,-299,-64,170,-272
0,2023-03-01T18:51:33.946173,1683468,1386,1839,-499,-1185,-792,-297,-64,170,-272
0,2023-03-01T18:51:33.951650,1683473,1386,1839,-499,-1185,-792,-297,-64,170,-272
0,2023-03-01T18:51:33.956457,1683478,1386,1839,-499,-1185,-792,-297,-64,170,-272
0,2023-03-01T18:51:33.961726,1683483,1386,1839,-499,-1185,-792,-297,-64,170,-272
0,2023-03-01T18:51:33.967457,1683489,1382,1835,-497,-1187,-787,-302,-64,170,-272
0,2023-03-01T18:51:33.973192,1683494,1382,1835,-497,-1187,-787,-302,-64,170,-272
0,2023-03-01T18:51:33.977984,1683500,1382,1835,-497,-1187,-787,-302,-64,170,-272
0,2023-03-01T18:51:33.982822,1683505,1382,1835,-497,-1187,-787,-302,-64,170,-272
0,2023-03-01T18:51:33.988410,1683510,1383,1837,-506,-1180,-781,-305,-64,170,-272
0,2023-03-01T18:51:33.994145,1683516,1383,1837,-506,-1180,-781,-305,-64,170,-272
0,2023-03-01T18:51:33.999671,1683521,1383,1837,-506,-1180,-781,-305,-64,170,-272
0,2023-03-01T18:51:34.005018,1683526,1383,1837,-506,-1180,-781,-305,-64,170,-272
0,2023-03-01T18:51:34.009771,1683531,1381,1839,-499,-1175,-773,-302,-62,168,-274
0,2023-03-01T18:51:34.015235,1683536,1381,1839,-499,-1175,-773,-302,-62,168,-274
0,2023-03-01T18:51:34.020038,1683542,1381,1839,-499,-1175,-773,-302,-62,168,-274
0,2023-03-01T18:51:34.025584,1683548,1385,1838,-492,-1175,-780,-294,-62,168,-274
0,2023-03-01T18:51:34.030878,1683553,1385,1838,-492,-1175,-780,-294,-62,168,-274
0,2023-03-01T18:51:34.035612,1683557,1385,1838,-492,-1175,-780,-294,-62,168,-274
0,2023-03-01T18:51:34.040834,1683562,1385,1838,-492,-1175,-780,-294,-62,168,-274
0,2023-03-01T18:51:34.046756,1683568,1384,1835,-493,-1182,-789,-294,-62,168,-274
0,2023-03-01T18:51:34.052294,1683574,1384,1835,-493,-1182,-789,-294,-62,168,-274
0,2023-03-01T18:51:34.057080,1683579,1384,1835,-493,-1182,-789,-294,-62,168,-274
0,2023-03-01T18:51:34.062285,1683584,1384,1835,-493,-1182,-789,-294,-62,168,-274
0,2023-03-01T18:51:34.067520,1683590,1385,1835,-490,-1176,-787,-292,-62,168,-274
0,2023-03-01T18:51:34.072927,1683595,1385,1835,-490,-1176,-787,-292,-62,168,-274
0,2023-03-01T18:51:34.078392,1683600,1385,1835,-490,-1176,-787,-292,-62,168,-274
0,2023-03-01T18:51:34.083355,1683605,1385,1835,-490,-1176,-787,-292,-62,168,-274
0,2023-03-01T18:51:34.088365,1683610,1384,1840,-505,-1179,-784,-306,-62,168,-274
0,2023-03-01T18:51:34.093501,1683615,1384,1840,-505,-1179,-784,-306,-62,168,-274
0,2023-03-01T18:51:34.098739,1683620,1384,1840,-505,-1179,-784,-306,-62,168,-274
0,2023-03-01T18:51:34.103682,1683625,1384,1840,-505,-1179,-784,-306,-62,168,-274
0,2023-03-01T18:51:34.109309,1683631,1384,1837,-498,-1183,-779,-300,-62,168,-274
0,2023-03-01T18:51:34.114462,1683636,1384,1837,-498,-1183,-779,-300,-62,168,-274
0,2023-03-01T18:51:34.119612,1683641,1384,1837,-498,-1183,-779,-300,-62,168,-274
0,2023-03-01T18:51:34.125030,1683647,1384,1837,-498,-1183,-779,-300,-62,168,-274
0,2023-03-01T18:51:34.130054,1683651,1384,1835,-496,-1172,-779,-302,-62,168,-274
0,2023-03-01T18:51:34.135526,1683657,1384,1835,-496,-1172,-779,-302,-62,168,-274
0,2023-03-01T18:51:34.141088,1683662,1384,1835,-496,-1172,-779,-302,-62,168,-274
0,2023-03-01T18:51:34.146610,1683668,1386,1839,-498,-1182,-785,-296,-65,169,-273
0,2023-03-01T18:51:34.151962,1683674,1386,1839,-498,-1182,-785,-296,-65,169,-273
0,2023-03-01T18:51:34.157044,1683679,1386,1839,-498,-1182,-785,-296,-65,169,-273
0,2023-03-01T18:51:34.162122,1683684,1386,1839,-498,-1182,-785,-296,-65,169,-273
0,2023-03-01T18:51:34.167348,1683689,1385,1836,-499,-1181,-777,-303,-65,169,-273
0,2023-03-01T18:51:34.172925,1683695,1385,1836,-499,-1181,-777,-303,-65,169,-273
0,2023-03-01T18:51:34.178352,1683700,1385,1836,-499,-1181,-777,-303,-65,169,-273
0,2023-03-01T18:51:34.183246,1683704,1385,1836,-499,-1181,-777,-303,-65,169,-273
0,2023-03-01T18:51:34.188460,1683710,1384,1836,-491,-1177,-771,-308,-65,169,-273
0,2023-03-01T18:51:34.194036,1683716,1384,1836,-491,-1177,-771,-308,-65,169,-273
0,2023-03-01T18:51:34.198580,1683721,1384,1836,-491,-1177,-771,-308,-65,169,-273
0,2023-03-01T18:51:34.203957,1683725,1384,1836,-491,-1177,-771,-308,-65,169,-273
0,2023-03-01T18:51:34.209452,1683731,1386,1840,-498,-1179,-776,-299,-65,169,-273
0,2023-03-01T18:51:34.215012,1683737,1386,1840,-498,-1179,-776,-299,-65,169,-273
0,2023-03-01T18:51:34.220099,1683741,1386,1840,-498,-1179,-776,-299,-65,169,-273
0,2023-03-01T18:51:34.226309,1683748,1381,1836,-492,-1175,-783,-289,-65,169,-273
0,2023-03-01T18:51:34.231921,1683753,1381,1836,-492,-1175,-783,-289,-65,169,-273
0,2023-03-01T18:51:34.237251,1683759,1381,1836,-492,-1175,-783,-289,-65,169,-273
0,2023-03-01T18:51:34.242277,1683764,1381,1836,-492,-1175,-783,-289,-65,169,-273
0,2023-03-01T18:51:34.247988,1683770,1386,1840,-503,-1174,-787,-299,-65,169,-273
0,2023-03-01T18:51:34.253523,1683775,1386,1840,-503,-1174,-787,-299,-65,169,-273
0,2023-03-01T18:51:34.257996,1683780,1386,1840,-503,-1174,-787,-299,-65,169,-273
0,2023-03-01T18:51:34.263083,1683784,1386,1840,-503,-1174,-787,-299,-65,169,-273
0,2023-03-01T18:51:34.269020,1683790,1384,1838,-497,-1173,-780,-298,-64,176,-284
0,2023-03-01T18:51:34.275083,1683796,1384,1838,-497,-1173,-780,-298,-64,176,-284
0,2023-03-01T18:51:34.279916,1683802,1384,1838,-497,-1173,-780,-298,-64,176,-284
0,2023-03-01T18:51:34.284829,1683807,1384,1838,-497,-1173,-780,-298,-64,176,-284
0,2023-03-01T18:51:34.290320,1683812,1382,1837,-498,-1176,-791,-298,-64,176,-284
0,2023-03-01T18:51:34.296252,1683818,1382,1837,-498,-1176,-791,-298,-64,176,-284
0,2023-03-01T18:51:34.301135,1683822,1382,1837,-498,-1176,-791,-298,-64,176,-284
0,2023-03-01T18:51:34.305954,1683827,1384,1840,-499,-1187,-802,-300,-64,176,-284
0,2023-03-01T18:51:34.312616,1683833,1384,1840,-499,-1187,-802,-300,-64,176,-284
0,2023-03-01T18:51:34.317536,1683840,1384,1840,-499,-1187,-802,-300,-64,176,-284
0,2023-03-01T18:51:34.322651,1683845,1384,1840,-499,-1187,-802,-300,-64,176,-284
0,2023-03-01T18:51:34.328460,1683850,1382,1837,-498,-1198,-802,-299,-64,176,-284
0,2023-03-01T18:51:34.333701,1683856,1382,1837,-498,-1198,-802,-299,-64,176,-284
0,2023-03-01T18:51:34.338687,1683860,1382,1837,-498,-1198,-802,-299,-64,176,-284
0,2023-03-01T18:51:34.343640,1683865,1382,1837,-498,-1198,-802,-299,-64,176,-284
0,2023-03-01T18:51:34.349254,1683871,1384,1835,-497,-1194,-795,-303,-64,176,-284
0,2023-03-01T18:51:34.354919,1683876,1384,1835,-497,-1194,-795,-303,-64,176,-284
0,2023-03-01T18:51:34.360078,1683881,1384,1835,-497,-1194,-795,-303,-64,176,-284
0,2023-03-01T18:51:34.365373,1683887,1384,1835,-497,-1194,-795,-303,-64,176,-284
0,2023-03-01T18:51:34.370563,1683892,1384,1833,-498,-1190,-783,-299,-64,176,-284
0,2023-03-01T18:51:34.376719,1683898,1384,1833,-498,-1190,-783,-299,-64,176,-284
0,2023-03-01T18:51:34.381741,1683903,1384,1833,-498,-1190,-783,-299,-64,176,-284
0,2023-03-01T18:51:34.387254,1683909,1385,1835,-494,-1184,-786,-299,-64,176,-284
0,2023-03-01T18:51:34.393410,1683914,1385,1835,-494,-1184,-786,-299,-64,176,-284
0,2023-03-01T18:51:34.399334,1683920,1385,1835,-494,-1184,-786,-299,-64,176,-284
0,2023-03-01T18:51:34.404152,1683926,1385,1835,-494,-1184,-786,-299,-64,176,-284
0,2023-03-01T18:51:34.409692,1683932,1390,1840,-492,-1187,-795,-297,-64,166,-268
0,2023-03-01T18:51:34.414878,1683937,1390,1840,-492,-1187,-795,-297,-64,166,-268
0,2023-03-01T18:51:34.419984,1683942,1390,1840,-492,-1187,-795,-297,-64,166,-268
0,2023-03-01T18:51:34.425061,1683947,1390,1840,-492,-1187,-795,-297,-64,166,-268
0,2023-03-01T18:51:34.429925,1683951,1388,1839,-498,-1179,-789,-295,-64,166,-268
0,2023-03-01T18:51:34.435812,1683957,1388,1839,-498,-1179,-789,-295,-64,166,-268
0,2023-03-01T18:51:34.441566,1683963,1388,1839,-498,-1179,-789,-295,-64,166,-268
0,2023-03-01T18:51:34.447247,1683969,1385,1834,-499,-1184,-791,-302,-64,166,-268
0,2023-03-01T18:51:34.453031,1683975,1385,1834,-499,-1184,-791,-302,-64,166,-268
0,2023-03-01T18:51:34.458430,1683980,1385,1834,-499,-1184,-791,-302,-64,166,-268
0,2023-03-01T18:51:34.463412,1683985,1385,1834,-499,-1184,-791,-302,-64,166,-268
0,2023-03-01T18:51:34.468942,1683991,1387,1834,-500,-1187,-790,-307,-64,166,-268
0,2023-03-01T18:51:34.474125,1683996,1387,1834,-500,-1187,-790,-307,-64,166,-268
0,2023-03-01T18:51:34.478840,1684000,1387,1834,-500,-1187,-790,-307,-64,166,-268
0,2023-03-01T18:51:34.484211,1684005,1387,1834,-500,-1187,-790,-307,-64,166,-268
0,2023-03-01T18:51:34.489841,1684012,1381,1835,-500,-1187,-791,-300,-64,166,-268
0,2023-03-01T18:51:34.495627,1684018,1381,1835,-500,-1187,-791,-300,-64,166,-268
0,2023-03-01T18:51:34.500483,1684023,1381,1835,-500,-1187,-791,-300,-64,166,-268
0,2023-03-01T18:51:34.506290,1684028,1386,1841,-504,-1191,-785,-301,-64,166,-268
0,2023-03-01T18:51:34.511847,1684033,1386,1841,-504,-1191,-785,-301,-64,166,-268
0,2023-03-01T18:51:34.517038,1684039,1386,1841,-504,-1191,-785,-301,-64,166,-268
0,2023-03-01T18:51:34.521907,1684043,1386,1841,-504,-1191,-785,-301,-64,166,-268
0,2023-03-01T18:51:34.526982,1684048,1384,1842,-497,-1185,-782,-297,-61,167,-273
0,2023-03-01T18:51:34.532328,1684054,1384,1842,-497,-1185,-782,-297,-61,167,-273
0,2023-03-01T18:51:34.537147,1684059,1384,1842,-497,-1185,-782,-297,-61,167,-273
0,2023-03-01T18:51:34.542069,1684064,1384,1842,-497,-1185,-782,-297,-61,167,-273
0,2023-03-01T18:51:34.548006,1684069,1384,1838,-490,-1186,-783,-298,-61,167,-273
0,2023-03-01T18:51:34.554453,1684076,1384,1838,-490,-1186,-783,-298,-61,167,-273
0,2023-03-01T18:51:34.559481,1684081,1384,1838,-490,-1186,-783,-298,-61,167,-273
0,2023-03-01T18:51:34.564366,1684086,1384,1838,-490,-1186,-783,-298,-61,167,-273
0,2023-03-01T18:51:34.569841,1684091,1386,1835,-504,-1184,-784,-296,-61,167,-273
0,2023-03-01T18:51:34.575391,1684098,1386,1835,-504,-1184,-784,-296,-61,167,-273
0,2023-03-01T18:51:34.580843,1684103,1386,1835,-504,-1184,-784,-296,-61,167,-273
0,2023-03-01T18:51:34.586095,1684108,1383,1837,-503,-1181,-796,-295,-61,167,-273
0,2023-03-01T18:51:34.592016,1684113,1383,1837,-503,-1181,-796,-295,-61,167,-273
0,2023-03-01T18:51:34.597290,1684119,1383,1837,-503,-1181,-796,-295,-61,167,-273
0,2023-03-01T18:51:34.603057,1684124,1383,1837,-503,-1181,-796,-295,-61,167,-273
0,2023-03-01T18:51:34.608702,1684130,1384,1837,-496,-1173,-794,-292,-61,167,-273
0,2023-03-01T18:51:34.613881,1684135,1384,1837,-496,-1173,-794,-292,-61,167,-273
0,2023-03-01T18:51:34.618958,1684141,1384,1837,-496,-1173,-794,-292,-61,167,-273
0,2023-03-01T18:51:34.624004,1684146,1384,1837,-496,-1173,-794,-292,-61,167,-273
0,2023-03-01T18:51:34.629833,1684151,1386,1839,-501,-1187,-793,-299,-61,167,-273
0,2023-03-01T18:51:34.635438,1684157,1386,1839,-501,-1187,-793,-299,-61,167,-273
0,2023-03-01T18:51:34.641022,1684163,1386,1839,-501,-1187,-793,-299,-61,167,-273
0,2023-03-01T18:51:34.646471,1684168,1384,1836,-503,-1189,-793,-297,-72,162,-270
0,2023-03-01T18:51:34.652395,1684173,1384,1836,-503,-1189,-793,-297,-72,162,-270
0,2023-03-01T18:51:34.657463,1684178,1384,1836,-503,-1189,-793,-297,-72,162,-270
0,2023-03-01T18:51:34.662491,1684185,1384,1836,-503,-1189,-793,-297,-72,162,-270
0,2023-03-01T18:51:34.667715,1684190,1388,1837,-493,-1178,-772,-312,-72,162,-270
0,2023-03-01T18:51:34.673809,1684196,1388,1837,-493,-1178,-772,-312,-72,162,-270
0,2023-03-01T18:51:34.679790,1684201,1388,1837,-493,-1178,-772,-312,-72,162,-270
0,2023-03-01T18:51:34.685405,1684207,1388,1837,-493,-1178,-772,-312,-72,162,-270
0,2023-03-01T18:51:34.690369,1684212,1387,1837,-495,-1170,-772,-310,-72,162,-270
0,2023-03-01T18:51:34.696124,1684217,1387,1837,-495,-1170,-772,-310,-72,162,-270
0,2023-03-01T18:51:34.701394,1684222,1387,1837,-495,-1170,-772,-310,-72,162,-270
0,2023-03-01T18:51:34.707973,1684230,1381,1836,-499,-1159,-758,-302,-72,162,-270
0,2023-03-01T18:51:34.714032,1684236,1381,1836,-499,-1159,-758,-302,-72,162,-270
0,2023-03-01T18:51:34.720294,1684242,1381,1836,-499,-1159,-758,-302,-72,162,-270
0,2023-03-01T18:51:34.726160,1684248,1386,1838,-500,-1162,-764,-299,-72,162,-270
0,2023-03-01T18:51:34.731719,1684253,1386,1838,-500,-1162,-764,-299,-72,162,-270
0,2023-03-01T18:51:34.737197,1684258,1386,1838,-500,-1162,-764,-299,-72,162,-270
0,2023-03-01T18:51:34.742395,1684263,1386,1838,-500,-1162,-764,-299,-72,162,-270
0,2023-03-01T18:51:34.748605,1684270,1385,1838,-501,-1167,-763,-297,-72,162,-270
0,2023-03-01T18:51:34.754665,1684276,1385,1838,-501,-1167,-763,-297,-72,162,-270
0,2023-03-01T18:51:34.760716,1684282,1385,1838,-501,-1167,-763,-297,-72,162,-270
0,2023-03-01T18:51:34.766435,1684288,1387,1835,-497,-1179,-768,-303,-72,162,-270
0,2023-03-01T18:51:34.772654,1684294,1387,1835,-497,-1179,-768,-303,-72,162,-270
0,2023-03-01T18:51:34.777914,1684299,1387,1835,-497,-1179,-768,-303,-72,162,-270
0,2023-03-01T18:51:34.783577,1684305,1387,1835,-497,-1179,-768,-303,-72,162,-270
0,2023-03-01T18:51:34.789574,1684311,1386,1840,-492,-1183,-771,-303,-66,164,-272
0,2023-03-01T18:51:34.795527,1684317,1386,1840,-492,-1183,-771,-303,-66,164,-272
0,2023-03-01T18:51:34.801228,1684323,1386,1840,-492,-1183,-771,-303,-66,164,-272
0,2023-03-01T18:51:34.807283,1684329,1384,1832,-499,-1178,-768,-310,-66,164,-272
0,2023-03-01T18:51:34.813351,1684335,1384,1832,-499,-1178,-768,-310,-66,164,-272
0,2023-03-01T18:51:34.818297,1684340,1384,1832,-499,-1178,-768,-310,-66,164,-272
0,2023-03-01T18:51:34.823692,1684345,1384,1832,-499,-1178,-768,-310,-66,164,-272
0,2023-03-01T18:51:34.829947,1684352,1387,1838,-500,-1182,-770,-310,-66,164,-272
0,2023-03-01T18:51:34.835480,1684358,1387,1838,-500,-1182,-770,-310,-66,164,-272
0,2023-03-01T18:51:34.840078,1684362,1387,1838,-500,-1182,-770,-310,-66,164,-272
0,2023-03-01T18:51:34.845550,1684367,1387,1838,-500,-1182,-770,-310,-66,164,-272
0,2023-03-01T18:51:34.850836,1684372,1387,1836,-499,-1171,-766,-310,-66,164,-272
0,2023-03-01T18:51:34.856897,1684378,1387,1836,-499,-1171,-766,-310,-66,164,-272
0,2023-03-01T18:51:34.861922,1684383,1387,1836,-499,-1171,-766,-310,-66,164,-272
0,2023-03-01T18:51:34.867455,1684389,1386,1836,-498,-1161,-780,-302,-66,164,-272
0,2023-03-01T18:51:34.872816,1684395,1386,1836,-498,-1161,-780,-302,-66,164,-272
0,2023-03-01T18:51:34.878462,1684400,1386,1836,-498,-1161,-780,-302,-66,164,-272
0,2023-03-01T18:51:34.883960,1684406,1386,1836,-498,-1161,-780,-302,-66,164,-272
0,2023-03-01T18:51:34.889288,1684411,1386,1838,-503,-1171,-777,-299,-66,164,-272
0,2023-03-01T18:51:34.895060,1684416,1386,1838,-503,-1171,-777,-299,-66,164,-272
0,2023-03-01T18:51:34.901108,1684422,1386,1838,-503,-1171,-777,-299,-66,164,-272
0,2023-03-01T18:51:34.906981,1684428,1384,1832,-498,-1169,-766,-302,-65,165,-269
0,2023-03-01T18:51:34.912616,1684434,1384,1832,-498,-1169,-766,-302,-65,165,-269
0,2023-03-01T18:51:34.918017,1684440,1384,1832,-498,-1169,-766,-302,-65,165,-269
0,2023-03-01T18:51:34.923961,1684446,1384,1832,-498,-1169,-766,-302,-65,165,-269
0,2023-03-01T18:51:34.929981,1684452,1389,1839,-499,-1179,-770,-308,-65,165,-269
0,2023-03-01T18:51:34.936098,1684457,1389,1839,-499,-1179,-770,-308,-65,165,-269
0,2023-03-01T18:51:34.941746,1684463,1389,1839,-499,-1179,-770,-308,-65,165,-269
0,2023-03-01T18:51:34.947266,1684469,1385,1842,-497,-1182,-775,-299,-65,165,-269
0,2023-03-01T18:51:34.952829,1684474,1385,1842,-497,-1182,-775,-299,-65,165,-269
0,2023-03-01T18:51:34.959036,1684481,1385,1842,-497,-1182,-775,-299,-65,165,-269
0,2023-03-01T18:51:34.964075,1684486,1385,1842,-497,-1182,-775,-299,-65,165,-269
0,2023-03-01T18:51:34.969669,1684492,1383,1834,-500,-1184,-778,-298,-65,165,-269
0,2023-03-01T18:51:34.974954,1684497,1383,1834,-500,-1184,-778,-298,-65,165,-269
0,2023-03-01T18:51:34.980505,1684502,1383,1834,-500,-1184,-778,-298,-65,165,-269
0,2023-03-01T18:51:34.986221,1684507,1383,1834,-500,-1184,-778,-298,-65,165,-269
0,2023-03-01T18:51:34.991525,1684512,1385,1839,-502,-1184,-778,-300,-65,165,-269
0,2023-03-01T18:51:34.997982,1684519,1385,1839,-502,-1184,-778,-300,-65,165,-269
0,2023-03-01T18:51:35.002823,1684525,1385,1839,-502,-1184,-778,-300,-65,165,-269
0,2023-03-01T18:51:35.007805,1684530,1385,1834,-499,-1172,-768,-310,-65,165,-269
0,2023-03-01T18:51:35.013577,1684535,1385,1834,-499,-1172,-768,-310,-65,165,-269
0,2023-03-01T18:51:35.018494,1684540,1385,1834,-499,-1172,-768,-310,-65,165,-269
0,2023-03-01T18:51:35.023103,1684545,1385,1834,-499,-1172,-768,-310,-65,165,-269
0,2023-03-01T18:51:35.028966,1684550,1385,1837,-499,-1160,-771,-299,-65,165,-269
0,2023-03-01T18:51:35.035340,1684557,1385,1837,-499,-1160,-771,-299,-65,165,-269
0,2023-03-01T18:51:35.040293,1684562,1385,1837,-499,-1160,-771,-299,-65,165,-269
0,2023-03-01T18:51:35.046524,1684568,1385,1837,-499,-1160,-771,-299,-65,165,-269
0,2023-03-01T18:51:35.051630,1684574,1387,1836,-499,-1168,-775,-304,-62,170,-284
0,2023-03-01T18:51:35.056981,1684579,1387,1836,-499,-1168,-775,-304,-62,170,-284
0,2023-03-01T18:51:35.061891,1684584,1387,1836,-499,-1168,-775,-304,-62,170,-284
0,2023-03-01T18:51:35.067513,1684589,1386,1835,-497,-1171,-768,-302,-62,170,-284
0,2023-03-01T18:51:35.073484,1684595,1386,1835,-497,-1171,-768,-302,-62,170,-284
0,2023-03-01T18:51:35.078982,1684600,1386,1835,-497,-1171,-768,-302,-62,170,-284
0,2023-03-01T18:51:35.083656,1684605,1386,1835,-497,-1171,-768,-302,-62,170,-284
0,2023-03-01T18:51:35.088769,1684611,1388,1834,-503,-1188,-786,-306,-62,170,-284
0,2023-03-01T18:51:35.093809,1684616,1388,1834,-503,-1188,-786,-306,-62,170,-284
0,2023-03-01T18:51:35.099443,1684621,1388,1834,-503,-1188,-786,-306,-62,170,-284
0,2023-03-01T18:51:35.104115,1684626,1388,1834,-503,-1188,-786,-306,-62,170,-284
0,2023-03-01T18:51:35.109712,1684631,1389,1838,-500,-1195,-793,-303,-62,170,-284
0,2023-03-01T18:51:35.114851,1684637,1389,1838,-500,-1195,-793,-303,-62,170,-284
0,2023-03-01T18:51:35.119659,1684641,1389,1838,-500,-1195,-793,-303,-62,170,-284
0,2023-03-01T18:51:35.125232,1684646,1389,1838,-500,-1195,-793,-303,-62,170,-284
0,2023-03-01T18:51:35.130002,1684652,1386,1835,-497,-1193,-789,-301,-62,170,-284
0,2023-03-01T18:51:35.135279,1684657,1386,1835,-497,-1193,-789,-301,-62,170,-284
0,2023-03-01T18:51:35.140105,1684662,1386,1835,-497,-1193,-789,-301,-62,170,-284
0,2023-03-01T18:51:35.145620,1684668,1386,1835,-497,-1193,-789,-301,-62,170,-284
0,2023-03-01T18:51:35.150551,1684672,1388,1841,-502,-1197,-790,-305,-62,170,-284
0,2023-03-01T18:51:35.156317,1684678,1388,1841,-502,-1197,-790,-305,-62,170,-284
0,2023-03-01T18:51:35.162038,1684683,1388,1841,-502,-1197,-790,-305,-62,170,-284
0,2023-03-01T18:51:35.167635,1684689,1384,1836,-499,-1175,-781,-295,-58,174,-280
0,2023-03-01T18:51:35.172804,1684695,1384,1836,-499,-1175,-781,-295,-58,174,-280
0,2023-03-01T18:51:35.177768,1684700,1384,1836,-499,-1175,-781,-295,-58,174,-280
0,2023-03-01T18:51:35.182673,1684705,1384,1836,-499,-1175,-781,-295,-58,174,-280
0,2023-03-01T18:51:35.188676,1684710,1387,1837,-503,-1178,-784,-306,-58,174,-280
0,2023-03-01T18:51:35.194422,1684716,1387,1837,-503,-1178,-784,-306,-58,174,-280
0,2023-03-01T18:51:35.199850,1684722,1387,1837,-503,-1178,-784,-306,-58,174,-280
0,2023-03-01T18:51:35.205031,1684727,1387,1837,-503,-1178,-784,-306,-58,174,-280
0,2023-03-01T18:51:35.209848,1684731,1391,1837,-507,-1185,-783,-301,-58,174,-280
0,2023-03-01T18:51:35.215242,1684737,1391,1837,-507,-1185,-783,-301,-58,174,-280
0,2023-03-01T18:51:35.220873,1684743,1391,1837,-507,-1185,-783,-301,-58,174,-280
0,2023-03-01T18:51:35.226859,1684749,1386,1836,-500,-1188,-790,-297,-58,174,-280
0,2023-03-01T18:51:35.232003,1684754,1386,1836,-500,-1188,-790,-297,-58,174,-280
0,2023-03-01T18:51:35.237091,1684759,1386,1836,-500,-1188,-790,-297,-58,174,-280
0,2023-03-01T18:51:35.242371,1684764,1386,1836,-500,-1188,-790,-297,-58,174,-280
0,2023-03-01T18:51:35.246898,1684768,1387,1834,-502,-1192,-791,-293,-58,174,-280
0,2023-03-01T18:51:35.252625,1684774,1387,1834,-502,-1192,-791,-293,-58,174,-280
0,2023-03-01T18:51:35.257594,1684780,1387,1834,-502,-1192,-791,-293,-58,174,-280
0,2023-03-01T18:51:35.262474,1684785,1387,1834,-502,-1192,-791,-293,-58,174,-280
0,2023-03-01T18:51:35.267524,1684789,1388,1835,-505,-1197,-794,-297,-58,174,-280
0,2023-03-01T18:51:35.273625,1684795,1388,1835,-505,-1197,-794,-297,-58,174,-280
0,2023-03-01T18:51:35.279232,1684801,1388,1835,-505,-1197,-794,-297,-58,174,-280
0,2023-03-01T18:51:35.284058,1684806,1388,1835,-505,-1197,-794,-297,-58,174,-280
0,2023-03-01T18:51:35.289615,1684811,1388,1834,-502,-1198,-795,-304,-58,174,-280
0,2023-03-01T18:51:35.295467,1684817,1388,1834,-502,-1198,-795,-304,-58,174,-280
0,2023-03-01T18:51:35.300371,1684822,1388,1834,-502,-1198,-795,-304,-58,174,-280
0,2023-03-01T18:51:35.305940,1684828,1388,1834,-502,-1198,-795,-304,-58,174,-280
0,2023-03-01T18:51:35.310806,1684833,1387,1836,-503,-1189,-798,-296,-63,169,-267
0,2023-03-01T18:51:35.316183,1684838,1387,1836,-503,-1189,-798,-296,-63,169,-267
0,2023-03-01T18:51:35.321249,1684843,1387,1836,-503,-1189,-798,-296,-63,169,-267
0,2023-03-01T18:51:35.326950,1684848,1386,1834,-499,-1185,-793,-298,-63,169,-267
0,2023-03-01T18:51:35.332773,1684854,1386,1834,-499,-1185,-793,-298,-63,169,-267
0,2023-03-01T18:51:35.338259,1684859,1386,1834,-499,-1185,-793,-298,-63,169,-267
0,2023-03-01T18:51:35.342982,1684865,1386,1834,-499,-1185,-793,-298,-63,169,-267
0,2023-03-01T18:51:35.348448,1684870,1389,1839,-503,-1191,-794,-299,-63,169,-267
0,2023-03-01T18:51:35.354016,1684876,1389,1839,-503,-1191,-794,-299,-63,169,-267
0,2023-03-01T18:51:35.359019,1684881,1389,1839,-503,-1191,-794,-299,-63,169,-267
0,2023-03-01T18:51:35.364198,1684886,1389,1839,-503,-1191,-794,-299,-63,169,-267
0,2023-03-01T18:51:35.370070,1684891,1388,1837,-504,-1191,-795,-306,-63,169,-267
0,2023-03-01T18:51:35.375452,1684897,1388,1837,-504,-1191,-795,-306,-63,169,-267
0,2023-03-01T18:51:35.381468,1684902,1388,1837,-504,-1191,-795,-306,-63,169,-267
0,2023-03-01T18:51:35.387328,1684909,1385,1835,-502,-1190,-805,-298,-63,169,-267
0,2023-03-01T18:51:35.393274,1684915,1385,1835,-502,-1190,-805,-298,-63,169,-267
0,2023-03-01T18:51:35.398635,1684920,1385,1835,-502,-1190,-805,-298,-63,169,-267
0,2023-03-01T18:51:35.403107,1684925,1385,1835,-502,-1190,-805,-298,-63,169,-267
0,2023-03-01T18:51:35.408138,1684930,1388,1833,-502,-1197,-807,-298,-63,169,-267
0,2023-03-01T18:51:35.413996,1684935,1388,1833,-502,-1197,-807,-298,-63,169,-267
0,2023-03-01T18:51:35.419416,1684941,1388,1833,-502,-1197,-807,-298,-63,169,-267
0,2023-03-01T18:51:35.424524,1684946,1388,1833,-502,-1197,-807,-298,-63,169,-267
0,2023-03-01T18:51:35.430368,1684952,1384,1837,-494,-1193,-803,-296,-63,167,-275
0,2023-03-01T18:51:35.435720,1684958,1384,1837,-494,-1193,-803,-296,-63,167,-275
0,2023-03-01T18:51:35.441167,1684963,1384,1837,-494,-1193,-803,-296,-63,167,-275
0,2023-03-01T18:51:35.447106,1684969,1388,1836,-489,-1198,-801,-302,-63,167,-275
0,2023-03-01T18:51:35.452686,1684974,1388,1836,-489,-1198,-801,-302,-63,167,-275
0,2023-03-01T18:51:35.457375,1684979,1388,1836,-489,-1198,-801,-302,-63,167,-275
0,2023-03-01T18:51:35.462164,1684983,1388,1836,-489,-1198,-801,-302,-63,167,-275
0,2023-03-01T18:51:35.467684,1684989,1389,1840,-501,-1204,-806,-296,-63,167,-275
0,2023-03-01T18:51:35.473175,1684995,1389,1840,-501,-1204,-806,-296,-63,167,-275
0,2023-03-01T18:51:35.479199,1685001,1389,1840,-501,-1204,-806,-296,-63,167,-275
0,2023-03-01T18:51:35.484410,1685006,1389,1840,-501,-1204,-806,-296,-63,167,-275
0,2023-03-01T18:51:35.490179,1685012,1386,1836,-504,-1189,-796,-294,-63,167,-275
0,2023-03-01T18:51:35.495835,1685017,1386,1836,-504,-1189,-796,-294,-63,167,-275
0,2023-03-01T18:51:35.500447,1685022,1386,1836,-504,-1189,-796,-294,-63,167,-275
0,2023-03-01T18:51:35.506373,1685028,1386,1836,-504,-1189,-796,-294,-63,167,-275
0,2023-03-01T18:51:35.511516,1685033,1390,1836,-503,-1182,-799,-295,-63,167,-275
0,2023-03-01T18:51:35.516731,1685039,1390,1836,-503,-1182,-799,-295,-63,167,-275
0,2023-03-01T18:51:35.521504,1685043,1390,1836,-503,-1182,-799,-295,-63,167,-275
0,2023-03-01T18:51:35.527333,1685049,1389,1835,-504,-1174,-794,-297,-63,167,-275
0,2023-03-01T18:51:35.533099,1685055,1389,1835,-504,-1174,-794,-297,-63,167,-275
0,2023-03-01T18:51:35.538104,1685060,1389,1835,-504,-1174,-794,-297,-63,167,-275
0,2023-03-01T18:51:35.542564,1685064,1389,1835,-504,-1174,-794,-297,-63,167,-275
0,2023-03-01T18:51:35.547566,1685069,1387,1829,-499,-1172,-789,-295,-64,162,-272
0,2023-03-01T18:51:35.552898,1685074,1387,1829,-499,-1172,-789,-295,-64,162,-272
0,2023-03-01T18:51:35.558691,1685081,1387,1829,-499,-1172,-789,-295,-64,162,-272
0,2023-03-01T18:51:35.563421,1685085,1387,1829,-499,-1172,-789,-295,-64,162,-272
0,2023-03-01T18:51:35.568870,1685091,1387,1836,-504,-1187,-793,-303,-64,162,-272
0,2023-03-01T18:51:35.574245,1685096,1387,1836,-504,-1187,-793,-303,-64,162,-272
0,2023-03-01T18:51:35.579701,1685101,1387,1836,-504,-1187,-793,-303,-64,162,-272
0,2023-03-01T18:51:35.585027,1685106,1387,1836,-504,-1187,-793,-303,-64,162,-272
0,2023-03-01T18:51:35.590789,1685112,1388,1834,-502,-1189,-798,-294,-64,162,-272
0,2023-03-01T18:51:35.596262,1685117,1388,1834,-502,-1189,-798,-294,-64,162,-272
0,2023-03-01T18:51:35.602106,1685124,1388,1834,-502,-1189,-798,-294,-64,162,-272
0,2023-03-01T18:51:35.607861,1685130,1387,1834,-500,-1194,-804,-302,-64,162,-272
0,2023-03-01T18:51:35.613334,1685135,1387,1834,-500,-1194,-804,-302,-64,162,-272
0,2023-03-01T18:51:35.619088,1685141,1387,1834,-500,-1194,-804,-302,-64,162,-272
0,2023-03-01T18:51:35.623979,1685146,1387,1834,-500,-1194,-804,-302,-64,162,-272
0,2023-03-01T18:51:35.629649,1685151,1389,1836,-504,-1206,-810,-303,-64,162,-272
0,2023-03-01T18:51:35.635378,1685157,1389,1836,-504,-1206,-810,-303,-64,162,-272
0,2023-03-01T18:51:35.640434,1685161,1389,1836,-504,-1206,-810,-303,-64,162,-272
0,2023-03-01T18:51:35.645878,1685168,1389,1836,-504,-1206,-810,-303,-64,162,-272
0,2023-03-01T18:51:35.651060,1685173,1386,1832,-494,-1197,-791,-297,-64,162,-272
0,2023-03-01T18:51:35.656351,1685178,1386,1832,-494,-1197,-791,-297,-64,162,-272
0,2023-03-01T18:51:35.661974,1685184,1386,1832,-494,-1197,-791,-297,-64,162,-272
0,2023-03-01T18:51:35.667577,1685189,1389,1837,-507,-1199,-789,-297,-64,162,-272
0,2023-03-01T18:51:35.673301,1685195,1389,1837,-507,-1199,-789,-297,-64,162,-272
0,2023-03-01T18:51:35.679010,1685200,1389,1837,-507,-1199,-789,-297,-64,162,-272
0,2023-03-01T18:51:35.683827,1685206,1389,1837,-507,-1199,-789,-297,-64,162,-272
0,2023-03-01T18:51:35.690500,1685211,1387,1836,-498,-1185,-794,-297,-62,166,-270
0,2023-03-01T18:51:35.696987,1685219,1387,1836,-498,-1185,-794,-297,-62,166,-270
0,2023-03-01T18:51:35.703109,1685225,1387,1836,-498,-1185,-794,-297,-62,166,-270
0,2023-03-01T18:51:35.709016,1685231,1385,1832,-496,-1181,-794,-297,-62,166,-270
0,2023-03-01T18:51:35.714514,1685236,1385,1832,-496,-1181,-794,-297,-62,166,-270
0,2023-03-01T18:51:35.719536,1685241,1385,1832,-496,-1181,-794,-297,-62,166,-270
0,2023-03-01T18:51:35.724748,1685246,1385,1832,-496,-1181,-794,-297,-62,166,-270
0,2023-03-01T18:51:35.730308,1685252,1390,1838,-500,-1182,-787,-300,-62,166,-270
0,2023-03-01T18:51:35.736620,1685258,1390,1838,-500,-1182,-787,-300,-62,166,-270
0,2023-03-01T18:51:35.741925,1685264,1390,1838,-500,-1182,-787,-300,-62,166,-270
0,2023-03-01T18:51:35.747466,1685269,1389,1835,-507,-1184,-780,-303,-62,166,-270
0,2023-03-01T18:51:35.753057,1685275,1389,1835,-507,-1184,-780,-303,-62,166,-270
0,2023-03-01T18:51:35.758650,1685280,1389,1835,-507,-1184,-780,-303,-62,166,-270
0,2023-03-01T18:51:35.763274,1685285,1389,1835,-507,-1184,-780,-303,-62,166,-270
0,2023-03-01T18:51:35.769123,1685291,1388,1832,-498,-1183,-776,-307,-62,166,-270
0,2023-03-01T18:51:35.774675,1685296,1388,1832,-498,-1183,-776,-307,-62,166,-270
0,2023-03-01T18:51:35.779166,1685301,1388,1832,-498,-1183,-776,-307,-62,166,-270
0,2023-03-01T18:51:35.784527,1685306,1388,1832,-498,-1183,-776,-307,-62,166,-270
0,2023-03-01T18:51:35.790127,1685312,1391,1835,-499,-1187,-782,-301,-62,166,-270
0,2023-03-01T18:51:35.795894,1685317,1391,1835,-499,-1187,-782,-301,-62,166,-270
0,2023-03-01T18:51:35.801124,1685323,1391,1835,-499,-1187,-782,-301,-62,166,-270
0,2023-03-01T18:51:35.806787,1685328,1391,1835,-499,-1187,-782,-301,-62,166,-270
0,2023-03-01T18:51:35.811399,1685334,1384,1835,-503,-1185,-783,-296,-65,165,-275
0,2023-03-01T18:51:35.816967,1685339,1384,1835,-503,-1185,-783,-296,-65,165,-275
0,2023-03-01T18:51:35.823159,1685345,1384,1835,-503,-1185,-783,-296,-65,165,-275
0,2023-03-01T18:51:35.828987,1685351,1388,1835,-506,-1181,-783,-302,-65,165,-275
0,2023-03-01T18:51:35.834319,1685356,1388,1835,-506,-1181,-783,-302,-65,165,-275
0,2023-03-01T18:51:35.839024,1685361,1388,1835,-506,-1181,-783,-302,-65,165,-275
0,2023-03-01T18:51:35.844272,1685365,1388,1835,-506,-1181,-783,-302,-65,165,-275
0,2023-03-01T18:51:35.850422,1685372,1387,1837,-501,-1170,-765,-299,-65,165,-275
0,2023-03-01T18:51:35.856055,1685378,1387,1837,-501,-1170,-765,-299,-65,165,-275
0,2023-03-01T18:51:35.861857,1685383,1387,1837,-501,-1170,-765,-299,-65,165,-275
0,2023-03-01T18:51:35.867249,1685389,1387,1837,-501,-1170,-765,-299,-65,165,-275
0,2023-03-01T18:51:35.872488,1685394,1387,1836,-501,-1163,-778,-302,-65,165,-275
0,2023-03-01T18:51:35.878138,1685400,1387,1836,-501,-1163,-778,-302,-65,165,-275
0,2023-03-01T18:51:35.884141,1685406,1387,1836,-501,-1163,-778,-302,-65,165,-275
0,2023-03-01T18:51:35.889531,1685411,1390,1836,-503,-1173,-776,-310,-65,165,-275
0,2023-03-01T18:51:35.895403,1685416,1390,1836,-503,-1173,-776,-310,-65,165,-275
0,2023-03-01T18:51:35.900288,1685422,1390,1836,-503,-1173,-776,-310,-65,165,-275
0,2023-03-01T18:51:35.905600,1685428,1390,1836,-503,-1173,-776,-310,-65,165,-275
0,2023-03-01T18:51:35.911412,1685432,1383,1837,-505,-1169,-759,-299,-65,165,-275
0,2023-03-01T18:51:35.917301,1685439,1383,1837,-505,-1169,-759,-299,-65,165,-275
0,2023-03-01T18:51:35.922139,1685444,1383,1837,-505,-1169,-759,-299,-65,165,-275
0,2023-03-01T18:51:35.927692,1685449,1383,1837,-505,-1169,-759,-299,-65,165,-275
0,2023-03-01T18:51:35.933178,1685454,1387,1837,-501,-1167,-753,-303,-65,165,-275
0,2023-03-01T18:51:35.938794,1685460,1387,1837,-501,-1167,-753,-303,-65,165,-275
0,2023-03-01T18:51:35.944386,1685466,1387,1837,-501,-1167,-753,-303,-65,165,-275
0,2023-03-01T18:51:35.949882,1685472,1390,1837,-497,-1169,-762,-310,-59,163,-273
0,2023-03-01T18:51:35.955925,1685478,1390,1837,-497,-1169,-762,-310,-59,163,-273
0,2023-03-01T18:51:35.960551,1685482,1390,1837,-497,-1169,-762,-310,-59,163,-273
0,2023-03-01T18:51:35.966275,1685488,1390,1837,-497,-1169,-762,-310,-59,163,-273
0,2023-03-01T18:51:35.971508,1685493,1386,1832,-503,-1174,-769,-306,-59,163,-273
0,2023-03-01T18:51:35.977241,1685498,1386,1832,-503,-1174,-769,-306,-59,163,-273
0,2023-03-01T18:51:35.981732,1685504,1386,1832,-503,-1174,-769,-306,-59,163,-273
0,2023-03-01T18:51:35.987283,1685509,1386,1832,-503,-1174,-769,-306,-59,163,-273
0,2023-03-01T18:51:35.991979,1685514,1391,1836,-505,-1185,-782,-297,-59,163,-273
0,2023-03-01T18:51:35.997401,1685519,1391,1836,-505,-1185,-782,-297,-59,163,-273
0,2023-03-01T18:51:36.002059,1685524,1391,1836,-505,-1185,-782,-297,-59,163,-273
0,2023-03-01T18:51:36.006988,1685528,1391,1836,-505,-1185,-782,-297,-59,163,-273
0,2023-03-01T18:51:36.012110,1685534,1391,1833,-509,-1185,-785,-307,-59,163,-273
0,2023-03-01T18:51:36.017756,1685539,1391,1833,-509,-1185,-785,-307,-59,163,-273
0,2023-03-01T18:51:36.022422,1685544,1391,1833,-509,-1185,-785,-307,-59,163,-273
0,2023-03-01T18:51:36.028184,1685550,1387,1831,-499,-1191,-784,-301,-59,163,-273
0,2023-03-01T18:51:36.033855,1685556,1387,1831,-499,-1191,-784,-301,-59,163,-273
0,2023-03-01T18:51:36.039612,1685561,1387,1831,-499,-1191,-784,-301,-59,163,-273
0,2023-03-01T18:51:36.044200,1685566,1387,1831,-499,-1191,-784,-301,-59,163,-273
0,2023-03-01T18:51:36.049253,1685571,1388,1836,-506,-1180,-792,-298,-59,163,-273
0,2023-03-01T18:51:36.054772,1685576,1388,1836,-506,-1180,-792,-298,-59,163,-273
0,2023-03-01T18:51:36.059544,1685581,1388,1836,-506,-1180,-792,-298,-59,163,-273
0,2023-03-01T18:51:36.064395,1685586,1388,1836,-506,-1180,-792,-298,-59,163,-273
0,2023-03-01T18:51:36.070129,1685592,1388,1834,-499,-1183,-791,-294,-65,161,-277
0,2023-03-01T18:51:36.075322,1685597,1388,1834,-499,-1183,-791,-294,-65,161,-277
0,2023-03-01T18:51:36.080336,1685602,1388,1834,-499,-1183,-791,-294,-65,161,-277
0,2023-03-01T18:51:36.085693,1685607,1388,1834,-499,-1183,-791,-294,-65,161,-277
0,2023-03-01T18:51:36.090776,1685612,1389,1836,-492,-1189,-796,-295,-65,161,-277
0,2023-03-01T18:51:36.096301,1685618,1389,1836,-492,-1189,-796,-295,-65,161,-277
0,2023-03-01T18:51:36.101051,1685622,1389,1836,-492,-1189,-796,-295,-65,161,-277
0,2023-03-01T18:51:36.106323,1685628,1389,1836,-492,-1189,-796,-295,-65,161,-277
0,2023-03-01T18:51:36.110938,1685633,1383,1836,-507,-1184,-798,-298,-65,161,-277
0,2023-03-01T18:51:36.116182,1685638,1383,1836,-507,-1184,-798,-298,-65,161,-277
0,2023-03-01T18:51:36.122667,1685645,1383,1836,-507,-1184,-798,-298,-65,161,-277
0,2023-03-01T18:51:36.128401,1685650,1388,1830,-503,-1185,-794,-296,-65,161,-277
0,2023-03-01T18:51:36.135312,1685657,1388,1830,-503,-1185,-794,-296,-65,161,-277
0,2023-03-01T18:51:36.140602,1685662,1388,1830,-503,-1185,-794,-296,-65,161,-277
0,2023-03-01T18:51:36.145981,1685667,1388,1830,-503,-1185,-794,-296,-65,161,-277
0,2023-03-01T18:51:36.150969,1685672,1390,1835,-505,-1190,-792,-297,-65,161,-277
0,2023-03-01T18:51:36.156507,1685679,1390,1835,-505,-1190,-792,-297,-65,161,-277
0,2023-03-01T18:51:36.162106,1685684,1390,1835,-505,-1190,-792,-297,-65,161,-277
0,2023-03-01T18:51:36.167198,1685689,1390,1835,-505,-1190,-792,-297,-65,161,-277
0,2023-03-01T18:51:36.172060,1685694,1394,1837,-503,-1181,-779,-300,-65,161,-277
0,2023-03-01T18:51:36.177888,1685699,1394,1837,-503,-1181,-779,-300,-65,161,-277
0,2023-03-01T18:51:36.183253,1685705,1394,1837,-503,-1181,-779,-300,-65,161,-277
0,2023-03-01T18:51:36.188558,1685710,1389,1831,-499,-1183,-774,-309,-65,161,-277
0,2023-03-01T18:51:36.194099,1685715,1389,1831,-499,-1183,-774,-309,-65,161,-277
0,2023-03-01T18:51:36.199411,1685721,1389,1831,-499,-1183,-774,-309,-65,161,-277
0,2023-03-01T18:51:36.204360,1685726,1389,1831,-499,-1183,-774,-309,-65,161,-277
0,2023-03-01T18:51:36.209481,1685732,1395,1837,-497,-1180,-781,-308,-65,161,-277
0,2023-03-01T18:51:36.214903,1685737,1395,1837,-497,-1180,-781,-308,-65,161,-277
0,2023-03-01T18:51:36.220052,1685742,1395,1837,-497,-1180,-781,-308,-65,161,-277
0,2023-03-01T18:51:36.225673,1685747,1395,1837,-497,-1180,-781,-308,-65,161,-277
0,2023-03-01T18:51:36.230580,1685752,1387,1833,-499,-1187,-787,-297,-65,161,-277
0,2023-03-01T18:51:36.235906,1685757,1387,1833,-499,-1187,-787,-297,-65,161,-277
0,2023-03-01T18:51:36.240719,1685763,1387,1833,-499,-1187,-787,-297,-65,161,-277
0,2023-03-01T18:51:36.246368,1685768,1387,1833,-499,-1187,-787,-297,-65,161,-277
0,2023-03-01T18:51:36.251726,1685774,1389,1833,-505,-1193,-784,-302,-65,161,-277
0,2023-03-01T18:51:36.257302,1685779,1389,1833,-505,-1193,-784,-302,-65,161,-277
0,2023-03-01T18:51:36.262169,1685784,1389,1833,-505,-1193,-784,-302,-65,161,-277
0,2023-03-01T18:51:36.267694,1685789,1389,1833,-505,-1193,-784,-302,-65,161,-277
0,2023-03-01T18:51:36.272453,1685794,1393,1835,-500,-1183,-790,-299,-65,161,-277
0,2023-03-01T18:51:36.277986,1685799,1393,1835,-500,-1183,-790,-299,-65,161,-277
0,2023-03-01T18:51:36.283196,1685805,1393,1835,-500,-1183,-790,-299,-65,161,-277
0,2023-03-01T18:51:36.288354,1685811,1386,1833,-500,-1183,-797,-297,-65,161,-277
0,2023-03-01T18:51:36.293780,1685816,1386,1833,-500,-1183,-797,-297,-65,161,-277
0,2023-03-01T18:51:36.299465,1685821,1386,1833,-500,-1183,-797,-297,-65,161,-277
0,2023-03-01T18:51:36.304063,1685826,1386,1833,-500,-1183,-797,-297,-65,161,-277
0,2023-03-01T18:51:36.309692,1685831,1389,1837,-508,-1184,-794,-294,-65,161,-277
0,2023-03-01T18:51:36.315621,1685837,1389,1837,-508,-1184,-794,-294,-65,161,-277
0,2023-03-01T18:51:36.321418,1685843,1389,1837,-508,-1184,-794,-294,-65,161,-277
0,2023-03-01T18:51:36.327041,1685849,1389,1837,-508,-1184,-794,-294,-65,161,-277
0,2023-03-01T18:51:36.332162,1685854,1391,1836,-494,-1179,-790,-304,-71,167,-271
0,2023-03-01T18:51:36.337595,1685859,1391,1836,-494,-1179,-790,-304,-71,167,-271
0,2023-03-01T18:51:36.343089,1685865,1391,1836,-494,-1179,-790,-304,-71,167,-271
0,2023-03-01T18:51:36.350077,1685872,1390,1833,-499,-1189,-792,-297,-71,167,-271
0,2023-03-01T18:51:36.355526,1685877,1390,1833,-499,-1189,-792,-297,-71,167,-271
0,2023-03-01T18:51:36.360770,1685882,1390,1833,-499,-1189,-792,-297,-71,167,-271
0,2023-03-01T18:51:36.366501,1685889,1390,1833,-499,-1189,-792,-297,-71,167,-271
0,2023-03-01T18:51:36.371057,1685893,1392,1838,-508,-1192,-802,-301,-71,167,-271
0,2023-03-01T18:51:36.376664,1685898,1392,1838,-508,-1192,-802,-301,-71,167,-271
0,2023-03-01T18:51:36.382271,1685904,1392,1838,-508,-1192,-802,-301,-71,167,-271
0,2023-03-01T18:51:36.387628,1685909,1392,1838,-508,-1192,-802,-301,-71,167,-271
0,2023-03-01T18:51:36.392951,1685914,1386,1832,-500,-1193,-792,-292,-71,167,-271
0,2023-03-01T18:51:36.398518,1685920,1386,1832,-500,-1193,-792,-292,-71,167,-271
0,2023-03-01T18:51:36.403159,1685925,1386,1832,-500,-1193,-792,-292,-71,167,-271
0,2023-03-01T18:51:36.408391,1685931,1386,1834,-501,-1197,-795,-295,-71,167,-271
0,2023-03-01T18:51:36.414158,1685936,1386,1834,-501,-1197,-795,-295,-71,167,-271
0,2023-03-01T18:51:36.420253,1685942,1386,1834,-501,-1197,-795,-295,-71,167,-271
0,2023-03-01T18:51:36.425833,1685948,1386,1834,-501,-1197,-795,-295,-71,167,-271
0,2023-03-01T18:51:36.430847,1685953,1392,1837,-506,-1192,-806,-298,-71,167,-271
0,2023-03-01T18:51:36.435889,1685958,1392,1837,-506,-1192,-806,-298,-71,167,-271
0,2023-03-01T18:51:36.440764,1685962,1392,1837,-506,-1192,-806,-298,-71,167,-271
0,2023-03-01T18:51:36.446357,1685968,1392,1837,-506,-1192,-806,-298,-71,167,-271
0,2023-03-01T18:51:36.451387,1685974,1389,1833,-497,-1183,-800,-295,-73,163,-271
0,2023-03-01T18:51:36.456998,1685979,1389,1833,-497,-1183,-800,-295,-73,163,-271
0,2023-03-01T18:51:36.462813,1685985,1389,1833,-497,-1183,-800,-295,-73,163,-271
0,2023-03-01T18:51:36.468130,1685990,1392,1837,-505,-1192,-795,-303,-73,163,-271
0,2023-03-01T18:51:36.473511,1685995,1392,1837,-505,-1192,-795,-303,-73,163,-271
0,2023-03-01T18:51:36.479835,1686001,1392,1837,-505,-1192,-795,-303,-73,163,-271
0,2023-03-01T18:51:36.484533,1686006,1392,1837,-505,-1192,-795,-303,-73,163,-271
0,2023-03-01T18:51:36.489933,1686011,1390,1830,-498,-1188,-794,-300,-73,163,-271
0,2023-03-01T18:51:36.495432,1686018,1390,1830,-498,-1188,-794,-300,-73,163,-271
0,2023-03-01T18:51:36.500287,1686022,1390,1830,-498,-1188,-794,-300,-73,163,-271
0,2023-03-01T18:51:36.505064,1686027,1390,1830,-498,-1188,-794,-300,-73,163,-271
0,2023-03-01T18:51:36.510982,1686033,1388,1828,-503,-1192,-796,-296,-73,163,-271
0,2023-03-01T18:51:36.517027,1686038,1388,1828,-503,-1192,-796,-296,-73,163,-271
0,2023-03-01T18:51:36.522086,1686044,1388,1828,-503,-1192,-796,-296,-73,163,-271
0,2023-03-01T18:51:36.527645,1686049,1388,1828,-503,-1192,-796,-296,-73,163,-271
0,2023-03-01T18:51:36.532568,1686054,1392,1835,-503,-1194,-802,-300,-73,163,-271
0,2023-03-01T18:51:36.538082,1686060,1392,1835,-503,-1194,-802,-300,-73,163,-271
0,2023-03-01T18:51:36.543370,1686065,1392,1835,-503,-1194,-802,-300,-73,163,-271
0,2023-03-01T18:51:36.548798,1686071,1391,1831,-502,-1199,-810,-294,-73,163,-271
0,2023-03-01T18:51:36.554447,1686076,1391,1831,-502,-1199,-810,-294,-73,163,-271
0,2023-03-01T18:51:36.560139,1686082,1391,1831,-502,-1199,-810,-294,-73,163,-271
0,2023-03-01T18:51:36.565230,1686087,1391,1831,-502,-1199,-810,-294,-73,163,-271
0,2023-03-01T18:51:36.570600,1686092,1392,1834,-503,-1204,-803,-294,-73,163,-271
0,2023-03-01T18:51:36.576030,1686097,1392,1834,-503,-1204,-803,-294,-73,163,-271
0,2023-03-01T18:51:36.580727,1686103,1392,1834,-503,-1204,-803,-294,-73,163,-271
0,2023-03-01T18:51:36.586005,1686108,1392,1834,-503,-1204,-803,-294,-73,163,-271
0,2023-03-01T18:51:36.590965,1686113,1389,1835,-500,-1197,-804,-292,-66,170,-280
0,2023-03-01T18:51:36.596636,1686118,1389,1835,-500,-1197,-804,-292,-66,170,-280
0,2023-03-01T18:51:36.601332,1686123,1389,1835,-500,-1197,-804,-292,-66,170,-280
0,2023-03-01T18:51:36.606847,1686128,1389,1835,-500,-1197,-804,-292,-66,170,-280
0,2023-03-01T18:51:36.612169,1686133,1389,1830,-500,-1201,-795,-296,-66,170,-280
0,2023-03-01T18:51:36.617891,1686139,1389,1830,-500,-1201,-795,-296,-66,170,-280
0,2023-03-01T18:51:36.622726,1686145,1389,1830,-500,-1201,-795,-296,-66,170,-280
0,2023-03-01T18:51:36.628350,1686150,1389,1830,-500,-1201,-795,-296,-66,170,-280
0,2023-03-01T18:51:36.633162,1686155,1392,1837,-496,-1192,-797,-291,-66,170,-280
0,2023-03-01T18:51:36.638510,1686160,1392,1837,-496,-1192,-797,-291,-66,170,-280
0,2023-03-01T18:51:36.643260,1686165,1392,1837,-496,-1192,-797,-291,-66,170,-280
0,2023-03-01T18:51:36.648898,1686171,1391,1832,-503,-1198,-804,-293,-66,170,-280
0,2023-03-01T18:51:36.654695,1686176,1391,1832,-503,-1198,-804,-293,-66,170,-280
0,2023-03-01T18:51:36.659182,1686181,1391,1832,-503,-1198,-804,-293,-66,170,-280
0,2023-03-01T18:51:36.664316,1686185,1391,1832,-503,-1198,-804,-293,-66,170,-280
0,2023-03-01T18:51:36.670119,1686192,1390,1833,-501,-1193,-806,-298,-66,170,-280
0,2023-03-01T18:51:36.676082,1686198,1390,1833,-501,-1193,-806,-298,-66,170,-280
0,2023-03-01T18:51:36.680711,1686203,1390,1833,-501,-1193,-806,-298,-66,170,-280
0,2023-03-01T18:51:36.686016,1686208,1390,1833,-501,-1193,-806,-298,-66,170,-280
0,2023-03-01T18:51:36.691345,1686213,1392,1833,-509,-1191,-805,-293,-66,170,-280
0,2023-03-01T18:51:36.696977,1686218,1392,1833,-509,-1191,-805,-293,-66,170,-280
0,2023-03-01T18:51:36.702917,1686224,1392,1833,-509,-1191,-805,-293,-66,170,-280
0,2023-03-01T18:51:36.707821,1686230,1392,1833,-509,-1191,-805,-293,-66,170,-280
0,2023-03-01T18:51:36.712268,1686235,1391,1829,-501,-1193,-799,-299,-73,169,-283
0,2023-03-01T18:51:36.719381,1686240,1391,1829,-501,-1193,-799,-299,-73,169,-283
0,2023-03-01T18:51:36.724121,1686246,1391,1829,-501,-1193,-799,-299,-73,169,-283
0,2023-03-01T18:51:36.729761,1686251,1393,1834,-500,-1194,-794,-293,-73,169,-283
0,2023-03-01T18:51:36.735500,1686257,1393,1834,-500,-1194,-794,-293,-73,169,-283
0,2023-03-01T18:51:36.741202,1686263,1393,1834,-500,-1194,-794,-293,-73,169,-283
0,2023-03-01T18:51:36.746725,1686268,1393,1834,-500,-1194,-794,-293,-73,169,-283
0,2023-03-01T18:51:36.752084,1686274,1390,1833,-502,-1195,-790,-294,-73,169,-283
0,2023-03-01T18:51:36.757809,1686280,1390,1833,-502,-1195,-790,-294,-73,169,-283
0,2023-03-01T18:51:36.763621,1686286,1390,1833,-502,-1195,-790,-294,-73,169,-283
0,2023-03-01T18:51:36.769263,1686291,1389,1834,-501,-1179,-792,-299,-73,169,-283
0,2023-03-01T18:51:36.774548,1686296,1389,1834,-501,-1179,-792,-299,-73,169,-283
0,2023-03-01T18:51:36.780120,1686301,1389,1834,-501,-1179,-792,-299,-73,169,-283
0,2023-03-01T18:51:36.786060,1686307,1389,1834,-501,-1179,-792,-299,-73,169,-283
0,2023-03-01T18:51:36.791609,1686313,1393,1837,-505,-1181,-792,-302,-73,169,-283
0,2023-03-01T18:51:36.797180,1686319,1393,1837,-505,-1181,-792,-302,-73,169,-283
0,2023-03-01T18:51:36.802006,1686324,1393,1837,-505,-1181,-792,-302,-73,169,-283
0,2023-03-01T18:51:36.807839,1686330,1393,1837,-505,-1181,-792,-302,-73,169,-283
0,2023-03-01T18:51:36.812852,1686335,1391,1832,-505,-1191,-799,-297,-73,169,-283
0,2023-03-01T18:51:36.818798,1686340,1391,1832,-505,-1191,-799,-297,-73,169,-283
0,2023-03-01T18:51:36.823648,1686345,1391,1832,-505,-1191,-799,-297,-73,169,-283
0,2023-03-01T18:51:36.829147,1686351,1391,1833,-498,-1195,-801,-302,-73,169,-283
0,2023-03-01T18:51:36.834745,1686356,1391,1833,-498,-1195,-801,-302,-73,169,-283
0,2023-03-01T18:51:36.839942,1686362,1391,1833,-498,-1195,-801,-302,-73,169,-283
0,2023-03-01T18:51:36.845357,1686367,1391,1833,-498,-1195,-801,-302,-73,169,-283
0,2023-03-01T18:51:36.850707,1686372,1395,1835,-505,-1197,-799,-295,-61,161,-273
0,2023-03-01T18:51:36.856097,1686378,1395,1835,-505,-1197,-799,-295,-61,161,-273
0,2023-03-01T18:51:36.861043,1686383,1395,1835,-505,-1197,-799,-295,-61,161,-273
0,2023-03-01T18:51:36.866679,1686388,1395,1835,-505,-1197,-799,-295,-61,161,-273
0,2023-03-01T18:51:36.871709,1686393,1389,1833,-508,-1199,-801,-304,-61,161,-273
0,2023-03-01T18:51:36.877518,1686400,1389,1833,-508,-1199,-801,-304,-61,161,-273
0,2023-03-01T18:51:36.882362,1686404,1389,1833,-508,-1199,-801,-304,-61,161,-273
0,2023-03-01T18:51:36.887671,1686410,1389,1833,-508,-1199,-801,-304,-61,161,-273
0,2023-03-01T18:51:36.892647,1686414,1391,1837,-504,-1191,-796,-294,-61,161,-273
0,2023-03-01T18:51:36.898839,1686420,1391,1837,-504,-1191,-796,-294,-61,161,-273
0,2023-03-01T18:51:36.904721,1686426,1391,1837,-504,-1191,-796,-294,-61,161,-273
0,2023-03-01T18:51:36.910553,1686432,1389,1836,-506,-1185,-802,-296,-61,161,-273
0,2023-03-01T18:51:36.915825,1686437,1389,1836,-506,-1185,-802,-296,-61,161,-273
0,2023-03-01T18:51:36.920582,1686443,1389,1836,-506,-1185,-802,-296,-61,161,-273
0,2023-03-01T18:51:36.926204,1686448,1389,1836,-506,-1185,-802,-296,-61,161,-273
0,2023-03-01T18:51:36.931367,1686453,1391,1834,-504,-1183,-799,-287,-61,161,-273
0,2023-03-01T18:51:36.937291,1686459,1391,1834,-504,-1183,-799,-287,-61,161,-273
0,2023-03-01T18:51:36.942913,1686465,1391,1834,-504,-1183,-799,-287,-61,161,-273
0,2023-03-01T18:51:36.948347,1686470,1391,1834,-504,-1183,-799,-287,-61,161,-273
0,2023-03-01T18:51:36.953269,1686475,1396,1836,-510,-1187,-800,-294,-61,161,-273
0,2023-03-01T18:51:36.959242,1686480,1396,1836,-510,-1187,-800,-294,-61,161,-273
0,2023-03-01T18:51:36.965143,1686488,1396,1836,-510,-1187,-800,-294,-61,161,-273
0,2023-03-01T18:51:36.970610,1686493,1390,1833,-507,-1182,-786,-300,-66,160,-274
0,2023-03-01T18:51:36.976439,1686498,1390,1833,-507,-1182,-786,-300,-66,160,-274
0,2023-03-01T18:51:36.981271,1686503,1390,1833,-507,-1182,-786,-300,-66,160,-274
0,2023-03-01T18:51:36.987660,1686509,1390,1833,-507,-1182,-786,-300,-66,160,-274
0,2023-03-01T18:51:36.993028,1686514,1394,1835,-506,-1181,-786,-302,-66,160,-274
0,2023-03-01T18:51:36.998380,1686520,1394,1835,-506,-1181,-786,-302,-66,160,-274
0,2023-03-01T18:51:37.003277,1686524,1394,1835,-506,-1181,-786,-302,-66,160,-274
0,2023-03-01T18:51:37.008638,1686531,1394,1835,-506,-1181,-786,-302,-66,160,-274
0,2023-03-01T18:51:37.013860,1686536,1390,1835,-505,-1189,-793,-300,-66,160,-274
0,2023-03-01T18:51:37.019506,1686542,1390,1835,-505,-1189,-793,-300,-66,160,-274
0,2023-03-01T18:51:37.025047,1686547,1390,1835,-505,-1189,-793,-300,-66,160,-274
0,2023-03-01T18:51:37.030288,1686552,1390,1832,-500,-1188,-795,-306,-66,160,-274
0,2023-03-01T18:51:37.035523,1686557,1390,1832,-500,-1188,-795,-306,-66,160,-274
0,2023-03-01T18:51:37.040473,1686562,1390,1832,-500,-1188,-795,-306,-66,160,-274
0,2023-03-01T18:51:37.045818,1686567,1390,1832,-500,-1188,-795,-306,-66,160,-274
0,2023-03-01T18:51:37.050590,1686573,1390,1836,-507,-1190,-792,-293,-66,160,-274
0,2023-03-01T18:51:37.056324,1686578,1390,1836,-507,-1190,-792,-293,-66,160,-274
0,2023-03-01T18:51:37.061442,1686584,1390,1836,-507,-1190,-792,-293,-66,160,-274
0,2023-03-01T18:51:37.067109,1686589,1390,1836,-507,-1190,-792,-293,-66,160,-274
0,2023-03-01T18:51:37.072075,1686594,1388,1831,-499,-1196,-788,-296,-66,160,-274
0,2023-03-01T18:51:37.077866,1686599,1388,1831,-499,-1196,-788,-296,-66,160,-274
0,2023-03-01T18:51:37.082402,1686604,1388,1831,-499,-1196,-788,-296,-66,160,-274
0,2023-03-01T18:51:37.087573,1686609,1388,1831,-499,-1196,-788,-296,-66,160,-274
0,2023-03-01T18:51:37.092764,1686615,1393,1831,-507,-1192,-800,-305,-62,162,-274
0,2023-03-01T18:51:37.098268,1686620,1393,1831,-507,-1192,-800,-305,-62,162,-274
0,2023-03-01T18:51:37.103226,1686625,1393,1831,-507,-1192,-800,-305,-62,162,-274
0,2023-03-01T18:51:37.109470,1686631,1393,1831,-507,-1192,-800,-305,-62,162,-274
0,2023-03-01T18:51:37.113893,1686636,1392,1837,-502,-1186,-789,-300,-62,162,-274
0,2023-03-01T18:51:37.120332,1686642,1392,1837,-502,-1186,-789,-300,-62,162,-274
0,2023-03-01T18:51:37.124932,1686647,1392,1837,-502,-1186,-789,-300,-62,162,-274
0,2023-03-01T18:51:37.130249,1686651,1393,1830,-499,-1185,-796,-297,-62,162,-274
0,2023-03-01T18:51:37.135880,1686658,1393,1830,-499,-1185,-796,-297,-62,162,-274
0,2023-03-01T18:51:37.140539,1686663,1393,1830,-499,-1185,-796,-297,-62,162,-274
0,2023-03-01T18:51:37.146149,1686668,1393,1830,-499,-1185,-796,-297,-62,162,-274
0,2023-03-01T18:51:37.150932,1686673,1392,1834,-512,-1189,-809,-298,-62,162,-274
0,2023-03-01T18:51:37.156357,1686678,1392,1834,-512,-1189,-809,-298,-62,162,-274
0,2023-03-01T18:51:37.162189,1686684,1392,1834,-512,-1189,-809,-298,-62,162,-274
0,2023-03-01T18:51:37.167653,1686689,1392,1834,-512,-1189,-809,-298,-62,162,-274
0,2023-03-01T18:51:37.172460,1686694,1392,1834,-505,-1192,-807,-294,-62,162,-274
0,2023-03-01T18:51:37.178136,1686700,1392,1834,-505,-1192,-807,-294,-62,162,-274
0,2023-03-01T18:51:37.183884,1686706,1392,1834,-505,-1192,-807,-294,-62,162,-274
0,2023-03-01T18:51:37.188719,1686711,1392,1834,-505,-1192,-807,-294,-62,162,-274
0,2023-03-01T18:51:37.193583,1686715,1389,1828,-506,-1190,-795,-296,-62,162,-274
0,2023-03-01T18:51:37.198797,1686721,1389,1828,-506,-1190,-795,-296,-62,162,-274
0,2023-03-01T18:51:37.203692,1686725,1389,1828,-506,-1190,-795,-296,-62,162,-274
0,2023-03-01T18:51:37.208928,1686730,1389,1828,-506,-1190,-795,-296,-62,162,-274
0,2023-03-01T18:51:37.214189,1686735,1395,1833,-509,-1206,-796,-301,-62,162,-274
0,2023-03-01T18:51:37.219637,1686742,1395,1833,-509,-1206,-796,-301,-62,162,-274
0,2023-03-01T18:51:37.225135,1686747,1395,1833,-509,-1206,-796,-301,-62,162,-274
0,2023-03-01T18:51:37.230808,1686753,1389,1831,-499,-1194,-791,-293,-66,166,-274
0,2023-03-01T18:51:37.236064,1686758,1389,1831,-499,-1194,-791,-293,-66,166,-274
0,2023-03-01T18:51:37.241456,1686763,1389,1831,-499,-1194,-791,-293,-66,166,-274
0,2023-03-01T18:51:37.246534,1686768,1389,1831,-499,-1194,-791,-293,-66,166,-274
0,2023-03-01T18:51:37.251064,1686773,1390,1832,-504,-1189,-788,-301,-66,166,-274
0,2023-03-01T18:51:37.256281,1686778,1390,1832,-504,-1189,-788,-301,-66,166,-274
0,2023-03-01T18:51:37.261557,1686784,1390,1832,-504,-1189,-788,-301,-66,166,-274
0,2023-03-01T18:51:37.267279,1686789,1390,1832,-504,-1189,-788,-301,-66,166,-274
0,2023-03-01T18:51:37.272268,1686794,1394,1833,-505,-1183,-792,-305,-66,166,-274
0,2023-03-01T18:51:37.278422,1686800,1394,1833,-505,-1183,-792,-305,-66,166,-274
0,2023-03-01T18:51:37.283533,1686805,1394,1833,-505,-1183,-792,-305,-66,166,-274
0,2023-03-01T18:51:37.289090,1686811,1394,1833,-505,-1183,-792,-305,-66,166,-274
0,2023-03-01T18:51:37.294115,1686816,1393,1828,-507,-1179,-797,-304,-66,166,-274
0,2023-03-01T18:51:37.299872,1686821,1393,1828,-507,-1179,-797,-304,-66,166,-274
0,2023-03-01T18:51:37.305522,1686828,1393,1828,-507,-1179,-797,-304,-66,166,-274
0,2023-03-01T18:51:37.310862,1686833,1393,1834,-504,-1192,-801,-298,-66,166,-274
0,2023-03-01T18:51:37.316136,1686838,1393,1834,-504,-1192,-801,-298,-66,166,-274
0,2023-03-01T18:51:37.321862,1686844,1393,1834,-504,-1192,-801,-298,-66,166,-274
0,2023-03-01T18:51:37.327000,1686849,1393,1834,-504,-1192,-801,-298,-66,166,-274
0,2023-03-01T18:51:37.331856,1686853,1393,1828,-505,-1187,-795,-298,-66,166,-274
0,2023-03-01T18:51:37.338547,1686860,1393,1828,-505,-1187,-795,-298,-66,166,-274
0,2023-03-01T18:51:37.344229,1686865,1393,1828,-505,-1187,-795,-298,-66,166,-274
0,2023-03-01T18:51:37.349987,1686872,1393,1831,-505,-1196,-797,-301,-66,170,-274
0,2023-03-01T18:51:37.355552,1686878,1393,1831,-505,-1196,-797,-301,-66,170,-274
0,2023-03-01T18:51:37.360195,1686882,1393,1831,-505,-1196,-797,-301,-66,170,-274
0,2023-03-01T18:51:37.365371,1686887,1393,1831,-505,-1196,-797,-301,-66,170,-274
0,2023-03-01T18:51:37.370395,1686892,1392,1833,-501,-1193,-796,-294,-66,170,-274
0,2023-03-01T18:51:37.375921,1686897,1392,1833,-501,-1193,-796,-294,-66,170,-274
0,2023-03-01T18:51:37.380650,1686902,1392,1833,-501,-1193,-796,-294,-66,170,-274
0,2023-03-01T18:51:37.386300,1686908,1392,1833,-501,-1193,-796,-294,-66,170,-274
0,2023-03-01T18:51:37.391156,1686913,1389,1835,-498,-1188,-784,-296,-66,170,-274
0,2023-03-01T18:51:37.397337,1686919,1389,1835,-498,-1188,-784,-296,-66,170,-274
0,2023-03-01T18:51:37.402420,1686924,1389,1835,-498,-1188,-784,-296,-66,170,-274
0,2023-03-01T18:51:37.407954,1686930,1389,1835,-498,-1188,-784,-296,-66,170,-274
0,2023-03-01T18:51:37.412891,1686935,1390,1832,-504,-1189,-787,-301,-66,170,-274
0,2023-03-01T18:51:37.418598,1686940,1390,1832,-504,-1189,-787,-301,-66,170,-274
0,2023-03-01T18:51:37.423401,1686945,1390,1832,-504,-1189,-787,-301,-66,170,-274
0,2023-03-01T18:51:37.428679,1686950,1390,1832,-504,-1189,-787,-301,-66,170,-274
0,2023-03-01T18:51:37.434114,1686956,1390,1831,-507,-1179,-780,-304,-66,170,-274
0,2023-03-01T18:51:37.439811,1686962,1390,1831,-507,-1179,-780,-304,-66,170,-274
0,2023-03-01T18:51:37.445779,1686967,1390,1831,-507,-1179,-780,-304,-66,170,-274
0,2023-03-01T18:51:37.451807,1686974,1390,1830,-505,-1179,-785,-303,-66,170,-274
0,2023-03-01T18:51:37.457445,1686979,1390,1830,-505,-1179,-785,-303,-66,170,-274
0,2023-03-01T18:51:37.462672,1686984,1390,1830,-505,-1179,-785,-303,-66,170,-274
0,2023-03-01T18:51:37.468366,1686990,1390,1830,-505,-1179,-785,-303,-66,170,-274
0,2023-03-01T18:51:37.472878,1686994,1393,1835,-508,-1182,-788,-298,-66,170,-274
0,2023-03-01T18:51:37.478146,1687001,1393,1835,-508,-1182,-788,-298,-66,170,-274
0,2023-03-01T18:51:37.483085,1687005,1393,1835,-508,-1182,-788,-298,-66,170,-274
0,2023-03-01T18:51:37.487991,1687010,1393,1835,-508,-1182,-788,-298,-66,170,-274
0,2023-03-01T18:51:37.493584,1687015,1394,1831,-497,-1193,-789,-305,-71,163,-275
0,2023-03-01T18:51:37.499400,1687021,1394,1831,-497,-1193,-789,-305,-71,163,-275
0,2023-03-01T18:51:37.504897,1687026,1394,1831,-497,-1193,-789,-305,-71,163,-275
0,2023-03-01T18:51:37.510630,1687032,1395,1833,-503,-1185,-785,-306,-71,163,-275
0,2023-03-01T18:51:37.515871,1687037,1395,1833,-503,-1185,-785,-306,-71,163,-275
0,2023-03-01T18:51:37.521244,1687043,1395,1833,-503,-1185,-785,-306,-71,163,-275
0,2023-03-01T18:51:37.526598,1687049,1395,1833,-503,-1185,-785,-306,-71,163,-275
0,2023-03-01T18:51:37.531328,1687053,1395,1831,-503,-1179,-782,-298,-71,163,-275
0,2023-03-01T18:51:37.536819,1687059,1395,1831,-503,-1179,-782,-298,-71,163,-275
0,2023-03-01T18:51:37.541701,1687064,1395,1831,-503,-1179,-782,-298,-71,163,-275
0,2023-03-01T18:51:37.547223,1687069,1395,1831,-503,-1179,-782,-298,-71,163,-275
0,2023-03-01T18:51:37.552349,1687074,1391,1829,-509,-1173,-783,-292,-71,163,-275
0,2023-03-01T18:51:37.558078,1687079,1391,1829,-509,-1173,-783,-292,-71,163,-275
0,2023-03-01T18:51:37.563668,1687086,1391,1829,-509,-1173,-783,-292,-71,163,-275
0,2023-03-01T18:51:37.569558,1687091,1391,1829,-509,-1173,-783,-292,-71,163,-275
0,2023-03-01T18:51:37.574442,1687096,1391,1831,-512,-1175,-784,-299,-71,163,-275
0,2023-03-01T18:51:37.579966,1687102,1391,1831,-512,-1175,-784,-299,-71,163,-275
0,2023-03-01T18:51:37.585049,1687107,1391,1831,-512,-1175,-784,-299,-71,163,-275
0,2023-03-01T18:51:37.590010,1687112,1386,1831,-504,-1180,-776,-304,-71,163,-275
0,2023-03-01T18:51:37.595572,1687117,1386,1831,-504,-1180,-776,-304,-71,163,-275
0,2023-03-01T18:51:37.601088,1687123,1386,1831,-504,-1180,-776,-304,-71,163,-275
0,2023-03-01T18:51:37.606468,1687129,1386,1831,-504,-1180,-776,-304,-71,163,-275
0,2023-03-01T18:51:37.611504,1687134,1393,1831,-500,-1193,-782,-303,-59,163,-279
0,2023-03-01T18:51:37.616774,1687139,1393,1831,-500,-1193,-782,-303,-59,163,-279
0,2023-03-01T18:51:37.622329,1687144,1393,1831,-500,-1193,-782,-303,-59,163,-279
0,2023-03-01T18:51:37.627168,1687149,1393,1831,-500,-1193,-782,-303,-59,163,-279
0,2023-03-01T18:51:37.632276,1687154,1392,1832,-505,-1182,-781,-302,-59,163,-279
0,2023-03-01T18:51:37.637449,1687159,1392,1832,-505,-1182,-781,-302,-59,163,-279
0,2023-03-01T18:51:37.642636,1687164,1392,1832,-505,-1182,-781,-302,-59,163,-279
0,2023-03-01T18:51:37.648291,1687170,1392,1832,-505,-1182,-781,-302,-59,163,-279
0,2023-03-01T18:51:37.653124,1687175,1390,1831,-505,-1176,-780,-303,-59,163,-279
0,2023-03-01T18:51:37.658488,1687181,1390,1831,-505,-1176,-780,-303,-59,163,-279
0,2023-03-01T18:51:37.663781,1687185,1390,1831,-505,-1176,-780,-303,-59,163,-279
0,2023-03-01T18:51:37.669562,1687191,1393,1836,-505,-1179,-773,-300,-59,163,-279
0,2023-03-01T18:51:37.674601,1687196,1393,1836,-505,-1179,-773,-300,-59,163,-279
0,2023-03-01T18:51:37.679549,1687201,1393,1836,-505,-1179,-773,-300,-59,163,-279
0,2023-03-01T18:51:37.684477,1687206,1393,1836,-505,-1179,-773,-300,-59,163,-279
0,2023-03-01T18:51:37.690077,1687212,1393,1833,-509,-1186,-771,-303,-59,163,-279
0,2023-03-01T18:51:37.695502,1687218,1393,1833,-509,-1186,-771,-303,-59,163,-279
0,2023-03-01T18:51:37.700439,1687223,1393,1833,-509,-1186,-771,-303,-59,163,-279
0,2023-03-01T18:51:37.705534,1687228,1393,1833,-509,-1186,-771,-303,-59,163,-279
0,2023-03-01T18:51:37.710064,1687232,1390,1828,-506,-1177,-768,-301,-59,163,-279
0,2023-03-01T18:51:37.715337,1687237,1390,1828,-506,-1177,-768,-301,-59,163,-279
0,2023-03-01T18:51:37.720794,1687242,1390,1828,-506,-1177,-768,-301,-59,163,-279
0,2023-03-01T18:51:37.726300,1687248,1390,1828,-506,-1177,-768,-301,-59,163,-279
0,2023-03-01T18:51:37.731074,1687252,1393,1834,-510,-1168,-762,-306,-59,163,-279
0,2023-03-01T18:51:37.736593,1687259,1393,1834,-510,-1168,-762,-306,-59,163,-279
0,2023-03-01T18:51:37.741151,1687263,1393,1834,-510,-1168,-762,-306,-59,163,-279
0,2023-03-01T18:51:37.746516,1687269,1393,1834,-510,-1168,-762,-306,-59,163,-279
0,2023-03-01T18:51:37.751521,1687273,1388,1830,-504,-1165,-760,-306,-65,169,-269
0,2023-03-01T18:51:37.757419,1687279,1388,1830,-504,-1165,-760,-306,-65,169,-269
0,2023-03-01T18:51:37.763791,1687285,1388,1830,-504,-1165,-760,-306,-65,169,-269
0,2023-03-01T18:51:37.769227,1687290,1388,1830,-504,-1165,-760,-306,-65,169,-269
0,2023-03-01T18:51:37.774294,1687296,1393,1831,-501,-1165,-763,-296,-65,169,-269
0,2023-03-01T18:51:37.779779,1687302,1393,1831,-501,-1165,-763,-296,-65,169,-269
0,2023-03-01T18:51:37.785118,1687307,1393,1831,-501,-1165,-763,-296,-65,169,-269
0,2023-03-01T18:51:37.790110,1687312,1390,1832,-502,-1164,-759,-304,-65,169,-269
0,2023-03-01T18:51:37.795516,1687317,1390,1832,-502,-1164,-759,-304,-65,169,-269
0,2023-03-01T18:51:37.800643,1687322,1390,1832,-502,-1164,-759,-304,-65,169,-269
0,2023-03-01T18:51:37.805913,1687327,1390,1832,-502,-1164,-759,-304,-65,169,-269
0,2023-03-01T18:51:37.810861,1687332,1392,1829,-503,-1164,-751,-308,-65,169,-269
0,2023-03-01T18:51:37.816347,1687339,1392,1829,-503,-1164,-751,-308,-65,169,-269
0,2023-03-01T18:51:37.821281,1687343,1392,1829,-503,-1164,-751,-308,-65,169,-269
0,2023-03-01T18:51:37.826571,1687349,1392,1829,-503,-1164,-751,-308,-65,169,-269
0,2023-03-01T18:51:37.831283,1687353,1394,1835,-507,-1171,-764,-309,-65,169,-269
0,2023-03-01T18:51:37.836559,1687358,1394,1835,-507,-1171,-764,-309,-65,169,-269
0,2023-03-01T18:51:37.841303,1687363,1394,1835,-507,-1171,-764,-309,-65,169,-269
0,2023-03-01T18:51:37.846668,1687368,1394,1835,-507,-1171,-764,-309,-65,169,-269
0,2023-03-01T18:51:37.851534,1687373,1390,1831,-505,-1177,-767,-307,-65,169,-269
0,2023-03-01T18:51:37.857843,1687379,1390,1831,-505,-1177,-767,-307,-65,169,-269
0,2023-03-01T18:51:37.863531,1687386,1390,1831,-505,-1177,-767,-307,-65,169,-269
0,2023-03-01T18:51:37.868849,1687391,1390,1831,-505,-1177,-767,-307,-65,169,-269
0,2023-03-01T18:51:37.873479,1687396,1389,1829,-500,-1181,-777,-311,-60,160,-276
0,2023-03-01T18:51:37.879035,1687401,1389,1829,-500,-1181,-777,-311,-60,160,-276
0,2023-03-01T18:51:37.884157,1687406,1389,1829,-500,-1181,-777,-311,-60,160,-276
0,2023-03-01T18:51:37.890183,1687412,1393,1838,-508,-1183,-785,-304,-60,160,-276
0,2023-03-01T18:51:37.895700,1687417,1393,1838,-508,-1183,-785,-304,-60,160,-276
0,2023-03-01T18:51:37.901168,1687424,1393,1838,-508,-1183,-785,-304,-60,160,-276
0,2023-03-01T18:51:37.906533,1687429,1393,1838,-508,-1183,-785,-304,-60,160,-276
0,2023-03-01T18:51:37.911317,1687434,1391,1833,-510,-1185,-782,-304,-60,160,-276
0,2023-03-01T18:51:37.916570,1687438,1391,1833,-510,-1185,-782,-304,-60,160,-276
0,2023-03-01T18:51:37.922428,1687444,1391,1833,-510,-1185,-782,-304,-60,160,-276
0,2023-03-01T18:51:37.927867,1687450,1391,1833,-510,-1185,-782,-304,-60,160,-276
0,2023-03-01T18:51:37.932691,1687454,1394,1830,-508,-1193,-789,-295,-60,160,-276
0,2023-03-01T18:51:37.938278,1687459,1394,1830,-508,-1193,-789,-295,-60,160,-276
0,2023-03-01T18:51:37.943233,1687464,1394,1830,-508,-1193,-789,-295,-60,160,-276
0,2023-03-01T18:51:37.948896,1687471,1394,1830,-508,-1193,-789,-295,-60,160,-276
0,2023-03-01T18:51:37.953617,1687476,1393,1833,-505,-1190,-782,-307,-60,160,-276
0,2023-03-01T18:51:37.959252,1687481,1393,1833,-505,-1190,-782,-307,-60,160,-276
0,2023-03-01T18:51:37.965262,1687487,1393,1833,-505,-1190,-782,-307,-60,160,-276
0,2023-03-01T18:51:37.971083,1687492,1393,1830,-507,-1180,-772,-297,-60,160,-276
0,2023-03-01T18:51:37.976654,1687498,1393,1830,-507,-1180,-772,-297,-60,160,-276
0,2023-03-01T18:51:37.981172,1687503,1393,1830,-507,-1180,-772,-297,-60,160,-276
0,2023-03-01T18:51:37.986472,1687508,1393,1830,-507,-1180,-772,-297,-60,160,-276
0,2023-03-01T18:51:37.991953,1687513,1393,1834,-506,-1181,-772,-304,-62,166,-274
0,2023-03-01T18:51:37.998009,1687520,1393,1834,-506,-1181,-772,-304,-62,166,-274
0,2023-03-01T18:51:38.003025,1687525,1393,1834,-506,-1181,-772,-304,-62,166,-274
0,2023-03-01T18:51:38.008314,1687530,1393,1834,-506,-1181,-772,-304,-62,166,-274
0,2023-03-01T18:51:38.012993,1687535,1393,1834,-506,-1181,-772,-304,-62,166,-274
0,2023-03-01T18:51:38.017604,1687539,1393,1834,-506,-1181,-772,-304,-62,166,-274
0,2023-03-01T18:51:38.022086,1687544,1393,1834,-506,-1181,-772,-304,-62,166,-274
0,2023-03-01T18:51:38.027385,1687549,1393,1834,-506,-1181,-772,-304,-62,166,-274
0,2023-03-01T18:51:38.032326,1687554,1393,1834,-499,-1170,-772,-302,-62,166,-274
0,2023-03-01T18:51:38.037812,1687560,1393,1834,-499,-1170,-772,-302,-62,166,-274
0,2023-03-01T18:51:38.042981,1687565,1393,1834,-499,-1170,-772,-302,-62,166,-274
0,2023-03-01T18:51:38.048441,1687570,1393,1834,-499,-1170,-772,-302,-62,166,-274
0,2023-03-01T18:51:38.053587,1687575,1394,1831,-509,-1182,-790,-299,-62,166,-274
0,2023-03-01T18:51:38.059202,1687581,1394,1831,-509,-1182,-790,-299,-62,166,-274
0,2023-03-01T18:51:38.064477,1687586,1394,1831,-509,-1182,-790,-299,-62,166,-274
0,2023-03-01T18:51:38.069321,1687591,1394,1831,-509,-1182,-790,-299,-62,166,-274
0,2023-03-01T18:51:38.074413,1687596,1394,1828,-504,-1173,-779,-298,-62,166,-274
0,2023-03-01T18:51:38.080008,1687602,1394,1828,-504,-1173,-779,-298,-62,166,-274
0,2023-03-01T18:51:38.084767,1687607,1394,1828,-504,-1173,-779,-298,-62,166,-274
0,2023-03-01T18:51:38.089957,1687612,1394,1828,-504,-1173,-779,-298,-62,166,-274
0,2023-03-01T18:51:38.095221,1687617,1394,1834,-509,-1176,-772,-304,-62,166,-274
0,2023-03-01T18:51:38.101582,1687623,1394,1834,-509,-1176,-772,-304,-62,166,-274
0,2023-03-01T18:51:38.108927,1687630,1394,1834,-509,-1176,-772,-304,-62,166,-274
0,2023-03-01T18:51:38.113893,1687635,1392,1836,-509,-1174,-774,-312,-62,166,-274
0,2023-03-01T18:51:38.118908,1687641,1392,1836,-509,-1174,-774,-312,-62,166,-274
0,2023-03-01T18:51:38.124452,1687646,1392,1836,-509,-1174,-774,-312,-62,166,-274
0,2023-03-01T18:51:38.129619,1687652,1392,1836,-509,-1174,-774,-312,-62,166,-274
0,2023-03-01T18:51:38.134354,1687656,1391,1825,-499,-1176,-779,-299,-59,163,-267
0,2023-03-01T18:51:38.139466,1687661,1391,1825,-499,-1176,-779,-299,-59,163,-267
0,2023-03-01T18:51:38.143975,1687666,1391,1825,-499,-1176,-779,-299,-59,163,-267
0,2023-03-01T18:51:38.149230,1687671,1391,1825,-499,-1176,-779,-299,-59,163,-267
0,2023-03-01T18:51:38.154319,1687676,1396,1835,-507,-1182,-786,-303,-59,163,-267
0,2023-03-01T18:51:38.159986,1687682,1396,1835,-507,-1182,-786,-303,-59,163,-267
0,2023-03-01T18:51:38.165095,1687687,1396,1835,-507,-1182,-786,-303,-59,163,-267
0,2023-03-01T18:51:38.170656,1687693,1393,1832,-508,-1177,-779,-296,-59,163,-267
0,2023-03-01T18:51:38.175949,1687698,1393,1832,-508,-1177,-779,-296,-59,163,-267
0,2023-03-01T18:51:38.181361,1687703,1393,1832,-508,-1177,-779,-296,-59,163,-267
0,2023-03-01T18:51:38.186270,1687708,1393,1832,-508,-1177,-779,-296,-59,163,-267
0,2023-03-01T18:51:38.191275,1687713,1394,1829,-512,-1186,-783,-298,-59,163,-267
0,2023-03-01T18:51:38.196634,1687718,1394,1829,-512,-1186,-783,-298,-59,163,-267
0,2023-03-01T18:51:38.201757,1687724,1394,1829,-512,-1186,-783,-298,-59,163,-267
0,2023-03-01T18:51:38.207185,1687729,1394,1829,-512,-1186,-783,-298,-59,163,-267
0,2023-03-01T18:51:38.212319,1687734,1394,1831,-512,-1192,-790,-302,-59,163,-267
0,2023-03-01T18:51:38.218278,1687740,1394,1831,-512,-1192,-790,-302,-59,163,-267
0,2023-03-01T18:51:38.222845,1687745,1394,1831,-512,-1192,-790,-302,-59,163,-267
0,2023-03-01T18:51:38.228222,1687750,1394,1831,-512,-1192,-790,-302,-59,163,-267
0,2023-03-01T18:51:38.233068,1687755,1392,1832,-505,-1182,-779,-299,-59,163,-267
0,2023-03-01T18:51:38.239684,1687760,1392,1832,-505,-1182,-779,-299,-59,163,-267
0,2023-03-01T18:51:38.245792,1687768,1392,1832,-505,-1182,-779,-299,-59,163,-267
0,2023-03-01T18:51:38.251296,1687774,1396,1835,-506,-1183,-785,-300,-68,170,-270
0,2023-03-01T18:51:38.256971,1687779,1396,1835,-506,-1183,-785,-300,-68,170,-270
0,2023-03-01T18:51:38.261889,1687784,1396,1835,-506,-1183,-785,-300,-68,170,-270
0,2023-03-01T18:51:38.267326,1687789,1396,1835,-506,-1183,-785,-300,-68,170,-270
0,2023-03-01T18:51:38.272298,1687794,1393,1830,-504,-1181,-781,-304,-68,170,-270
0,2023-03-01T18:51:38.277875,1687800,1393,1830,-504,-1181,-781,-304,-68,170,-270
0,2023-03-01T18:51:38.283030,1687804,1393,1830,-504,-1181,-781,-304,-68,170,-270
0,2023-03-01T18:51:38.288712,1687811,1393,1830,-504,-1181,-781,-304,-68,170,-270
0,2023-03-01T18:51:38.293869,1687816,1394,1829,-496,-1182,-782,-298,-68,170,-270
0,2023-03-01T18:51:38.299341,1687821,1394,1829,-496,-1182,-782,-298,-68,170,-270
0,2023-03-01T18:51:38.304641,1687826,1394,1829,-496,-1182,-782,-298,-68,170,-270
0,2023-03-01T18:51:38.309773,1687832,1394,1829,-496,-1182,-782,-298,-68,170,-270
0,2023-03-01T18:51:38.314592,1687836,1395,1832,-505,-1181,-787,-292,-68,170,-270
0,2023-03-01T18:51:38.320293,1687842,1395,1832,-505,-1181,-787,-292,-68,170,-270
0,2023-03-01T18:51:38.325339,1687847,1395,1832,-505,-1181,-787,-292,-68,170,-270
0,2023-03-01T18:51:38.332374,1687854,1391,1831,-514,-1180,-787,-297,-68,170,-270
0,2023-03-01T18:51:38.338092,1687860,1391,1831,-514,-1180,-787,-297,-68,170,-270
0,2023-03-01T18:51:38.343228,1687865,1391,1831,-514,-1180,-787,-297,-68,170,-270
0,2023-03-01T18:51:38.348875,1687870,1391,1831,-514,-1180,-787,-297,-68,170,-270
0,2023-03-01T18:51:38.354306,1687876,1399,1832,-506,-1178,-783,-302,-68,170,-270
0,2023-03-01T18:51:38.359741,1687881,1399,1832,-506,-1178,-783,-302,-68,170,-270
0,2023-03-01T18:51:38.364420,1687886,1399,1832,-506,-1178,-783,-302,-68,170,-270
0,2023-03-01T18:51:38.370454,1687891,1399,1832,-506,-1178,-783,-302,-68,170,-270
0,2023-03-01T18:51:38.375351,1687897,1394,1833,-511,-1171,-788,-300,-68,170,-270
0,2023-03-01T18:51:38.381957,1687904,1394,1833,-511,-1171,-788,-300,-68,170,-270
0,2023-03-01T18:51:38.388029,1687910,1394,1833,-511,-1171,-788,-300,-68,170,-270
0,2023-03-01T18:51:38.393781,1687915,1393,1827,-502,-1180,-780,-311,-69,163,-265
0,2023-03-01T18:51:38.399453,1687921,1393,1827,-502,-1180,-780,-311,-69,163,-265
0,2023-03-01T18:51:38.405039,1687927,1393,1827,-502,-1180,-780,-311,-69,163,-265
0,2023-03-01T18:51:38.410552,1687932,1393,1827,-502,-1180,-780,-311,-69,163,-265
0,2023-03-01T18:51:38.415617,1687938,1393,1827,-502,-1180,-780,-311,-69,163,-265
0,2023-03-01T18:51:38.421468,1687943,1393,1827,-502,-1180,-780,-311,-69,163,-265
0,2023-03-01T18:51:38.427699,1687949,1393,1827,-502,-1180,-780,-311,-69,163,-265
0,2023-03-01T18:51:38.433742,1687956,1397,1832,-508,-1194,-790,-297,-69,163,-265
0,2023-03-01T18:51:38.439519,1687961,1397,1832,-508,-1194,-790,-297,-69,163,-265
0,2023-03-01T18:51:38.444561,1687966,1397,1832,-508,-1194,-790,-297,-69,163,-265
0,2023-03-01T18:51:38.450286,1687972,1397,1832,-508,-1194,-790,-297,-69,163,-265
0,2023-03-01T18:51:38.455650,1687977,1393,1825,-506,-1178,-780,-305,-69,163,-265
0,2023-03-01T18:51:38.462147,1687984,1393,1825,-506,-1178,-780,-305,-69,163,-265
0,2023-03-01T18:51:38.468573,1687990,1393,1825,-506,-1178,-780,-305,-69,163,-265
0,2023-03-01T18:51:38.473535,1687995,1396,1832,-508,-1175,-777,-306,-69,163,-265
0,2023-03-01T18:51:38.479207,1688001,1396,1832,-508,-1175,-777,-306,-69,163,-265
0,2023-03-01T18:51:38.485516,1688007,1396,1832,-508,-1175,-777,-306,-69,163,-265
0,2023-03-01T18:51:38.491417,1688013,1393,1823,-502,-1178,-775,-299,-69,163,-265
0,2023-03-01T18:51:38.497413,1688019,1393,1823,-502,-1178,-775,-299,-69,163,-265
0,2023-03-01T18:51:38.502218,1688024,1393,1823,-502,-1178,-775,-299,-69,163,-265
0,2023-03-01T18:51:38.507300,1688030,1393,1823,-502,-1178,-775,-299,-69,163,-265
0,2023-03-01T18:51:38.512315,1688034,1399,1830,-503,-1181,-778,-306,-70,164,-272
0,2023-03-01T18:51:38.517480,1688039,1399,1830,-503,-1181,-778,-306,-70,164,-272
0,2023-03-01T18:51:38.523601,1688045,1399,1830,-503,-1181,-778,-306,-70,164,-272
0,2023-03-01T18:51:38.529141,1688051,1399,1830,-503,-1181,-778,-306,-70,164,-272
0,2023-03-01T18:51:38.533614,1688055,1395,1832,-507,-1187,-784,-311,-70,164,-272
0,2023-03-01T18:51:38.539736,1688061,1395,1832,-507,-1187,-784,-311,-70,164,-272
0,2023-03-01T18:51:38.546064,1688068,1395,1832,-507,-1187,-784,-311,-70,164,-272
0,2023-03-01T18:51:38.551904,1688074,1392,1828,-507,-1182,-790,-298,-70,164,-272
0,2023-03-01T18:51:38.557356,1688079,1392,1828,-507,-1182,-790,-298,-70,164,-272
0,2023-03-01T18:51:38.562645,1688085,1392,1828,-507,-1182,-790,-298,-70,164,-272
0,2023-03-01T18:51:38.568179,1688090,1392,1828,-507,-1182,-790,-298,-70,164,-272
0,2023-03-01T18:51:38.573007,1688095,1397,1833,-513,-1186,-778,-300,-70,164,-272
0,2023-03-01T18:51:38.578739,1688100,1397,1833,-513,-1186,-778,-300,-70,164,-272
0,2023-03-01T18:51:38.584170,1688105,1397,1833,-513,-1186,-778,-300,-70,164,-272
0,2023-03-01T18:51:38.589918,1688112,1397,1833,-513,-1186,-778,-300,-70,164,-272
0,2023-03-01T18:51:38.595318,1688117,1394,1831,-510,-1176,-777,-297,-70,164,-272
0,2023-03-01T18:51:38.602010,1688123,1394,1831,-510,-1176,-777,-297,-70,164,-272
0,2023-03-01T18:51:38.610005,1688130,1394,1831,-510,-1176,-777,-297,-70,164,-272
0,2023-03-01T18:51:38.615521,1688137,1392,1828,-506,-1180,-780,-302,-70,164,-272
0,2023-03-01T18:51:38.621887,1688143,1392,1828,-506,-1180,-780,-302,-70,164,-272
0,2023-03-01T18:51:38.627447,1688150,1392,1828,-506,-1180,-780,-302,-70,164,-272
0,2023-03-01T18:51:38.632599,1688155,1396,1832,-502,-1181,-778,-304,-70,164,-272
0,2023-03-01T18:51:38.638891,1688161,1396,1832,-502,-1181,-778,-304,-70,164,-272
0,2023-03-01T18:51:38.644634,1688167,1396,1832,-502,-1181,-778,-304,-70,164,-272
0,2023-03-01T18:51:38.650760,1688172,1396,1832,-502,-1181,-778,-304,-70,164,-272
0,2023-03-01T18:51:38.655766,1688177,1391,1829,-501,-1189,-785,-299,-71,163,-271
0,2023-03-01T18:51:38.662123,1688184,1391,1829,-501,-1189,-785,-299,-71,163,-271
0,2023-03-01T18:51:38.668715,1688189,1391,1829,-501,-1189,-785,-299,-71,163,-271
0,2023-03-01T18:51:38.673861,1688196,1395,1835,-508,-1186,-788,-301,-71,163,-271
0,2023-03-01T18:51:38.679134,1688201,1395,1835,-508,-1186,-788,-301,-71,163,-271
0,2023-03-01T18:51:38.684816,1688206,1395,1835,-508,-1186,-788,-301,-71,163,-271
0,2023-03-01T18:51:38.690551,1688212,1395,1835,-508,-1186,-788,-301,-71,163,-271
0,2023-03-01T18:51:38.695356,1688217,1394,1830,-508,-1183,-787,-296,-71,163,-271
0,2023-03-01T18:51:38.701221,1688223,1394,1830,-508,-1183,-787,-296,-71,163,-271
0,2023-03-01T18:51:38.706831,1688228,1394,1830,-508,-1183,-787,-296,-71,163,-271
0,2023-03-01T18:51:38.712244,1688233,1392,1831,-508,-1177,-792,-306,-71,163,-271
0,2023-03-01T18:51:38.717913,1688240,1392,1831,-508,-1177,-792,-306,-71,163,-271
0,2023-03-01T18:51:38.723201,1688245,1392,1831,-508,-1177,-792,-306,-71,163,-271
0,2023-03-01T18:51:38.728702,1688251,1392,1831,-508,-1177,-792,-306,-71,163,-271
0,2023-03-01T18:51:38.733411,1688255,1392,1830,-517,-1176,-795,-302,-71,163,-271
0,2023-03-01T18:51:38.738733,1688261,1392,1830,-517,-1176,-795,-302,-71,163,-271
0,2023-03-01T18:51:38.743812,1688265,1392,1830,-517,-1176,-795,-302,-71,163,-271
0,2023-03-01T18:51:38.750380,1688271,1392,1830,-517,-1176,-795,-302,-71,163,-271
0,2023-03-01T18:51:38.755158,1688278,1394,1829,-504,-1183,-790,-296,-71,163,-271
0,2023-03-01T18:51:38.760832,1688283,1394,1829,-504,-1183,-790,-296,-71,163,-271
0,2023-03-01T18:51:38.766613,1688289,1394,1829,-504,-1183,-790,-296,-71,163,-271
0,2023-03-01T18:51:38.772051,1688294,1393,1826,-508,-1177,-794,-302,-66,162,-278
0,2023-03-01T18:51:38.779074,1688301,1393,1826,-508,-1177,-794,-302,-66,162,-278
0,2023-03-01T18:51:38.785142,1688307,1393,1826,-508,-1177,-794,-302,-66,162,-278
0,2023-03-01T18:51:38.791042,1688312,1393,1826,-508,-1177,-794,-302,-66,162,-278
0,2023-03-01T18:51:38.796791,1688317,1396,1831,-505,-1182,-793,-305,-66,162,-278
0,2023-03-01T18:51:38.803184,1688325,1396,1831,-505,-1182,-793,-305,-66,162,-278
0,2023-03-01T18:51:38.809185,1688331,1396,1831,-505,-1182,-793,-305,-66,162,-278
0,2023-03-01T18:51:38.814054,1688336,1391,1828,-510,-1182,-798,-298,-66,162,-278
0,2023-03-01T18:51:38.819727,1688342,1391,1828,-510,-1182,-798,-298,-66,162,-278
0,2023-03-01T18:51:38.824424,1688346,1391,1828,-510,-1182,-798,-298,-66,162,-278
0,2023-03-01T18:51:38.829856,1688351,1391,1828,-510,-1182,-798,-298,-66,162,-278
0,2023-03-01T18:51:38.835018,1688356,1395,1833,-514,-1193,-797,-302,-66,162,-278
0,2023-03-01T18:51:38.840783,1688363,1395,1833,-514,-1193,-797,-302,-66,162,-278
0,2023-03-01T18:51:38.846385,1688369,1395,1833,-514,-1193,-797,-302,-66,162,-278
0,2023-03-01T18:51:38.851489,1688373,1396,1824,-514,-1190,-795,-297,-66,162,-278
0,2023-03-01T18:51:38.857410,1688379,1396,1824,-514,-1190,-795,-297,-66,162,-278
0,2023-03-01T18:51:38.862706,1688384,1396,1824,-514,-1190,-795,-297,-66,162,-278
0,2023-03-01T18:51:38.868105,1688390,1396,1824,-514,-1190,-795,-297,-66,162,-278
0,2023-03-01T18:51:38.872841,1688394,1394,1829,-508,-1192,-788,-302,-66,162,-278
0,2023-03-01T18:51:38.879252,1688401,1394,1829,-508,-1192,-788,-302,-66,162,-278
0,2023-03-01T18:51:38.884998,1688407,1394,1829,-508,-1192,-788,-302,-66,162,-278
0,2023-03-01T18:51:38.890227,1688413,1394,1829,-508,-1192,-788,-302,-66,162,-278
0,2023-03-01T18:51:38.894993,1688417,1396,1830,-511,-1184,-776,-302,-66,166,-266
0,2023-03-01T18:51:38.900555,1688423,1396,1830,-511,-1184,-776,-302,-66,166,-266
0,2023-03-01T18:51:38.906028,1688428,1396,1830,-511,-1184,-776,-302,-66,166,-266
0,2023-03-01T18:51:38.911632,1688433,1394,1830,-508,-1169,-770,-307,-66,166,-266
0,2023-03-01T18:51:38.917484,1688439,1394,1830,-508,-1169,-770,-307,-66,166,-266
0,2023-03-01T18:51:38.922057,1688444,1394,1830,-508,-1169,-770,-307,-66,166,-266
0,2023-03-01T18:51:38.927618,1688450,1394,1830,-508,-1169,-770,-307,-66,166,-266
0,2023-03-01T18:51:38.932419,1688455,1394,1831,-507,-1170,-777,-304,-66,166,-266
0,2023-03-01T18:51:38.937665,1688460,1394,1831,-507,-1170,-777,-304,-66,166,-266
0,2023-03-01T18:51:38.942303,1688464,1394,1831,-507,-1170,-777,-304,-66,166,-266
0,2023-03-01T18:51:38.947146,1688469,1394,1831,-507,-1170,-777,-304,-66,166,-266
0,2023-03-01T18:51:38.951797,1688474,1394,1828,-514,-1164,-766,-302,-66,166,-266
0,2023-03-01T18:51:38.957274,1688479,1394,1828,-514,-1164,-766,-302,-66,166,-266
0,2023-03-01T18:51:38.962035,1688484,1394,1828,-514,-1164,-766,-302,-66,166,-266
0,2023-03-01T18:51:38.967583,1688489,1394,1828,-514,-1164,-766,-302,-66,166,-266
0,2023-03-01T18:51:38.972522,1688495,1395,1825,-509,-1178,-769,-305,-66,166,-266
0,2023-03-01T18:51:38.978097,1688500,1395,1825,-509,-1178,-769,-305,-66,166,-266
0,2023-03-01T18:51:38.982661,1688505,1395,1825,-509,-1178,-769,-305,-66,166,-266
0,2023-03-01T18:51:38.988424,1688510,1395,1825,-509,-1178,-769,-305,-66,166,-266
0,2023-03-01T18:51:38.993463,1688515,1397,1829,-511,-1181,-772,-303,-66,166,-266
0,2023-03-01T18:51:38.999148,1688521,1397,1829,-511,-1181,-772,-303,-66,166,-266
0,2023-03-01T18:51:39.004478,1688526,1397,1829,-511,-1181,-772,-303,-66,166,-266
0,2023-03-01T18:51:39.010059,1688531,1397,1829,-511,-1181,-772,-303,-66,166,-266
0,2023-03-01T18:51:39.014894,1688537,1393,1830,-509,-1182,-772,-305,-66,166,-266
0,2023-03-01T18:51:39.020196,1688542,1393,1830,-509,-1182,-772,-305,-66,166,-266
0,2023-03-01T18:51:39.025508,1688548,1393,1830,-509,-1182,-772,-305,-66,166,-266
0,2023-03-01T18:51:39.031165,1688553,1393,1830,-509,-1182,-772,-305,-66,166,-266
0,2023-03-01T18:51:39.035872,1688558,1392,1830,-506,-1170,-772,-311,-71,161,-269
0,2023-03-01T18:51:39.041650,1688563,1392,1830,-506,-1170,-772,-311,-71,161,-269
0,2023-03-01T18:51:39.047587,1688569,1392,1830,-506,-1170,-772,-311,-71,161,-269
0,2023-03-01T18:51:39.052579,1688574,1394,1832,-504,-1162,-767,-314,-71,161,-269
0,2023-03-01T18:51:39.057919,1688580,1394,1832,-504,-1162,-767,-314,-71,161,-269
0,2023-03-01T18:51:39.062617,1688585,1394,1832,-504,-1162,-767,-314,-71,161,-269
0,2023-03-01T18:51:39.068368,1688590,1394,1832,-504,-1162,-767,-314,-71,161,-269
0,2023-03-01T18:51:39.073086,1688595,1392,1826,-505,-1176,-772,-298,-71,161,-269
0,2023-03-01T18:51:39.079095,1688601,1392,1826,-505,-1176,-772,-298,-71,161,-269
0,2023-03-01T18:51:39.083731,1688605,1392,1826,-505,-1176,-772,-298,-71,161,-269
0,2023-03-01T18:51:39.088866,1688611,1392,1826,-505,-1176,-772,-298,-71,161,-269
0,2023-03-01T18:51:39.093492,1688615,1395,1832,-515,-1176,-776,-301,-71,161,-269
0,2023-03-01T18:51:39.099575,1688622,1395,1832,-515,-1176,-776,-301,-71,161,-269
0,2023-03-01T18:51:39.104460,1688627,1395,1832,-515,-1176,-776,-301,-71,161,-269
0,2023-03-01T18:51:39.109844,1688632,1395,1832,-515,-1176,-776,-301,-71,161,-269
0,2023-03-01T18:51:39.114623,1688637,1393,1827,-510,-1166,-769,-297,-71,161,-269
0,2023-03-01T18:51:39.119985,1688642,1393,1827,-510,-1166,-769,-297,-71,161,-269
0,2023-03-01T18:51:39.125288,1688647,1393,1827,-510,-1166,-769,-297,-71,161,-269
0,2023-03-01T18:51:39.130536,1688652,1393,1827,-510,-1166,-769,-297,-71,161,-269
0,2023-03-01T18:51:39.135399,1688657,1394,1830,-506,-1170,-764,-296,-71,161,-269
0,2023-03-01T18:51:39.140637,1688663,1394,1830,-506,-1170,-764,-296,-71,161,-269
0,2023-03-01T18:51:39.145341,1688668,1394,1830,-506,-1170,-764,-296,-71,161,-269
0,2023-03-01T18:51:39.151107,1688673,1394,1830,-506,-1170,-764,-296,-71,161,-269
0,2023-03-01T18:51:39.155862,1688678,1399,1829,-509,-1179,-768,-299,-67,161,-275
0,2023-03-01T18:51:39.161985,1688684,1399,1829,-509,-1179,-768,-299,-67,161,-275
0,2023-03-01T18:51:39.167488,1688689,1399,1829,-509,-1179,-768,-299,-67,161,-275
0,2023-03-01T18:51:39.171934,1688694,1395,1830,-508,-1175,-772,-301,-67,161,-275
0,2023-03-01T18:51:39.177611,1688699,1395,1830,-508,-1175,-772,-301,-67,161,-275
0,2023-03-01T18:51:39.182694,1688705,1395,1830,-508,-1175,-772,-301,-67,161,-275
0,2023-03-01T18:51:39.187927,1688710,1395,1830,-508,-1175,-772,-301,-67,161,-275
0,2023-03-01T18:51:39.192750,1688715,1394,1832,-511,-1172,-764,-304,-67,161,-275
0,2023-03-01T18:51:39.198264,1688720,1394,1832,-511,-1172,-764,-304,-67,161,-275
0,2023-03-01T18:51:39.202931,1688725,1394,1832,-511,-1172,-764,-304,-67,161,-275
0,2023-03-01T18:51:39.208648,1688730,1394,1832,-511,-1172,-764,-304,-67,161,-275
0,2023-03-01T18:51:39.213413,1688735,1394,1829,-506,-1156,-764,-302,-67,161,-275
0,2023-03-01T18:51:39.219341,1688741,1394,1829,-506,-1156,-764,-302,-67,161,-275
0,2023-03-01T18:51:39.224863,1688747,1394,1829,-506,-1156,-764,-302,-67,161,-275
0,2023-03-01T18:51:39.229626,1688752,1394,1829,-506,-1156,-764,-302,-67,161,-275
0,2023-03-01T18:51:39.234564,1688757,1392,1830,-512,-1159,-771,-302,-67,161,-275
0,2023-03-01T18:51:39.240099,1688762,1392,1830,-512,-1159,-771,-302,-67,161,-275
0,2023-03-01T18:51:39.245791,1688768,1392,1830,-512,-1159,-771,-302,-67,161,-275
0,2023-03-01T18:51:39.251614,1688773,1392,1830,-512,-1159,-771,-302,-67,161,-275
0,2023-03-01T18:51:39.256464,1688778,1395,1831,-509,-1173,-777,-309,-67,161,-275
0,2023-03-01T18:51:39.262677,1688784,1395,1831,-509,-1173,-777,-309,-67,161,-275
0,2023-03-01T18:51:39.268123,1688790,1395,1831,-509,-1173,-777,-309,-67,161,-275
0,2023-03-01T18:51:39.273089,1688795,1393,1825,-510,-1171,-775,-296,-67,161,-275
0,2023-03-01T18:51:39.278480,1688801,1393,1825,-510,-1171,-775,-296,-67,161,-275
0,2023-03-01T18:51:39.283613,1688805,1393,1825,-510,-1171,-775,-296,-67,161,-275
0,2023-03-01T18:51:39.289111,1688811,1393,1825,-510,-1171,-775,-296,-67,161,-275
0,2023-03-01T18:51:39.294812,1688816,1396,1829,-502,-1185,-778,-304,-66,160,-262
0,2023-03-01T18:51:39.300635,1688822,1396,1829,-502,-1185,-778,-304,-66,160,-262
0,2023-03-01T18:51:39.306188,1688828,1396,1829,-502,-1185,-778,-304,-66,160,-262
0,2023-03-01T18:51:39.312154,1688834,1393,1832,-512,-1193,-788,-300,-66,160,-262
0,2023-03-01T18:51:39.317693,1688840,1393,1832,-512,-1193,-788,-300,-66,160,-262
0,2023-03-01T18:51:39.323066,1688845,1393,1832,-512,-1193,-788,-300,-66,160,-262
0,2023-03-01T18:51:39.328895,1688851,1393,1832,-512,-1193,-788,-300,-66,160,-262
0,2023-03-01T18:51:39.333472,1688855,1395,1826,-512,-1184,-779,-298,-66,160,-262
0,2023-03-01T18:51:39.339883,1688862,1395,1826,-512,-1184,-779,-298,-66,160,-262
0,2023-03-01T18:51:39.344443,1688866,1395,1826,-512,-1184,-779,-298,-66,160,-262
0,2023-03-01T18:51:39.349974,1688871,1395,1826,-512,-1184,-779,-298,-66,160,-262
0,2023-03-01T18:51:39.354983,1688877,1394,1830,-509,-1178,-783,-308,-66,160,-262
0,2023-03-01T18:51:39.360667,1688883,1394,1830,-509,-1178,-783,-308,-66,160,-262
0,2023-03-01T18:51:39.365555,1688888,1394,1830,-509,-1178,-783,-308,-66,160,-262
0,2023-03-01T18:51:39.371275,1688893,1394,1830,-509,-1178,-783,-308,-66,160,-262
0,2023-03-01T18:51:39.376392,1688898,1390,1827,-506,-1179,-791,-298,-66,160,-262
0,2023-03-01T18:51:39.382967,1688905,1390,1827,-506,-1179,-791,-298,-66,160,-262
0,2023-03-01T18:51:39.388720,1688910,1390,1827,-506,-1179,-791,-298,-66,160,-262
0,2023-03-01T18:51:39.393813,1688915,1393,1828,-508,-1178,-788,-296,-66,160,-262
0,2023-03-01T18:51:39.399374,1688922,1393,1828,-508,-1178,-788,-296,-66,160,-262
0,2023-03-01T18:51:39.404375,1688926,1393,1828,-508,-1178,-788,-296,-66,160,-262
0,2023-03-01T18:51:39.410317,1688932,1393,1828,-508,-1178,-788,-296,-66,160,-262
0,2023-03-01T18:51:39.415189,1688937,1396,1834,-511,-1186,-791,-299,-60,160,-272
0,2023-03-01T18:51:39.421253,1688943,1396,1834,-511,-1186,-791,-299,-60,160,-272
0,2023-03-01T18:51:39.427129,1688949,1396,1834,-511,-1186,-791,-299,-60,160,-272
0,2023-03-01T18:51:39.432586,1688954,1394,1826,-507,-1192,-797,-292,-60,160,-272
0,2023-03-01T18:51:39.438161,1688961,1394,1826,-507,-1192,-797,-292,-60,160,-272
0,2023-03-01T18:51:39.443222,1688966,1394,1826,-507,-1192,-797,-292,-60,160,-272
0,2023-03-01T18:51:39.448519,1688971,1394,1826,-507,-1192,-797,-292,-60,160,-272
0,2023-03-01T18:51:39.453637,1688976,1394,1830,-514,-1196,-792,-296,-60,160,-272
0,2023-03-01T18:51:39.458896,1688981,1394,1830,-514,-1196,-792,-296,-60,160,-272
0,2023-03-01T18:51:39.463971,1688985,1394,1830,-514,-1196,-792,-296,-60,160,-272
0,2023-03-01T18:51:39.469689,1688991,1394,1830,-514,-1196,-792,-296,-60,160,-272
0,2023-03-01T18:51:39.474365,1688996,1398,1831,-506,-1194,-790,-304,-60,160,-272
0,2023-03-01T18:51:39.480150,1689003,1398,1831,-506,-1194,-790,-304,-60,160,-272
0,2023-03-01T18:51:39.485400,1689008,1398,1831,-506,-1194,-790,-304,-60,160,-272
0,2023-03-01T18:51:39.490979,1689013,1398,1831,-506,-1194,-790,-304,-60,160,-272
0,2023-03-01T18:51:39.496018,1689018,1393,1831,-511,-1185,-792,-296,-60,160,-272
0,2023-03-01T18:51:39.501620,1689024,1393,1831,-511,-1185,-792,-296,-60,160,-272
0,2023-03-01T18:51:39.507311,1689029,1393,1831,-511,-1185,-792,-296,-60,160,-272
0,2023-03-01T18:51:39.512101,1689034,1395,1828,-513,-1191,-799,-308,-60,160,-272
0,2023-03-01T18:51:39.517923,1689039,1395,1828,-513,-1191,-799,-308,-60,160,-272
0,2023-03-01T18:51:39.522227,1689044,1395,1828,-513,-1191,-799,-308,-60,160,-272
0,2023-03-01T18:51:39.527400,1689050,1395,1828,-513,-1191,-799,-308,-60,160,-272
0,2023-03-01T18:51:39.532263,1689054,1395,1826,-512,-1179,-788,-297,-60,160,-272
0,2023-03-01T18:51:39.537476,1689060,1395,1826,-512,-1179,-788,-297,-60,160,-272
0,2023-03-01T18:51:39.541849,1689064,1395,1826,-512,-1179,-788,-297,-60,160,-272
0,2023-03-01T18:51:39.547206,1689069,1395,1826,-512,-1179,-788,-297,-60,160,-272
0,2023-03-01T18:51:39.552135,1689074,1397,1830,-511,-1184,-790,-292,-60,160,-272
0,2023-03-01T18:51:39.557947,1689079,1397,1830,-511,-1184,-790,-292,-68,164,-270
0,2023-03-01T18:51:39.562901,1689084,1397,1830,-511,-1184,-790,-292,-68,164,-270
0,2023-03-01T18:51:39.568531,1689091,1397,1830,-511,-1184,-790,-292,-68,164,-270
0,2023-03-01T18:51:39.573581,1689096,1400,1829,-513,-1185,-793,-307,-68,164,-270
0,2023-03-01T18:51:39.579182,1689101,1400,1829,-513,-1185,-793,-307,-68,164,-270
0,2023-03-01T18:51:39.584069,1689106,1400,1829,-513,-1185,-793,-307,-68,164,-270
0,2023-03-01T18:51:39.589333,1689111,1400,1829,-513,-1185,-793,-307,-68,164,-270
0,2023-03-01T18:51:39.594500,1689116,1395,1826,-507,-1198,-794,-292,-68,164,-270
0,2023-03-01T18:51:39.600141,1689121,1395,1826,-507,-1198,-794,-292,-68,164,-270
0,2023-03-01T18:51:39.605054,1689127,1395,1826,-507,-1198,-794,-292,-68,164,-270
0,2023-03-01T18:51:39.610233,1689133,1395,1826,-507,-1198,-794,-292,-68,164,-270
0,2023-03-01T18:51:39.615409,1689137,1395,1832,-509,-1199,-801,-299,-68,164,-270
0,2023-03-01T18:51:39.620651,1689143,1395,1832,-509,-1199,-801,-299,-68,164,-270
0,2023-03-01T18:51:39.626059,1689148,1395,1832,-509,-1199,-801,-299,-68,164,-270
0,2023-03-01T18:51:39.631384,1689153,1395,1832,-509,-1199,-801,-299,-68,164,-270
0,2023-03-01T18:51:39.636706,1689158,1395,1827,-508,-1198,-794,-290,-68,164,-270
0,2023-03-01T18:51:39.642584,1689164,1395,1827,-508,-1198,-794,-290,-68,164,-270
0,2023-03-01T18:51:39.648000,1689169,1395,1827,-508,-1198,-794,-290,-68,164,-270
0,2023-03-01T18:51:39.653004,1689175,1394,1825,-513,-1197,-800,-295,-68,164,-270
0,2023-03-01T18:51:39.658448,1689181,1394,1825,-513,-1197,-800,-295,-68,164,-270
0,2023-03-01T18:51:39.663999,1689186,1394,1825,-513,-1197,-800,-295,-68,164,-270
0,2023-03-01T18:51:39.669373,1689191,1394,1825,-513,-1197,-800,-295,-68,164,-270
0,2023-03-01T18:51:39.674304,1689196,1397,1833,-512,-1202,-803,-297,-68,166,-272
0,2023-03-01T18:51:39.679962,1689202,1397,1833,-512,-1202,-803,-297,-68,166,-272
0,2023-03-01T18:51:39.684942,1689206,1397,1833,-512,-1202,-803,-297,-68,166,-272
0,2023-03-01T18:51:39.690566,1689212,1397,1833,-512,-1202,-803,-297,-68,166,-272
0,2023-03-01T18:51:39.695568,1689218,1393,1828,-513,-1192,-801,-296,-68,166,-272
0,2023-03-01T18:51:39.701421,1689224,1393,1828,-513,-1192,-801,-296,-68,166,-272
0,2023-03-01T18:51:39.707641,1689230,1393,1828,-513,-1192,-801,-296,-68,166,-272
0,2023-03-01T18:51:39.712789,1689235,1395,1830,-511,-1186,-785,-290,-68,166,-272
0,2023-03-01T18:51:39.718234,1689240,1395,1830,-511,-1186,-785,-290,-68,166,-272
0,2023-03-01T18:51:39.723038,1689245,1395,1830,-511,-1186,-785,-290,-68,166,-272
0,2023-03-01T18:51:39.728448,1689250,1395,1830,-511,-1186,-785,-290,-68,166,-272
0,2023-03-01T18:51:39.733197,1689255,1396,1829,-506,-1191,-789,-300,-68,166,-272
0,2023-03-01T18:51:39.738886,1689261,1396,1829,-506,-1191,-789,-300,-68,166,-272
0,2023-03-01T18:51:39.744691,1689267,1396,1829,-506,-1191,-789,-300,-68,166,-272
0,2023-03-01T18:51:39.750383,1689273,1396,1829,-506,-1191,-789,-300,-68,166,-272
0,2023-03-01T18:51:39.755347,1689277,1397,1824,-517,-1190,-798,-302,-68,166,-272
0,2023-03-01T18:51:39.760906,1689283,1397,1824,-517,-1190,-798,-302,-68,166,-272
0,2023-03-01T18:51:39.766647,1689288,1397,1824,-517,-1190,-798,-302,-68,166,-272
0,2023-03-01T18:51:39.772556,1689294,1395,1828,-518,-1184,-796,-297,-68,166,-272
0,2023-03-01T18:51:39.778570,1689300,1395,1828,-518,-1184,-796,-297,-68,166,-272
0,2023-03-01T18:51:39.783570,1689306,1395,1828,-518,-1184,-796,-297,-68,166,-272
0,2023-03-01T18:51:39.788695,1689311,1395,1828,-518,-1184,-796,-297,-68,166,-272
0,2023-03-01T18:51:39.794126,1689316,1396,1830,-511,-1200,-787,-294,-66,162,-270
0,2023-03-01T18:51:39.800121,1689322,1396,1830,-511,-1200,-787,-294,-66,162,-270
0,2023-03-01T18:51:39.805977,1689327,1396,1830,-511,-1200,-787,-294,-66,162,-270
0,2023-03-01T18:51:39.811859,1689333,1396,1830,-511,-1200,-787,-294,-66,162,-270
0,2023-03-01T18:51:39.817145,1689338,1396,1828,-511,-1190,-789,-288,-66,162,-270
0,2023-03-01T18:51:39.823376,1689346,1396,1828,-511,-1190,-789,-288,-66,162,-270
0,2023-03-01T18:51:39.829098,1689351,1396,1828,-511,-1190,-789,-288,-66,162,-270
0,2023-03-01T18:51:39.833975,1689356,1402,1836,-517,-1190,-790,-296,-66,162,-270
0,2023-03-01T18:51:39.839603,1689361,1402,1836,-517,-1190,-790,-296,-66,162,-270
0,2023-03-01T18:51:39.844502,1689366,1402,1836,-517,-1190,-790,-296,-66,162,-270
0,2023-03-01T18:51:39.850255,1689372,1402,1836,-517,-1190,-790,-296,-66,162,-270
0,2023-03-01T18:51:39.856663,1689378,1394,1829,-506,-1191,-795,-301,-66,162,-270
0,2023-03-01T18:51:39.863033,1689384,1394,1829,-506,-1191,-795,-301,-66,162,-270
0,2023-03-01T18:51:39.868722,1689391,1394,1829,-506,-1191,-795,-301,-66,162,-270
0,2023-03-01T18:51:39.874019,1689396,1394,1830,-514,-1190,-788,-298,-66,162,-270
0,2023-03-01T18:51:39.880225,1689402,1394,1830,-514,-1190,-788,-298,-66,162,-270
0,2023-03-01T18:51:39.885816,1689408,1394,1830,-514,-1190,-788,-298,-66,162,-270
0,2023-03-01T18:51:39.891612,1689413,1394,1830,-514,-1190,-788,-298,-66,162,-270
0,2023-03-01T18:51:39.896951,1689419,1402,1832,-518,-1187,-784,-295,-66,162,-270
0,2023-03-01T18:51:39.903116,1689424,1402,1832,-518,-1187,-784,-295,-66,162,-270
0,2023-03-01T18:51:39.908818,1689431,1402,1832,-518,-1187,-784,-295,-66,162,-270
0,2023-03-01T18:51:39.913851,1689436,1394,1828,-511,-1182,-783,-297,-66,162,-270
0,2023-03-01T18:51:39.919291,1689442,1394,1828,-511,-1182,-783,-297,-66,162,-270
0,2023-03-01T18:51:39.924402,1689446,1394,1828,-511,-1182,-783,-297,-66,162,-270
0,2023-03-01T18:51:39.929644,1689452,1394,1828,-511,-1182,-783,-297,-66,162,-270
0,2023-03-01T18:51:39.934491,1689456,1398,1831,-511,-1186,-788,-297,-62,168,-264
0,2023-03-01T18:51:39.940101,1689462,1398,1831,-511,-1186,-788,-297,-62,168,-264
0,2023-03-01T18:51:39.945741,1689467,1398,1831,-511,-1186,-788,-297,-62,168,-264
0,2023-03-01T18:51:39.950975,1689473,1398,1831,-511,-1186,-788,-297,-62,168,-264
0,2023-03-01T18:51:39.956045,1689478,1398,1829,-513,-1180,-780,-299,-62,168,-264
0,2023-03-01T18:51:39.961494,1689484,1398,1829,-513,-1180,-780,-299,-62,168,-264
0,2023-03-01T18:51:39.967029,1689489,1398,1829,-513,-1180,-780,-299,-62,168,-264
0,2023-03-01T18:51:39.971523,1689494,1398,1829,-513,-1180,-780,-299,-62,168,-264
0,2023-03-01T18:51:39.976167,1689498,1395,1824,-511,-1185,-777,-296,-62,168,-264
0,2023-03-01T18:51:39.981566,1689503,1395,1824,-511,-1185,-777,-296,-62,168,-264
0,2023-03-01T18:51:39.987927,1689509,1395,1824,-511,-1185,-777,-296,-62,168,-264
0,2023-03-01T18:51:39.992590,1689515,1396,1831,-511,-1184,-782,-306,-62,168,-264
0,2023-03-01T18:51:39.997866,1689520,1396,1831,-511,-1184,-782,-306,-62,168,-264
0,2023-03-01T18:51:40.002548,1689525,1396,1831,-511,-1184,-782,-306,-62,168,-264
0,2023-03-01T18:51:40.007483,1689530,1396,1831,-511,-1184,-782,-306,-62,168,-264
0,2023-03-01T18:51:40.012401,1689534,1396,1831,-511,-1184,-782,-306,-62,168,-264
0,2023-03-01T18:51:40.017269,1689539,1396,1830,-516,-1167,-771,-298,-62,168,-264
0,2023-03-01T18:51:40.023957,1689546,1396,1830,-516,-1167,-771,-298,-62,168,-264
0,2023-03-01T18:51:40.029662,1689551,1396,1830,-516,-1167,-771,-298,-62,168,-264
0,2023-03-01T18:51:40.034552,1689556,1394,1827,-509,-1168,-775,-302,-62,168,-264
0,2023-03-01T18:51:40.040005,1689562,1394,1827,-509,-1168,-775,-302,-62,168,-264
0,2023-03-01T18:51:40.045119,1689567,1394,1827,-509,-1168,-775,-302,-62,168,-264
0,2023-03-01T18:51:40.050580,1689573,1394,1827,-509,-1168,-775,-302,-62,168,-264
0,2023-03-01T18:51:40.056614,1689578,1395,1830,-510,-1173,-769,-297,-58,166,-262
0,2023-03-01T18:51:40.062205,1689584,1395,1830,-510,-1173,-769,-297,-58,166,-262
0,2023-03-01T18:51:40.067884,1689590,1395,1830,-510,-1173,-769,-297,-58,166,-262
0,2023-03-01T18:51:40.072671,1689594,1396,1827,-512,-1161,-766,-303,-58,166,-262
0,2023-03-01T18:51:40.078670,1689601,1396,1827,-512,-1161,-766,-303,-58,166,-262
0,2023-03-01T18:51:40.083279,1689606,1396,1827,-512,-1161,-766,-303,-58,166,-262
0,2023-03-01T18:51:40.088786,1689611,1396,1827,-512,-1161,-766,-303,-58,166,-262
0,2023-03-01T18:51:40.093916,1689616,1399,1827,-515,-1160,-751,-305,-58,166,-262
0,2023-03-01T18:51:40.099159,1689621,1399,1827,-515,-1160,-751,-305,-58,166,-262
0,2023-03-01T18:51:40.104117,1689626,1399,1827,-515,-1160,-751,-305,-58,166,-262
0,2023-03-01T18:51:40.109700,1689631,1399,1827,-515,-1160,-751,-305,-58,166,-262
0,2023-03-01T18:51:40.114133,1689636,1392,1830,-512,-1161,-752,-309,-58,166,-262
0,2023-03-01T18:51:40.119421,1689641,1392,1830,-512,-1161,-752,-309,-58,166,-262
0,2023-03-01T18:51:40.124339,1689646,1392,1830,-512,-1161,-752,-309,-58,166,-262
0,2023-03-01T18:51:40.130048,1689652,1392,1830,-512,-1161,-752,-309,-58,166,-262
0,2023-03-01T18:51:40.135122,1689657,1397,1824,-508,-1167,-762,-294,-58,166,-262
0,2023-03-01T18:51:40.140874,1689663,1397,1824,-508,-1167,-762,-294,-58,166,-262
0,2023-03-01T18:51:40.146219,1689668,1397,1824,-508,-1167,-762,-294,-58,166,-262
0,2023-03-01T18:51:40.151720,1689674,1397,1824,-508,-1167,-762,-294,-58,166,-262
0,2023-03-01T18:51:40.156773,1689678,1397,1828,-517,-1178,-777,-298,-58,166,-262
0,2023-03-01T18:51:40.162235,1689684,1397,1828,-517,-1178,-777,-298,-58,166,-262
0,2023-03-01T18:51:40.167776,1689690,1397,1828,-517,-1178,-777,-298,-58,166,-262
0,2023-03-01T18:51:40.172356,1689695,1397,1828,-517,-1178,-777,-298,-58,166,-262
0,2023-03-01T18:51:40.176960,1689699,1394,1828,-509,-1177,-774,-294,-58,166,-262
0,2023-03-01T18:51:40.183270,1689705,1394,1828,-509,-1177,-774,-294,-58,166,-262
0,2023-03-01T18:51:40.189056,1689711,1394,1828,-509,-1177,-774,-294,-58,166,-262
0,2023-03-01T18:51:40.194106,1689716,1399,1827,-510,-1180,-790,-298,-71,153,-265
0,2023-03-01T18:51:40.199582,1689721,1399,1827,-510,-1180,-790,-298,-71,153,-265
0,2023-03-01T18:51:40.205532,1689728,1399,1827,-510,-1180,-790,-298,-71,153,-265
0,2023-03-01T18:51:40.210357,1689733,1399,1827,-510,-1180,-790,-298,-71,153,-265
0,2023-03-01T18:51:40.215491,1689738,1397,1831,-511,-1188,-796,-300,-71,153,-265
0,2023-03-01T18:51:40.221444,1689743,1397,1831,-511,-1188,-796,-300,-71,153,-265
0,2023-03-01T18:51:40.226179,1689748,1397,1831,-511,-1188,-796,-300,-71,153,-265
0,2023-03-01T18:51:40.231325,1689753,1397,1831,-511,-1188,-796,-300,-71,153,-265
0,2023-03-01T18:51:40.235790,1689758,1396,1822,-513,-1196,-796,-300,-71,153,-265
0,2023-03-01T18:51:40.241630,1689763,1396,1822,-513,-1196,-796,-300,-71,153,-265
0,2023-03-01T18:51:40.247747,1689769,1396,1822,-513,-1196,-796,-300,-71,153,-265
0,2023-03-01T18:51:40.252485,1689775,1396,1822,-513,-1196,-796,-300,-71,153,-265
0,2023-03-01T18:51:40.257220,1689780,1399,1829,-514,-1199,-795,-299,-71,153,-265
0,2023-03-01T18:51:40.263078,1689785,1399,1829,-514,-1199,-795,-299,-71,153,-265
0,2023-03-01T18:51:40.267882,1689790,1399,1829,-514,-1199,-795,-299,-71,153,-265
0,2023-03-01T18:51:40.272730,1689795,1399,1829,-514,-1199,-795,-299,-71,153,-265
0,2023-03-01T18:51:40.277686,1689799,1398,1828,-518,-1194,-787,-301,-71,153,-265
0,2023-03-01T18:51:40.283264,1689805,1398,1828,-518,-1194,-787,-301,-71,153,-265
0,2023-03-01T18:51:40.288614,1689810,1398,1828,-518,-1194,-787,-301,-71,153,-265
0,2023-03-01T18:51:40.293926,1689816,1395,1829,-506,-1181,-787,-303,-71,153,-265
0,2023-03-01T18:51:40.300006,1689822,1395,1829,-506,-1181,-787,-303,-71,153,-265
0,2023-03-01T18:51:40.305696,1689828,1395,1829,-506,-1181,-787,-303,-71,153,-265
0,2023-03-01T18:51:40.311454,1689833,1395,1829,-506,-1181,-787,-303,-71,153,-265
0,2023-03-01T18:51:40.316976,1689838,1400,1831,-513,-1183,-787,-299,-65,167,-271
0,2023-03-01T18:51:40.322624,1689844,1400,1831,-513,-1183,-787,-299,-65,167,-271
0,2023-03-01T18:51:40.329645,1689851,1400,1831,-513,-1183,-787,-299,-65,167,-271
0,2023-03-01T18:51:40.334323,1689857,1394,1827,-514,-1184,-792,-299,-65,167,-271
0,2023-03-01T18:51:40.339982,1689862,1394,1827,-514,-1184,-792,-299,-65,167,-271
0,2023-03-01T18:51:40.344737,1689867,1394,1827,-514,-1184,-792,-299,-65,167,-271
0,2023-03-01T18:51:40.350141,1689872,1394,1827,-514,-1184,-792,-299,-65,167,-271
0,2023-03-01T18:51:40.355354,1689877,1397,1828,-514,-1178,-786,-299,-65,167,-271
0,2023-03-01T18:51:40.360965,1689883,1397,1828,-514,-1178,-786,-299,-65,167,-271
0,2023-03-01T18:51:40.366417,1689888,1397,1828,-514,-1178,-786,-299,-65,167,-271
0,2023-03-01T18:51:40.371947,1689893,1397,1828,-514,-1178,-786,-299,-65,167,-271
0,2023-03-01T18:51:40.377184,1689899,1399,1828,-514,-1179,-787,-305,-65,167,-271
0,2023-03-01T18:51:40.383580,1689906,1399,1828,-514,-1179,-787,-305,-65,167,-271
0,2023-03-01T18:51:40.388946,1689911,1399,1828,-514,-1179,-787,-305,-65,167,-271
0,2023-03-01T18:51:40.394172,1689916,1397,1823,-511,-1189,-796,-297,-65,167,-271
0,2023-03-01T18:51:40.399479,1689922,1397,1823,-511,-1189,-796,-297,-65,167,-271
0,2023-03-01T18:51:40.404570,1689926,1397,1823,-511,-1189,-796,-297,-65,167,-271
0,2023-03-01T18:51:40.410885,1689932,1397,1823,-511,-1189,-796,-297,-65,167,-271
0,2023-03-01T18:51:40.416510,1689937,1399,1828,-510,-1199,-799,-289,-65,167,-271
0,2023-03-01T18:51:40.421976,1689944,1399,1828,-510,-1199,-799,-289,-65,167,-271
0,2023-03-01T18:51:40.426940,1689949,1399,1828,-510,-1199,-799,-289,-65,167,-271
0,2023-03-01T18:51:40.432128,1689954,1399,1828,-510,-1199,-799,-289,-65,167,-271
0,2023-03-01T18:51:40.436701,1689959,1397,1827,-513,-1194,-801,-294,-65,167,-271
0,2023-03-01T18:51:40.442674,1689964,1397,1827,-513,-1194,-801,-294,-65,167,-271
0,2023-03-01T18:51:40.448699,1689970,1397,1827,-513,-1194,-801,-294,-65,167,-271
0,2023-03-01T18:51:40.453482,1689975,1394,1829,-510,-1192,-796,-301,-62,167,-271
0,2023-03-01T18:51:40.459283,1689981,1394,1829,-510,-1192,-796,-301,-62,170,-266
0,2023-03-01T18:51:40.464596,1689987,1394,1829,-510,-1192,-796,-301,-62,170,-266
0,2023-03-01T18:51:40.469843,1689992,1394,1829,-510,-1192,-796,-301,-62,170,-266
0,2023-03-01T18:51:40.475598,1689998,1399,1827,-515,-1194,-794,-293,-62,170,-266
0,2023-03-01T18:51:40.480774,1690003,1399,1827,-515,-1194,-794,-293,-62,170,-266
0,2023-03-01T18:51:40.486237,1690008,1399,1827,-515,-1194,-794,-293,-62,170,-266
0,2023-03-01T18:51:40.491828,1690014,1399,1827,-515,-1194,-794,-293,-62,170,-266
0,2023-03-01T18:51:40.496541,1690018,1396,1825,-511,-1182,-792,-295,-62,170,-266
0,2023-03-01T18:51:40.502278,1690024,1396,1825,-511,-1182,-792,-295,-62,170,-266
0,2023-03-01T18:51:40.507813,1690030,1396,1825,-511,-1182,-792,-295,-62,170,-266
0,2023-03-01T18:51:40.512638,1690035,1396,1825,-511,-1182,-792,-295,-62,170,-266
0,2023-03-01T18:51:40.518340,1690040,1400,1829,-511,-1186,-792,-295,-62,170,-266
0,2023-03-01T18:51:40.524652,1690047,1400,1829,-511,-1186,-792,-295,-62,170,-266
0,2023-03-01T18:51:40.530266,1690052,1400,1829,-511,-1186,-792,-295,-62,170,-266
0,2023-03-01T18:51:40.535446,1690057,1400,1831,-511,-1189,-790,-307,-62,170,-266
0,2023-03-01T18:51:40.540744,1690062,1400,1831,-511,-1189,-790,-307,-62,170,-266
0,2023-03-01T18:51:40.545745,1690067,1400,1831,-511,-1189,-790,-307,-62,170,-266
0,2023-03-01T18:51:40.551446,1690074,1400,1831,-511,-1189,-790,-307,-62,170,-266
0,2023-03-01T18:51:40.555879,1690078,1398,1823,-521,-1193,-792,-297,-62,170,-266
0,2023-03-01T18:51:40.561401,1690084,1398,1823,-521,-1193,-792,-297,-62,170,-266
0,2023-03-01T18:51:40.567329,1690089,1398,1823,-521,-1193,-792,-297,-62,170,-266
0,2023-03-01T18:51:40.572546,1690094,1398,1823,-521,-1193,-792,-297,-62,170,-266
0,2023-03-01T18:51:40.577637,1690099,1398,1830,-517,-1191,-802,-299,-64,160,-270
0,2023-03-01T18:51:40.583905,1690106,1398,1830,-517,-1191,-802,-299,-64,160,-270
0,2023-03-01T18:51:40.589050,1690112,1398,1830,-517,-1191,-802,-299,-64,160,-270
0,2023-03-01T18:51:40.594031,1690116,1396,1827,-512,-1191,-795,-304,-64,160,-270
0,2023-03-01T18:51:40.599628,1690122,1396,1827,-512,-1191,-795,-304,-64,160,-270
0,2023-03-01T18:51:40.604077,1690126,1396,1827,-512,-1191,-795,-304,-64,160,-270
0,2023-03-01T18:51:40.609875,1690132,1396,1827,-512,-1191,-795,-304,-64,160,-270
0,2023-03-01T18:51:40.614695,1690137,1393,1829,-516,-1195,-793,-294,-64,160,-270
0,2023-03-01T18:51:40.620128,1690142,1393,1829,-516,-1195,-793,-294,-64,160,-270
0,2023-03-01T18:51:40.624760,1690147,1393,1829,-516,-1195,-793,-294,-64,160,-270
0,2023-03-01T18:51:40.630551,1690152,1393,1829,-516,-1195,-793,-294,-64,160,-270
0,2023-03-01T18:51:40.635727,1690158,1400,1825,-516,-1184,-795,-298,-64,160,-270
0,2023-03-01T18:51:40.641143,1690163,1400,1825,-516,-1184,-795,-298,-64,160,-270
0,2023-03-01T18:51:40.645973,1690168,1400,1825,-516,-1184,-795,-298,-64,160,-270
0,2023-03-01T18:51:40.651252,1690173,1400,1825,-516,-1184,-795,-298,-64,160,-270
0,2023-03-01T18:51:40.656159,1690178,1399,1823,-510,-1178,-790,-299,-64,160,-270
0,2023-03-01T18:51:40.662030,1690184,1399,1823,-510,-1178,-790,-299,-64,160,-270
0,2023-03-01T18:51:40.667932,1690190,1399,1823,-510,-1178,-790,-299,-64,160,-270
0,2023-03-01T18:51:40.672676,1690194,1399,1823,-510,-1178,-790,-299,-64,160,-270
0,2023-03-01T18:51:40.677568,1690200,1402,1829,-512,-1184,-795,-301,-64,160,-270
0,2023-03-01T18:51:40.684307,1690206,1402,1829,-512,-1184,-795,-301,-64,160,-270
0,2023-03-01T18:51:40.689350,1690211,1402,1829,-512,-1184,-795,-301,-64,160,-270
0,2023-03-01T18:51:40.694846,1690217,1397,1830,-511,-1191,-796,-301,-67,165,-269
0,2023-03-01T18:51:40.700248,1690222,1397,1830,-511,-1191,-796,-301,-67,165,-269
0,2023-03-01T18:51:40.705169,1690227,1397,1830,-511,-1191,-796,-301,-67,165,-269
0,2023-03-01T18:51:40.710457,1690232,1397,1830,-511,-1191,-796,-301,-67,165,-269
0,2023-03-01T18:51:40.715315,1690237,1398,1826,-505,-1193,-799,-305,-67,165,-269
0,2023-03-01T18:51:40.720905,1690243,1398,1826,-505,-1193,-799,-305,-67,165,-269
0,2023-03-01T18:51:40.725681,1690248,1398,1826,-505,-1193,-799,-305,-67,165,-269
0,2023-03-01T18:51:40.731334,1690253,1398,1826,-505,-1193,-799,-305,-67,165,-269
0,2023-03-01T18:51:40.736410,1690258,1402,1828,-512,-1188,-797,-295,-67,165,-269
0,2023-03-01T18:51:40.742268,1690264,1402,1828,-512,-1188,-797,-295,-67,165,-269
0,2023-03-01T18:51:40.748601,1690270,1402,1828,-512,-1188,-797,-295,-67,165,-269
0,2023-03-01T18:51:40.753278,1690275,1399,1827,-518,-1197,-801,-296,-67,165,-269
0,2023-03-01T18:51:40.758609,1690280,1399,1827,-518,-1197,-801,-296,-67,165,-269
0,2023-03-01T18:51:40.763381,1690286,1399,1827,-518,-1197,-801,-296,-67,165,-269
0,2023-03-01T18:51:40.769156,1690291,1399,1827,-518,-1197,-801,-296,-67,165,-269
0,2023-03-01T18:51:40.774043,1690296,1398,1828,-516,-1193,-805,-299,-67,165,-269
0,2023-03-01T18:51:40.779411,1690301,1398,1828,-516,-1193,-805,-299,-67,165,-269
0,2023-03-01T18:51:40.784237,1690306,1398,1828,-516,-1193,-805,-299,-67,165,-269
0,2023-03-01T18:51:40.789574,1690312,1398,1828,-516,-1193,-805,-299,-67,165,-269
0,2023-03-01T18:51:40.795056,1690316,1402,1825,-517,-1181,-799,-303,-67,165,-269
0,2023-03-01T18:51:40.800738,1690322,1402,1825,-517,-1181,-799,-303,-67,165,-269
0,2023-03-01T18:51:40.805997,1690328,1402,1825,-517,-1181,-799,-303,-67,165,-269
0,2023-03-01T18:51:40.811545,1690334,1402,1825,-517,-1181,-799,-303,-67,165,-269
0,2023-03-01T18:51:40.816405,1690338,1401,1825,-513,-1179,-795,-296,-67,165,-269
0,2023-03-01T18:51:40.822359,1690344,1401,1825,-513,-1179,-795,-296,-67,165,-269
0,2023-03-01T18:51:40.828423,1690350,1401,1825,-513,-1179,-795,-296,-67,165,-269
0,2023-03-01T18:51:40.833959,1690355,1401,1829,-518,-1196,-797,-305,-67,165,-269
0,2023-03-01T18:51:40.840057,1690362,1401,1829,-518,-1196,-797,-305,-66,164,-272
0,2023-03-01T18:51:40.845675,1690368,1401,1829,-518,-1196,-797,-305,-66,164,-272
0,2023-03-01T18:51:40.851515,1690374,1401,1829,-518,-1196,-797,-305,-66,164,-272
0,2023-03-01T18:51:40.856278,1690378,1396,1821,-517,-1184,-799,-299,-66,164,-272
0,2023-03-01T18:51:40.861829,1690384,1396,1821,-517,-1184,-799,-299,-66,164,-272
0,2023-03-01T18:51:40.867651,1690389,1396,1821,-517,-1184,-799,-299,-66,164,-272
0,2023-03-01T18:51:40.872540,1690395,1396,1821,-517,-1184,-799,-299,-66,164,-272
0,2023-03-01T18:51:40.877074,1690399,1397,1826,-517,-1189,-795,-303,-66,164,-272
