imu,server_time,arduino_time,ax,ay,az,gx,gy,gz,mx,my,mz
0,2023-03-01T18:49:44.947083,1574463,189,517,1645,-1031,-572,-322,56,264,-112
0,2023-03-01T18:49:44.953367,1574469,188,511,1643,-1031,-571,-321,56,264,-112
0,2023-03-01T18:49:44.959108,1574474,188,511,1643,-1031,-571,-321,56,264,-112
0,2023-03-01T18:49:44.964118,1574479,188,511,1643,-1031,-571,-321,56,264,-112
0,2023-03-01T18:49:44.968794,1574484,188,511,1643,-1031,-571,-321,56,264,-112
0,2023-03-01T18:49:44.974056,1574490,191,512,1643,-1037,-568,-325,56,264,-112
0,2023-03-01T18:49:44.979309,1574495,191,512,1643,-1037,-568,-325,56,264,-112
0,2023-03-01T18:49:44.984363,1574500,191,512,1643,-1037,-568,-325,56,264,-112
0,2023-03-01T18:49:44.989052,1574505,191,512,1643,-1037,-568,-325,56,264,-112
0,2023-03-01T18:49:44.994316,1574510,193,514,1647,-1034,-560,-323,56,264,-112
0,2023-03-01T18:49:44.999623,1574515,193,514,1647,-1034,-560,-323,56,264,-112
0,2023-03-01T18:49:45.004121,1574519,193,514,1647,-1034,-560,-323,56,264,-112
0,2023-03-01T18:49:45.009013,1574524,193,514,1647,-1034,-560,-323,56,264,-112
0,2023-03-01T18:49:45.014185,1574530,188,510,1644,-1029,-559,-325,56,264,-112
0,2023-03-01T18:49:45.019548,1574535,188,510,1644,-1029,-559,-325,56,264,-112
0,2023-03-01T18:49:45.025059,1574541,188,510,1644,-1029,-559,-325,56,264,-112
0,2023-03-01T18:49:45.029835,1574546,188,510,1644,-1029,-559,-325,56,264,-112
0,2023-03-01T18:49:45.035205,1574551,190,515,1643,-1036,-562,-325,56,264,-112
0,2023-03-01T18:49:45.040602,1574556,190,515,1643,-1036,-562,-325,56,264,-112
0,2023-03-01T18:49:45.045570,1574561,190,515,1643,-1036,-562,-325,56,264,-112
0,2023-03-01T18:49:45.050025,1574565,190,515,1643,-1036,-562,-325,56,264,-112
0,2023-03-01T18:49:45.055488,1574571,190,515,1645,-1034,-569,-316,56,272,-122
0,2023-03-01T18:49:45.061074,1574577,190,515,1645,-1034,-569,-316,56,272,-122
0,2023-03-01T18:49:45.065887,1574582,190,515,1645,-1034,-569,-316,56,272,-122
0,2023-03-01T18:49:45.070718,1574586,190,515,1645,-1034,-569,-316,56,272,-122
0,2023-03-01T18:49:45.076317,1574592,186,514,1647,-1034,-570,-316,56,272,-122
0,2023-03-01T18:49:45.081947,1574597,186,514,1647,-1034,-570,-316,56,272,-122
0,2023-03-01T18:49:45.086632,1574602,186,514,1647,-1034,-570,-316,56,272,-122
0,2023-03-01T18:49:45.091749,1574607,190,514,1641,-1040,-569,-321,56,272,-122
0,2023-03-01T18:49:45.097391,1574614,190,514,1641,-1040,-569,-321,56,272,-122
0,2023-03-01T18:49:45.102229,1574618,190,514,1641,-1040,-569,-321,56,272,-122
0,2023-03-01T18:49:45.107238,1574623,190,514,1641,-1040,-569,-321,56,272,-122
0,2023-03-01T18:49:45.112299,1574628,188,512,1650,-1036,-571,-318,56,272,-122
0,2023-03-01T18:49:45.118613,1574634,188,512,1650,-1036,-571,-318,56,272,-122
0,2023-03-01T18:49:45.123897,1574639,188,512,1650,-1036,-571,-318,56,272,-122
0,2023-03-01T18:49:45.129061,1574644,188,512,1650,-1036,-571,-318,56,272,-122
0,2023-03-01T18:49:45.134874,1574650,192,513,1646,-1035,-562,-322,56,272,-122
0,2023-03-01T18:49:45.140355,1574656,192,513,1646,-1035,-562,-322,56,272,-122
0,2023-03-01T18:49:45.145092,1574661,192,513,1646,-1035,-562,-322,56,272,-122
0,2023-03-01T18:49:45.150538,1574666,192,513,1646,-1035,-562,-322,56,272,-122
0,2023-03-01T18:49:45.155378,1574671,189,515,1646,-1035,-571,-318,56,272,-122
0,2023-03-01T18:49:45.160972,1574677,189,515,1646,-1035,-571,-318,56,272,-122
0,2023-03-01T18:49:45.166081,1574682,189,515,1646,-1035,-571,-318,56,272,-122
0,2023-03-01T18:49:45.171787,1574686,189,515,1646,-1035,-571,-318,56,272,-122
0,2023-03-01T18:49:45.177362,1574692,189,516,1638,-1030,-571,-325,56,272,-122
0,2023-03-01T18:49:45.183350,1574699,189,516,1638,-1030,-571,-325,56,272,-122
0,2023-03-01T18:49:45.188217,1574704,189,516,1638,-1030,-571,-325,56,272,-122
0,2023-03-01T18:49:45.193947,1574709,188,514,1645,-1037,-572,-317,56,266,-112
0,2023-03-01T18:49:45.199632,1574715,188,514,1645,-1037,-572,-317,56,266,-112
0,2023-03-01T18:49:45.204909,1574720,188,514,1645,-1037,-572,-317,56,266,-112
0,2023-03-01T18:49:45.209807,1574725,188,514,1645,-1037,-572,-317,56,266,-112
0,2023-03-01T18:49:45.214842,1574730,186,515,1650,-1031,-571,-319,56,266,-112
0,2023-03-01T18:49:45.220052,1574735,186,515,1650,-1031,-571,-319,56,266,-112
0,2023-03-01T18:49:45.225448,1574742,186,515,1650,-1031,-571,-319,56,266,-112
0,2023-03-01T18:49:45.229982,1574746,186,515,1650,-1031,-571,-319,56,266,-112
0,2023-03-01T18:49:45.234610,1574750,191,512,1640,-1031,-570,-323,56,266,-112
0,2023-03-01T18:49:45.240026,1574756,191,512,1640,-1031,-570,-323,56,266,-112
0,2023-03-01T18:49:45.244674,1574760,191,512,1640,-1031,-570,-323,56,266,-112
0,2023-03-01T18:49:45.249684,1574765,191,512,1640,-1031,-570,-323,56,266,-112
0,2023-03-01T18:49:45.255030,1574770,185,513,1643,-1031,-568,-316,56,266,-112
0,2023-03-01T18:49:45.260690,1574776,185,513,1643,-1031,-568,-316,56,266,-112
0,2023-03-01T18:49:45.265612,1574781,185,513,1643,-1031,-568,-316,56,266,-112
0,2023-03-01T18:49:45.270220,1574786,185,513,1643,-1031,-568,-316,56,266,-112
0,2023-03-01T18:49:45.275689,1574792,188,511,1637,-1032,-574,-319,56,266,-112
0,2023-03-01T18:49:45.281237,1574797,188,511,1637,-1032,-574,-319,56,266,-112
0,2023-03-01T18:49:45.286208,1574802,188,511,1637,-1032,-574,-319,56,266,-112
0,2023-03-01T18:49:45.291645,1574807,188,511,1637,-1032,-574,-319,56,266,-112
0,2023-03-01T18:49:45.297062,1574813,188,512,1643,-1038,-566,-327,56,266,-112
0,2023-03-01T18:49:45.303108,1574818,188,512,1643,-1038,-566,-327,56,266,-112
0,2023-03-01T18:49:45.308202,1574823,188,512,1643,-1038,-566,-327,56,266,-112
0,2023-03-01T18:49:45.313288,1574829,189,512,1640,-1029,-566,-325,51,273,-115
0,2023-03-01T18:49:45.319116,1574835,189,512,1640,-1029,-566,-325,51,273,-115
0,2023-03-01T18:49:45.324177,1574840,189,512,1640,-1029,-566,-325,51,273,-115
0,2023-03-01T18:49:45.329593,1574845,189,512,1640,-1029,-566,-325,51,273,-115
0,2023-03-01T18:49:45.335136,1574851,187,513,1645,-1033,-570,-325,51,273,-115
0,2023-03-01T18:49:45.340715,1574856,187,513,1645,-1033,-570,-325,51,273,-115
0,2023-03-01T18:49:45.345389,1574861,187,513,1645,-1033,-570,-325,51,273,-115
0,2023-03-01T18:49:45.350225,1574865,187,513,1645,-1033,-570,-325,51,273,-115
0,2023-03-01T18:49:45.355817,1574872,187,512,1640,-1036,-569,-322,51,273,-115
0,2023-03-01T18:49:45.361181,1574877,187,512,1640,-1036,-569,-322,51,273,-115
0,2023-03-01T18:49:45.366335,1574882,187,512,1640,-1036,-569,-322,51,273,-115
0,2023-03-01T18:49:45.370953,1574887,187,512,1640,-1036,-569,-322,51,273,-115
0,2023-03-01T18:49:45.376250,1574892,188,513,1642,-1039,-568,-316,51,273,-115
0,2023-03-01T18:49:45.381555,1574897,188,513,1642,-1039,-568,-316,51,273,-115
0,2023-03-01T18:49:45.386462,1574902,188,513,1642,-1039,-568,-316,51,273,-115
0,2023-03-01T18:49:45.391224,1574907,188,513,1642,-1039,-568,-316,51,273,-115
0,2023-03-01T18:49:45.396234,1574912,189,514,1644,-1038,-566,-321,51,273,-115
0,2023-03-01T18:49:45.401303,1574917,189,514,1644,-1038,-566,-321,51,273,-115
0,2023-03-01T18:49:45.406842,1574923,189,514,1644,-1038,-566,-321,51,273,-115
0,2023-03-01T18:49:45.411592,1574927,189,514,1644,-1038,-566,-321,51,273,-115
0,2023-03-01T18:49:45.416691,1574932,184,516,1649,-1040,-569,-319,51,273,-115
0,2023-03-01T18:49:45.422591,1574938,184,516,1649,-1040,-569,-319,51,273,-115
0,2023-03-01T18:49:45.427640,1574943,184,516,1649,-1040,-569,-319,51,273,-115
0,2023-03-01T18:49:45.432576,1574948,189,513,1643,-1041,-571,-323,51,273,-115
0,2023-03-01T18:49:45.438655,1574955,189,513,1643,-1041,-571,-323,51,273,-115
0,2023-03-01T18:49:45.443914,1574959,189,513,1643,-1041,-571,-323,51,273,-115
0,2023-03-01T18:49:45.448697,1574964,189,513,1643,-1041,-571,-323,51,273,-115
0,2023-03-01T18:49:45.453891,1574970,189,511,1643,-1036,-570,-321,48,276,-110
0,2023-03-01T18:49:45.459372,1574975,189,511,1643,-1036,-570,-321,48,276,-110
0,2023-03-01T18:49:45.464001,1574980,189,511,1643,-1036,-570,-321,48,276,-110
0,2023-03-01T18:49:45.468362,1574984,189,511,1643,-1036,-570,-321,48,276,-110
0,2023-03-01T18:49:45.473675,1574989,188,516,1641,-1039,-567,-324,48,276,-110
0,2023-03-01T18:49:45.478174,1574993,188,516,1641,-1039,-567,-324,48,276,-110
0,2023-03-01T18:49:45.482768,1574999,188,516,1641,-1039,-567,-324,48,276,-110
0,2023-03-01T18:49:45.487380,1575003,188,516,1641,-1039,-567,-324,48,276,-110
0,2023-03-01T18:49:45.492493,1575008,187,513,1640,-1039,-570,-325,48,276,-110
0,2023-03-01T18:49:45.498644,1575014,187,513,1640,-1039,-570,-325,48,276,-110
0,2023-03-01T18:49:45.503480,1575019,187,513,1640,-1039,-570,-325,48,276,-110
0,2023-03-01T18:49:45.508353,1575024,187,513,1640,-1039,-570,-325,48,276,-110
0,2023-03-01T18:49:45.513686,1575029,187,515,1645,-1031,-570,-329,48,276,-110
0,2023-03-01T18:49:45.519212,1575035,187,515,1645,-1031,-570,-329,48,276,-110
0,2023-03-01T18:49:45.523793,1575040,187,515,1645,-1031,-570,-329,48,276,-110
0,2023-03-01T18:49:45.528523,1575044,187,515,1645,-1031,-570,-329,48,276,-110
0,2023-03-01T18:49:45.533170,1575049,187,514,1642,-1033,-569,-323,48,276,-110
0,2023-03-01T18:49:45.538412,1575054,187,514,1642,-1033,-569,-323,48,276,-110
0,2023-03-01T18:49:45.543136,1575059,187,514,1642,-1033,-569,-323,48,276,-110
0,2023-03-01T18:49:45.548656,1575064,187,514,1642,-1033,-569,-323,48,276,-110
0,2023-03-01T18:49:45.554162,1575070,187,514,1647,-1045,-574,-320,48,276,-110
0,2023-03-01T18:49:45.559285,1575074,187,514,1647,-1045,-574,-320,48,276,-110
0,2023-03-01T18:49:45.564422,1575079,187,514,1647,-1045,-574,-320,48,276,-110
0,2023-03-01T18:49:45.569258,1575085,187,514,1647,-1045,-574,-320,48,276,-110
0,2023-03-01T18:49:45.574635,1575091,188,513,1650,-1041,-568,-326,59,269,-109
0,2023-03-01T18:49:45.580025,1575096,188,513,1650,-1041,-568,-326,59,269,-109
0,2023-03-01T18:49:45.585285,1575101,188,513,1650,-1041,-568,-326,59,269,-109
0,2023-03-01T18:49:45.590075,1575106,188,513,1650,-1041,-568,-326,59,269,-109
0,2023-03-01T18:49:45.594620,1575110,187,515,1641,-1040,-570,-329,59,269,-109
0,2023-03-01T18:49:45.600671,1575116,187,515,1641,-1040,-570,-329,59,269,-109
0,2023-03-01T18:49:45.606033,1575121,187,515,1641,-1040,-570,-329,59,269,-109
0,2023-03-01T18:49:45.611579,1575127,187,515,1641,-1040,-570,-329,59,269,-109
0,2023-03-01T18:49:45.616238,1575132,188,514,1639,-1035,-570,-325,59,269,-109
0,2023-03-01T18:49:45.622132,1575138,188,514,1639,-1035,-570,-325,59,269,-109
0,2023-03-01T18:49:45.628015,1575143,188,514,1639,-1035,-570,-325,59,269,-109
0,2023-03-01T18:49:45.633719,1575149,188,512,1640,-1034,-567,-325,59,269,-109
0,2023-03-01T18:49:45.639626,1575155,188,512,1640,-1034,-567,-325,59,269,-109
0,2023-03-01T18:49:45.644633,1575160,188,512,1640,-1034,-567,-325,59,269,-109
0,2023-03-01T18:49:45.649704,1575165,188,512,1640,-1034,-567,-325,59,269,-109
0,2023-03-01T18:49:45.655273,1575171,187,510,1641,-1035,-572,-322,59,269,-109
0,2023-03-01T18:49:45.660988,1575177,187,510,1641,-1035,-572,-322,59,269,-109
0,2023-03-01T18:49:45.666870,1575183,187,510,1641,-1035,-572,-322,59,269,-109
0,2023-03-01T18:49:45.671793,1575187,187,510,1641,-1035,-572,-322,59,269,-109
0,2023-03-01T18:49:45.677945,1575193,189,514,1639,-1028,-563,-316,59,269,-109
0,2023-03-01T18:49:45.683699,1575199,189,514,1639,-1028,-563,-316,59,269,-109
0,2023-03-01T18:49:45.689292,1575204,189,514,1639,-1028,-563,-316,59,269,-109
0,2023-03-01T18:49:45.694907,1575211,186,517,1638,-1032,-568,-318,53,267,-113
0,2023-03-01T18:49:45.700548,1575216,186,517,1638,-1032,-568,-318,53,267,-113
0,2023-03-01T18:49:45.706518,1575222,186,517,1638,-1032,-568,-318,53,267,-113
0,2023-03-01T18:49:45.711856,1575227,186,517,1638,-1032,-568,-318,53,267,-113
0,2023-03-01T18:49:45.716741,1575232,188,517,1642,-1029,-576,-324,53,267,-113
0,2023-03-01T18:49:45.722675,1575238,188,517,1642,-1029,-576,-324,53,267,-113
0,2023-03-01T18:49:45.727717,1575243,188,517,1642,-1029,-576,-324,53,267,-113
0,2023-03-01T18:49:45.732782,1575248,188,512,1640,-1040,-568,-327,53,267,-113
0,2023-03-01T18:49:45.738789,1575255,188,512,1640,-1040,-568,-327,53,267,-113
0,2023-03-01T18:49:45.744293,1575260,188,512,1640,-1040,-568,-327,53,267,-113
0,2023-03-01T18:49:45.749589,1575266,188,512,1640,-1040,-568,-327,53,267,-113
0,2023-03-01T18:49:45.754648,1575270,191,512,1635,-1032,-561,-320,53,267,-113
0,2023-03-01T18:49:45.760724,1575276,191,512,1635,-1032,-561,-320,53,267,-113
0,2023-03-01T18:49:45.765875,1575281,191,512,1635,-1032,-561,-320,53,267,-113
0,2023-03-01T18:49:45.771118,1575286,191,512,1635,-1032,-561,-320,53,267,-113
0,2023-03-01T18:49:45.776675,1575292,191,512,1638,-1037,-567,-318,53,267,-113
0,2023-03-01T18:49:45.782497,1575298,191,512,1638,-1037,-567,-318,53,267,-113
0,2023-03-01T18:49:45.788072,1575304,191,512,1638,-1037,-567,-318,53,267,-113
0,2023-03-01T18:49:45.792787,1575309,189,512,1638,-1033,-564,-321,53,267,-113
0,2023-03-01T18:49:45.798587,1575314,189,512,1638,-1033,-564,-321,53,267,-113
0,2023-03-01T18:49:45.804111,1575320,189,512,1638,-1033,-564,-321,53,267,-113
0,2023-03-01T18:49:45.808800,1575324,189,512,1638,-1033,-564,-321,53,267,-113
0,2023-03-01T18:49:45.813775,1575329,186,513,1648,-1021,-572,-320,53,267,-113
0,2023-03-01T18:49:45.819777,1575335,186,513,1648,-1021,-572,-320,53,267,-113
0,2023-03-01T18:49:45.825036,1575341,186,513,1648,-1021,-572,-320,53,267,-113
0,2023-03-01T18:49:45.830219,1575346,186,513,1648,-1021,-572,-320,53,267,-113
0,2023-03-01T18:49:45.835728,1575352,186,514,1643,-1035,-576,-317,57,265,-117
0,2023-03-01T18:49:45.841339,1575357,186,514,1643,-1035,-576,-317,57,265,-117
0,2023-03-01T18:49:45.846603,1575362,186,514,1643,-1035,-576,-317,57,265,-117
0,2023-03-01T18:49:45.851312,1575367,186,514,1643,-1035,-576,-317,57,265,-117
0,2023-03-01T18:49:45.856276,1575372,191,514,1643,-1030,-577,-318,57,265,-117
0,2023-03-01T18:49:45.861724,1575377,191,514,1643,-1030,-577,-318,57,265,-117
0,2023-03-01T18:49:45.866678,1575383,191,514,1643,-1030,-577,-318,57,265,-117
0,2023-03-01T18:49:45.871474,1575387,191,514,1643,-1030,-577,-318,57,265,-117
0,2023-03-01T18:49:45.876689,1575393,189,514,1642,-1040,-574,-325,57,265,-117
0,2023-03-01T18:49:45.882272,1575398,189,514,1642,-1040,-574,-325,57,265,-117
0,2023-03-01T18:49:45.887549,1575403,189,514,1642,-1040,-574,-325,57,265,-117
0,2023-03-01T18:49:45.892658,1575408,184,510,1644,-1039,-567,-323,57,265,-117
0,2023-03-01T18:49:45.898386,1575414,184,510,1644,-1039,-567,-323,57,265,-117
0,2023-03-01T18:49:45.903048,1575418,184,510,1644,-1039,-567,-323,57,265,-117
0,2023-03-01T18:49:45.907706,1575424,184,510,1644,-1039,-567,-323,57,265,-117
0,2023-03-01T18:49:45.912944,1575429,184,510,1639,-1035,-560,-324,57,265,-117
0,2023-03-01T18:49:45.918900,1575435,184,510,1639,-1035,-560,-324,57,265,-117
0,2023-03-01T18:49:45.925089,1575441,184,510,1639,-1035,-560,-324,57,265,-117
0,2023-03-01T18:49:45.930488,1575446,184,510,1639,-1035,-560,-324,57,265,-117
0,2023-03-01T18:49:45.935969,1575451,187,514,1646,-1041,-574,-326,57,265,-117
0,2023-03-01T18:49:45.942045,1575457,187,514,1646,-1041,-574,-326,57,265,-117
0,2023-03-01T18:49:45.947867,1575463,187,514,1646,-1041,-574,-326,57,265,-117
0,2023-03-01T18:49:45.952935,1575469,189,513,1645,-1037,-568,-314,61,267,-115
0,2023-03-01T18:49:45.958456,1575474,189,513,1645,-1037,-568,-314,61,267,-115
0,2023-03-01T18:49:45.963342,1575479,189,513,1645,-1037,-568,-314,61,267,-115
0,2023-03-01T18:49:45.968399,1575484,189,513,1645,-1037,-568,-314,61,267,-115
0,2023-03-01T18:49:45.973552,1575489,189,517,1648,-1034,-567,-323,61,267,-115
0,2023-03-01T18:49:45.978529,1575494,189,517,1648,-1034,-567,-323,61,267,-115
0,2023-03-01T18:49:45.983367,1575499,189,517,1648,-1034,-567,-323,61,267,-115
0,2023-03-01T18:49:45.988012,1575503,189,517,1648,-1034,-567,-323,61,267,-115
0,2023-03-01T18:49:45.993287,1575510,190,514,1644,-1038,-580,-321,61,267,-115
0,2023-03-01T18:49:45.999275,1575515,190,514,1644,-1038,-580,-321,61,267,-115
0,2023-03-01T18:49:46.004351,1575520,190,514,1644,-1038,-580,-321,61,267,-115
0,2023-03-01T18:49:46.009035,1575525,190,514,1644,-1038,-580,-321,61,267,-115
0,2023-03-01T18:49:46.014715,1575530,188,516,1646,-1041,-570,-320,61,267,-115
0,2023-03-01T18:49:46.019940,1575536,188,516,1646,-1041,-570,-320,61,267,-115
0,2023-03-01T18:49:46.024961,1575540,188,516,1646,-1041,-570,-320,61,267,-115
0,2023-03-01T18:49:46.030014,1575545,188,516,1646,-1041,-570,-320,61,267,-115
0,2023-03-01T18:49:46.034561,1575550,186,516,1643,-1039,-568,-320,61,267,-115
0,2023-03-01T18:49:46.039212,1575555,186,516,1643,-1039,-568,-320,61,267,-115
0,2023-03-01T18:49:46.044690,1575561,186,516,1643,-1039,-568,-320,61,267,-115
0,2023-03-01T18:49:46.049405,1575565,186,516,1643,-1039,-568,-320,61,267,-115
0,2023-03-01T18:49:46.055141,1575571,185,512,1644,-1028,-564,-326,61,267,-115
0,2023-03-01T18:49:46.059681,1575575,185,512,1644,-1028,-564,-326,61,267,-115
0,2023-03-01T18:49:46.065227,1575580,185,512,1644,-1028,-564,-326,61,267,-115
0,2023-03-01T18:49:46.070036,1575586,185,512,1644,-1028,-564,-326,61,267,-115
0,2023-03-01T18:49:46.075323,1575590,184,511,1634,-1034,-569,-325,61,267,-115
0,2023-03-01T18:49:46.080791,1575597,184,511,1634,-1034,-569,-325,61,267,-115
0,2023-03-01T18:49:46.085539,1575602,184,511,1634,-1034,-569,-325,61,267,-115
0,2023-03-01T18:49:46.090773,1575606,184,511,1634,-1034,-569,-325,61,267,-115
0,2023-03-01T18:49:46.096129,1575612,188,513,1647,-1034,-574,-325,60,272,-110
0,2023-03-01T18:49:46.101093,1575617,188,513,1647,-1034,-574,-325,60,272,-110
0,2023-03-01T18:49:46.106045,1575621,188,513,1647,-1034,-574,-325,60,272,-110
0,2023-03-01T18:49:46.111022,1575626,188,513,1647,-1034,-574,-325,60,272,-110
0,2023-03-01T18:49:46.116215,1575632,186,512,1641,-1037,-574,-318,60,272,-110
0,2023-03-01T18:49:46.121607,1575638,186,512,1641,-1037,-574,-318,60,272,-110
0,2023-03-01T18:49:46.126274,1575642,186,512,1641,-1037,-574,-318,60,272,-110
0,2023-03-01T18:49:46.130930,1575647,186,512,1641,-1037,-574,-318,60,272,-110
0,2023-03-01T18:49:46.136324,1575652,186,511,1643,-1043,-568,-321,60,272,-110
0,2023-03-01T18:49:46.141514,1575657,186,511,1643,-1043,-568,-321,60,272,-110
0,2023-03-01T18:49:46.146154,1575662,186,511,1643,-1043,-568,-321,60,272,-110
0,2023-03-01T18:49:46.151441,1575667,186,511,1643,-1043,-568,-321,60,272,-110
0,2023-03-01T18:49:46.156879,1575672,186,513,1642,-1036,-569,-327,60,272,-110
0,2023-03-01T18:49:46.162759,1575678,186,513,1642,-1036,-569,-327,60,272,-110
0,2023-03-01T18:49:46.167633,1575683,186,513,1642,-1036,-569,-327,60,272,-110
0,2023-03-01T18:49:46.172112,1575688,186,513,1642,-1036,-569,-327,60,272,-110
0,2023-03-01T18:49:46.177784,1575694,188,515,1644,-1024,-570,-324,60,272,-110
0,2023-03-01T18:49:46.184046,1575700,188,515,1644,-1024,-570,-324,60,272,-110
0,2023-03-01T18:49:46.188875,1575705,188,515,1644,-1024,-570,-324,60,272,-110
0,2023-03-01T18:49:46.193809,1575709,187,516,1643,-1030,-561,-320,60,272,-110
0,2023-03-01T18:49:46.198547,1575714,187,516,1643,-1030,-561,-320,60,272,-110
0,2023-03-01T18:49:46.203378,1575719,187,516,1643,-1030,-561,-320,60,272,-110
0,2023-03-01T18:49:46.207770,1575724,187,516,1643,-1030,-561,-320,60,272,-110
0,2023-03-01T18:49:46.212703,1575729,187,516,1643,-1030,-561,-320,60,272,-110
0,2023-03-01T18:49:46.217576,1575734,184,515,1644,-1039,-569,-321,55,269,-109
0,2023-03-01T18:49:46.223157,1575739,184,515,1644,-1039,-569,-321,55,269,-109
0,2023-03-01T18:49:46.227998,1575744,184,515,1644,-1039,-569,-321,55,269,-109
0,2023-03-01T18:49:46.232774,1575748,184,515,1644,-1039,-569,-321,55,269,-109
0,2023-03-01T18:49:46.237457,1575753,186,511,1643,-1040,-575,-323,55,269,-109
0,2023-03-01T18:49:46.242621,1575758,186,511,1643,-1040,-575,-323,55,269,-109
0,2023-03-01T18:49:46.247195,1575762,186,511,1643,-1040,-575,-323,55,269,-109
0,2023-03-01T18:49:46.252187,1575768,186,511,1643,-1040,-575,-323,55,269,-109
0,2023-03-01T18:49:46.256894,1575773,185,514,1639,-1032,-570,-321,55,269,-109
0,2023-03-01T18:49:46.261674,1575778,185,514,1639,-1032,-570,-321,55,269,-109
0,2023-03-01T18:49:46.266555,1575782,185,514,1639,-1032,-570,-321,55,269,-109
0,2023-03-01T18:49:46.271397,1575787,185,514,1639,-1032,-570,-321,55,269,-109
0,2023-03-01T18:49:46.276633,1575792,188,512,1644,-1039,-568,-330,55,269,-109
0,2023-03-01T18:49:46.281832,1575797,188,512,1644,-1039,-568,-330,55,269,-109
0,2023-03-01T18:49:46.286741,1575802,188,512,1644,-1039,-568,-330,55,269,-109
0,2023-03-01T18:49:46.291385,1575808,188,512,1644,-1039,-568,-330,55,269,-109
0,2023-03-01T18:49:46.296797,1575813,188,513,1642,-1031,-569,-321,55,269,-109
0,2023-03-01T18:49:46.301413,1575817,188,513,1642,-1031,-569,-321,55,269,-109
0,2023-03-01T18:49:46.305888,1575822,188,513,1642,-1031,-569,-321,55,269,-109
0,2023-03-01T18:49:46.310837,1575827,188,513,1642,-1031,-569,-321,55,269,-109
0,2023-03-01T18:49:46.315954,1575832,187,514,1643,-1040,-568,-321,55,269,-109
0,2023-03-01T18:49:46.321207,1575837,187,514,1643,-1040,-568,-321,55,269,-109
0,2023-03-01T18:49:46.326668,1575842,187,514,1643,-1040,-568,-321,55,269,-109
0,2023-03-01T18:49:46.331361,1575847,187,514,1643,-1040,-568,-321,55,269,-109
0,2023-03-01T18:49:46.335764,1575852,184,513,1640,-1033,-570,-323,55,269,-109
0,2023-03-01T18:49:46.341216,1575857,184,513,1640,-1033,-570,-323,55,269,-109
0,2023-03-01T18:49:46.346262,1575862,184,513,1640,-1033,-570,-323,55,269,-109
0,2023-03-01T18:49:46.351097,1575867,184,513,1640,-1033,-570,-323,55,269,-109
0,2023-03-01T18:49:46.355696,1575872,186,514,1647,-1040,-567,-319,46,268,-114
0,2023-03-01T18:49:46.360712,1575876,186,514,1647,-1040,-567,-319,46,268,-114
0,2023-03-01T18:49:46.365610,1575881,186,514,1647,-1040,-567,-319,46,268,-114
0,2023-03-01T18:49:46.370577,1575886,186,514,1647,-1040,-567,-319,46,268,-114
0,2023-03-01T18:49:46.377120,1575891,188,516,1643,-1034,-570,-322,46,268,-114
0,2023-03-01T18:49:46.382227,1575898,188,516,1643,-1034,-570,-322,46,268,-114
0,2023-03-01T18:49:46.387222,1575903,188,516,1643,-1034,-570,-322,46,268,-114
0,2023-03-01T18:49:46.392191,1575908,188,516,1643,-1034,-570,-322,46,268,-114
0,2023-03-01T18:49:46.397373,1575913,185,515,1643,-1035,-573,-320,46,268,-114
0,2023-03-01T18:49:46.403130,1575919,185,515,1643,-1035,-573,-320,46,268,-114
0,2023-03-01T18:49:46.407721,1575923,185,515,1643,-1035,-573,-320,46,268,-114
0,2023-03-01T18:49:46.412382,1575928,185,515,1643,-1035,-573,-320,46,268,-114
0,2023-03-01T18:49:46.418298,1575933,188,512,1645,-1038,-574,-324,46,268,-114
0,2023-03-01T18:49:46.424337,1575940,188,512,1645,-1038,-574,-324,46,268,-114
0,2023-03-01T18:49:46.429290,1575945,188,512,1645,-1038,-574,-324,46,268,-114
0,2023-03-01T18:49:46.434965,1575951,187,513,1645,-1037,-573,-321,46,268,-114
0,2023-03-01T18:49:46.440612,1575956,187,513,1645,-1037,-573,-321,46,268,-114
0,2023-03-01T18:49:46.446412,1575962,187,513,1645,-1037,-573,-321,46,268,-114
0,2023-03-01T18:49:46.451517,1575967,187,513,1645,-1037,-573,-321,46,268,-114
0,2023-03-01T18:49:46.456571,1575972,187,515,1635,-1037,-574,-319,46,268,-114
0,2023-03-01T18:49:46.462545,1575977,187,515,1635,-1037,-574,-319,46,268,-114
0,2023-03-01T18:49:46.467457,1575984,187,515,1635,-1037,-574,-319,46,268,-114
0,2023-03-01T18:49:46.472819,1575988,187,515,1635,-1037,-574,-319,46,268,-114
0,2023-03-01T18:49:46.478503,1575994,186,513,1642,-1033,-573,-329,52,264,-112
0,2023-03-01T18:49:46.484573,1576000,186,513,1642,-1033,-573,-329,52,264,-112
0,2023-03-01T18:49:46.489245,1576005,186,513,1642,-1033,-573,-329,52,264,-112
0,2023-03-01T18:49:46.493731,1576009,186,513,1641,-1043,-573,-321,52,264,-112
0,2023-03-01T18:49:46.498784,1576014,186,513,1641,-1043,-573,-321,52,264,-112
0,2023-03-01T18:49:46.504382,1576020,186,513,1641,-1043,-573,-321,52,264,-112
0,2023-03-01T18:49:46.509012,1576025,186,513,1641,-1043,-573,-321,52,264,-112
0,2023-03-01T18:49:46.514321,1576030,186,515,1642,-1039,-574,-324,52,264,-112
0,2023-03-01T18:49:46.519654,1576036,186,515,1642,-1039,-574,-324,52,264,-112
0,2023-03-01T18:49:46.524392,1576040,186,515,1642,-1039,-574,-324,52,264,-112
0,2023-03-01T18:49:46.529147,1576045,186,515,1642,-1039,-574,-324,52,264,-112
0,2023-03-01T18:49:46.534335,1576050,189,513,1643,-1026,-569,-322,52,264,-112
0,2023-03-01T18:49:46.539556,1576055,189,513,1643,-1026,-569,-322,52,264,-112
0,2023-03-01T18:49:46.544797,1576060,189,513,1643,-1026,-569,-322,52,264,-112
0,2023-03-01T18:49:46.549313,1576066,189,513,1643,-1026,-569,-322,52,264,-112
0,2023-03-01T18:49:46.554691,1576071,190,514,1641,-1032,-569,-321,52,264,-112
0,2023-03-01T18:49:46.559835,1576076,190,514,1641,-1032,-569,-321,52,264,-112
0,2023-03-01T18:49:46.564672,1576080,190,514,1641,-1032,-569,-321,52,264,-112
0,2023-03-01T18:49:46.569299,1576085,190,514,1641,-1032,-569,-321,52,264,-112
0,2023-03-01T18:49:46.574679,1576090,188,513,1636,-1040,-573,-326,52,264,-112
0,2023-03-01T18:49:46.580038,1576095,188,513,1636,-1040,-573,-326,52,264,-112
0,2023-03-01T18:49:46.584572,1576100,188,513,1636,-1040,-573,-326,52,264,-112
0,2023-03-01T18:49:46.589042,1576104,188,513,1636,-1040,-573,-326,52,264,-112
0,2023-03-01T18:49:46.594267,1576111,185,513,1642,-1040,-569,-325,62,262,-114
0,2023-03-01T18:49:46.599399,1576115,185,513,1642,-1040,-569,-325,62,262,-114
0,2023-03-01T18:49:46.604157,1576120,185,513,1642,-1040,-569,-325,62,262,-114
0,2023-03-01T18:49:46.608901,1576125,185,513,1642,-1040,-569,-325,62,262,-114
0,2023-03-01T18:49:46.614335,1576130,187,513,1647,-1029,-567,-319,62,262,-114
0,2023-03-01T18:49:46.620148,1576136,187,513,1647,-1029,-567,-319,62,262,-114
0,2023-03-01T18:49:46.625044,1576141,187,513,1647,-1029,-567,-319,62,262,-114
0,2023-03-01T18:49:46.630060,1576145,187,513,1647,-1029,-567,-319,62,262,-114
0,2023-03-01T18:49:46.635651,1576152,186,514,1638,-1035,-575,-317,62,262,-114
0,2023-03-01T18:49:46.641245,1576157,186,514,1638,-1035,-575,-317,62,262,-114
0,2023-03-01T18:49:46.646090,1576162,186,514,1638,-1035,-575,-317,62,262,-114
0,2023-03-01T18:49:46.650870,1576167,186,514,1638,-1035,-575,-317,62,262,-114
0,2023-03-01T18:49:46.656659,1576172,190,513,1644,-1037,-572,-324,62,262,-114
0,2023-03-01T18:49:46.662368,1576178,190,513,1644,-1037,-572,-324,62,262,-114
0,2023-03-01T18:49:46.667885,1576183,190,513,1644,-1037,-572,-324,62,262,-114
0,2023-03-01T18:49:46.672808,1576188,190,513,1644,-1037,-572,-324,62,262,-114
0,2023-03-01T18:49:46.677627,1576194,187,513,1640,-1026,-572,-320,62,262,-114
0,2023-03-01T18:49:46.683761,1576200,187,513,1640,-1026,-572,-320,62,262,-114
0,2023-03-01T18:49:46.689268,1576205,187,513,1640,-1026,-572,-320,62,262,-114
0,2023-03-01T18:49:46.694624,1576210,185,514,1641,-1030,-576,-318,62,262,-114
0,2023-03-01T18:49:46.700014,1576216,185,514,1641,-1030,-576,-318,62,262,-114
0,2023-03-01T18:49:46.706336,1576221,185,514,1641,-1030,-576,-318,62,262,-114
0,2023-03-01T18:49:46.711077,1576227,185,514,1641,-1030,-576,-318,62,262,-114
0,2023-03-01T18:49:46.716527,1576232,188,514,1645,-1035,-572,-318,62,262,-114
0,2023-03-01T18:49:46.722113,1576238,188,514,1645,-1035,-572,-318,62,262,-114
0,2023-03-01T18:49:46.727356,1576243,188,514,1645,-1035,-572,-318,62,262,-114
0,2023-03-01T18:49:46.732226,1576248,188,514,1645,-1035,-572,-318,62,262,-114
0,2023-03-01T18:49:46.737558,1576253,188,513,1647,-1031,-576,-316,49,265,-107
0,2023-03-01T18:49:46.743169,1576259,188,513,1647,-1031,-576,-316,49,265,-107
0,2023-03-01T18:49:46.748042,1576264,188,513,1647,-1031,-576,-316,49,265,-107
0,2023-03-01T18:49:46.753172,1576269,188,513,1647,-1031,-576,-316,49,265,-107
0,2023-03-01T18:49:46.758764,1576274,188,514,1639,-1044,-573,-316,49,265,-107
0,2023-03-01T18:49:46.764519,1576281,188,514,1639,-1044,-573,-316,49,265,-107
0,2023-03-01T18:49:46.769261,1576285,188,514,1639,-1044,-573,-316,49,265,-107
0,2023-03-01T18:49:46.774247,1576290,186,514,1639,-1035,-562,-318,49,265,-107
0,2023-03-01T18:49:46.779446,1576295,186,514,1639,-1035,-562,-318,49,265,-107
0,2023-03-01T18:49:46.784357,1576300,186,514,1639,-1035,-562,-318,49,265,-107
0,2023-03-01T18:49:46.789317,1576305,186,514,1639,-1035,-562,-318,49,265,-107
0,2023-03-01T18:49:46.795211,1576310,187,514,1641,-1028,-565,-323,49,265,-107
0,2023-03-01T18:49:46.800998,1576316,187,514,1641,-1028,-565,-323,49,265,-107
0,2023-03-01T18:49:46.806982,1576323,187,514,1641,-1028,-565,-323,49,265,-107
0,2023-03-01T18:49:46.811837,1576328,187,514,1641,-1028,-565,-323,49,265,-107
0,2023-03-01T18:49:46.817155,1576333,189,514,1642,-1031,-561,-322,49,265,-107
0,2023-03-01T18:49:46.823009,1576338,189,514,1642,-1031,-561,-322,49,265,-107
0,2023-03-01T18:49:46.827877,1576343,189,514,1642,-1031,-561,-322,49,265,-107
0,2023-03-01T18:49:46.832741,1576348,189,514,1642,-1031,-561,-322,49,265,-107
0,2023-03-01T18:49:46.838092,1576354,184,514,1639,-1036,-571,-319,49,265,-107
0,2023-03-01T18:49:46.843830,1576359,184,514,1639,-1036,-571,-319,49,265,-107
0,2023-03-01T18:49:46.848705,1576365,184,514,1639,-1036,-571,-319,49,265,-107
0,2023-03-01T18:49:46.854661,1576370,187,511,1642,-1027,-566,-319,54,266,-108
0,2023-03-01T18:49:46.859975,1576376,187,511,1642,-1027,-566,-319,54,266,-108
0,2023-03-01T18:49:46.865393,1576381,187,511,1642,-1027,-566,-319,54,266,-108
0,2023-03-01T18:49:46.870275,1576386,187,511,1642,-1027,-566,-319,54,266,-108
0,2023-03-01T18:49:46.875224,1576391,186,514,1639,-1027,-563,-316,54,266,-108
0,2023-03-01T18:49:46.880651,1576396,186,514,1639,-1027,-563,-316,54,266,-108
0,2023-03-01T18:49:46.885372,1576401,186,514,1639,-1027,-563,-316,54,266,-108
0,2023-03-01T18:49:46.890269,1576406,186,514,1639,-1027,-563,-316,54,266,-108
0,2023-03-01T18:49:46.895770,1576412,189,515,1643,-1036,-563,-317,54,266,-108
0,2023-03-01T18:49:46.901295,1576417,189,515,1643,-1036,-563,-317,54,266,-108
0,2023-03-01T18:49:46.906526,1576422,189,515,1643,-1036,-563,-317,54,266,-108
0,2023-03-01T18:49:46.911071,1576427,189,515,1643,-1036,-563,-317,54,266,-108
0,2023-03-01T18:49:46.916690,1576432,191,512,1642,-1042,-572,-327,54,266,-108
0,2023-03-01T18:49:46.922226,1576437,191,512,1642,-1042,-572,-327,54,266,-108
0,2023-03-01T18:49:46.927197,1576442,191,512,1642,-1042,-572,-327,54,266,-108
0,2023-03-01T18:49:46.932114,1576448,191,512,1642,-1042,-572,-327,54,266,-108
0,2023-03-01T18:49:46.937439,1576453,188,514,1640,-1039,-566,-319,54,266,-108
0,2023-03-01T18:49:46.942738,1576459,188,514,1640,-1039,-566,-319,54,266,-108
0,2023-03-01T18:49:46.947594,1576463,188,514,1640,-1039,-566,-319,54,266,-108
0,2023-03-01T18:49:46.952678,1576468,188,514,1640,-1039,-566,-319,54,266,-108
0,2023-03-01T18:49:46.958055,1576474,187,509,1642,-1029,-572,-325,54,266,-108
0,2023-03-01T18:49:46.964226,1576479,187,509,1642,-1029,-572,-325,54,266,-108
0,2023-03-01T18:49:46.969548,1576485,187,509,1642,-1029,-572,-325,54,266,-108
0,2023-03-01T18:49:46.975213,1576491,189,514,1641,-1040,-578,-325,54,266,-108
0,2023-03-01T18:49:46.981109,1576497,189,514,1641,-1040,-578,-325,54,266,-108
0,2023-03-01T18:49:46.987247,1576503,189,514,1641,-1040,-578,-325,54,266,-108
0,2023-03-01T18:49:46.992094,1576508,189,514,1641,-1040,-578,-325,54,266,-108
0,2023-03-01T18:49:46.997728,1576513,188,512,1647,-1042,-575,-322,68,270,-114
0,2023-03-01T18:49:47.003155,1576519,188,512,1647,-1042,-575,-322,68,270,-114
0,2023-03-01T18:49:47.008540,1576524,188,512,1647,-1042,-575,-322,68,270,-114
0,2023-03-01T18:49:47.013811,1576529,188,512,1647,-1042,-575,-322,68,270,-114
0,2023-03-01T18:49:47.018727,1576535,185,509,1643,-1021,-574,-326,68,270,-114
0,2023-03-01T18:49:47.024609,1576541,185,509,1643,-1021,-574,-326,68,270,-114
0,2023-03-01T18:49:47.029820,1576546,185,509,1643,-1021,-574,-326,68,270,-114
0,2023-03-01T18:49:47.035279,1576551,186,513,1642,-1036,-565,-330,68,270,-114
0,2023-03-01T18:49:47.040718,1576556,186,513,1642,-1036,-565,-330,68,270,-114
0,2023-03-01T18:49:47.045402,1576561,186,513,1642,-1036,-565,-330,68,270,-114
0,2023-03-01T18:49:47.050209,1576566,186,513,1642,-1036,-565,-330,68,270,-114
0,2023-03-01T18:49:47.055344,1576571,188,515,1643,-1039,-562,-327,68,270,-114
0,2023-03-01T18:49:47.060789,1576577,188,515,1643,-1039,-562,-327,68,270,-114
0,2023-03-01T18:49:47.065493,1576582,188,515,1643,-1039,-562,-327,68,270,-114
0,2023-03-01T18:49:47.070681,1576587,188,515,1643,-1039,-562,-327,68,270,-114
0,2023-03-01T18:49:47.076111,1576592,190,513,1638,-1038,-559,-320,68,270,-114
0,2023-03-01T18:49:47.081714,1576597,190,513,1638,-1038,-559,-320,68,270,-114
0,2023-03-01T18:49:47.087033,1576603,190,513,1638,-1038,-559,-320,68,270,-114
0,2023-03-01T18:49:47.091724,1576607,190,513,1638,-1038,-559,-320,68,270,-114
0,2023-03-01T18:49:47.097052,1576612,188,511,1643,-1039,-569,-312,68,270,-114
0,2023-03-01T18:49:47.102255,1576617,188,511,1643,-1039,-569,-312,68,270,-114
0,2023-03-01T18:49:47.106881,1576623,188,511,1643,-1039,-569,-312,68,270,-114
0,2023-03-01T18:49:47.111522,1576628,188,511,1643,-1039,-569,-312,68,270,-114
0,2023-03-01T18:49:47.117370,1576633,191,513,1648,-1031,-577,-310,58,272,-110
0,2023-03-01T18:49:47.122572,1576638,191,513,1648,-1031,-577,-310,58,272,-110
0,2023-03-01T18:49:47.127256,1576643,191,513,1648,-1031,-577,-310,58,272,-110
0,2023-03-01T18:49:47.132209,1576648,191,513,1648,-1031,-577,-310,58,272,-110
0,2023-03-01T18:49:47.137534,1576653,191,515,1649,-1028,-564,-309,58,272,-110
0,2023-03-01T18:49:47.142020,1576657,191,515,1649,-1028,-564,-309,58,272,-110
0,2023-03-01T18:49:47.147532,1576664,191,515,1649,-1028,-564,-309,58,272,-110
0,2023-03-01T18:49:47.152592,1576669,191,515,1649,-1028,-564,-309,58,272,-110
0,2023-03-01T18:49:47.157873,1576674,186,514,1647,-1035,-564,-322,58,272,-110
0,2023-03-01T18:49:47.163045,1576679,186,514,1647,-1035,-564,-322,58,272,-110
0,2023-03-01T18:49:47.168213,1576684,186,514,1647,-1035,-564,-322,58,272,-110
0,2023-03-01T18:49:47.173262,1576689,186,514,1647,-1035,-564,-322,58,272,-110
0,2023-03-01T18:49:47.178684,1576694,184,511,1643,-1037,-566,-319,58,272,-110
0,2023-03-01T18:49:47.184730,1576700,184,511,1643,-1037,-566,-319,58,272,-110
0,2023-03-01T18:49:47.189577,1576706,184,511,1643,-1037,-566,-319,58,272,-110
0,2023-03-01T18:49:47.194889,1576711,188,514,1640,-1035,-572,-325,58,272,-110
0,2023-03-01T18:49:47.200232,1576716,188,514,1640,-1035,-572,-325,58,272,-110
0,2023-03-01T18:49:47.205391,1576721,188,514,1640,-1035,-572,-325,58,272,-110
0,2023-03-01T18:49:47.209922,1576726,188,514,1640,-1035,-572,-325,58,272,-110
0,2023-03-01T18:49:47.215427,1576731,191,512,1639,-1034,-569,-318,58,272,-110
0,2023-03-01T18:49:47.220802,1576736,191,512,1639,-1034,-569,-318,58,272,-110
0,2023-03-01T18:49:47.226170,1576741,191,512,1639,-1034,-569,-318,58,272,-110
0,2023-03-01T18:49:47.231056,1576747,191,512,1639,-1034,-569,-318,58,272,-110
0,2023-03-01T18:49:47.236747,1576753,189,512,1643,-1028,-573,-324,58,272,-110
0,2023-03-01T18:49:47.242499,1576758,189,512,1643,-1028,-573,-324,58,272,-110
0,2023-03-01T18:49:47.247373,1576763,189,512,1643,-1028,-573,-324,58,272,-110
0,2023-03-01T18:49:47.251908,1576768,189,512,1643,-1028,-573,-324,58,272,-110
0,2023-03-01T18:49:47.257744,1576773,188,514,1644,-1034,-570,-322,53,275,-117
0,2023-03-01T18:49:47.263601,1576779,188,514,1644,-1034,-570,-322,53,275,-117
0,2023-03-01T18:49:47.268628,1576784,188,514,1644,-1034,-570,-322,53,275,-117
0,2023-03-01T18:49:47.274696,1576791,185,513,1640,-1043,-576,-322,53,275,-117
0,2023-03-01T18:49:47.280190,1576796,185,513,1640,-1043,-576,-322,53,275,-117
0,2023-03-01T18:49:47.285589,1576801,185,513,1640,-1043,-576,-322,53,275,-117
0,2023-03-01T18:49:47.290624,1576806,185,513,1640,-1043,-576,-322,53,275,-117
0,2023-03-01T18:49:47.295940,1576812,185,512,1641,-1035,-572,-322,53,275,-117
0,2023-03-01T18:49:47.301523,1576817,185,512,1641,-1035,-572,-322,53,275,-117
0,2023-03-01T18:49:47.307472,1576823,185,512,1641,-1035,-572,-322,53,275,-117
0,2023-03-01T18:49:47.312731,1576828,185,512,1641,-1035,-572,-322,53,275,-117
0,2023-03-01T18:49:47.318348,1576834,188,510,1640,-1033,-571,-325,53,275,-117
0,2023-03-01T18:49:47.323868,1576840,188,510,1640,-1033,-571,-325,53,275,-117
0,2023-03-01T18:49:47.329506,1576845,188,510,1640,-1033,-571,-325,53,275,-117
0,2023-03-01T18:49:47.335017,1576851,187,514,1642,-1030,-573,-323,53,275,-117
0,2023-03-01T18:49:47.340584,1576856,187,514,1642,-1030,-573,-323,53,275,-117
0,2023-03-01T18:49:47.346349,1576862,187,514,1642,-1030,-573,-323,53,275,-117
0,2023-03-01T18:49:47.351335,1576867,187,514,1642,-1030,-573,-323,53,275,-117
0,2023-03-01T18:49:47.356783,1576872,187,514,1642,-1030,-573,-323,53,275,-117
0,2023-03-01T18:49:47.362166,1576878,187,514,1642,-1030,-573,-323,53,275,-117
0,2023-03-01T18:49:47.367378,1576883,187,514,1642,-1030,-573,-323,53,275,-117
0,2023-03-01T18:49:47.372413,1576888,187,514,1642,-1030,-573,-323,53,275,-117
0,2023-03-01T18:49:47.377549,1576893,189,513,1640,-1034,-579,-318,50,270,-114
0,2023-03-01T18:49:47.382181,1576898,189,513,1640,-1034,-579,-318,50,270,-114
0,2023-03-01T18:49:47.387564,1576903,189,513,1640,-1034,-579,-318,50,270,-114
0,2023-03-01T18:49:47.392339,1576908,189,513,1640,-1034,-579,-318,50,270,-114
0,2023-03-01T18:49:47.396938,1576912,190,513,1646,-1036,-570,-323,50,270,-114
0,2023-03-01T18:49:47.402362,1576919,190,513,1646,-1036,-570,-323,50,270,-114
0,2023-03-01T18:49:47.407379,1576923,190,513,1646,-1036,-570,-323,50,270,-114
0,2023-03-01T18:49:47.412580,1576929,190,513,1646,-1036,-570,-323,50,270,-114
0,2023-03-01T18:49:47.418432,1576934,186,513,1643,-1038,-573,-322,50,270,-114
0,2023-03-01T18:49:47.423957,1576940,186,513,1643,-1038,-573,-322,50,270,-114
0,2023-03-01T18:49:47.428880,1576945,186,513,1643,-1038,-573,-322,50,270,-114
0,2023-03-01T18:49:47.434241,1576950,186,513,1643,-1038,-573,-322,50,270,-114
0,2023-03-01T18:49:47.439222,1576955,187,514,1642,-1034,-575,-323,50,270,-114
0,2023-03-01T18:49:47.444610,1576961,187,514,1642,-1034,-575,-323,50,270,-114
0,2023-03-01T18:49:47.449260,1576965,187,514,1642,-1034,-575,-323,50,270,-114
0,2023-03-01T18:49:47.454795,1576971,187,514,1642,-1034,-575,-323,50,270,-114
0,2023-03-01T18:49:47.459557,1576976,187,514,1642,-1034,-575,-323,50,270,-114
0,2023-03-01T18:49:47.464834,1576981,187,514,1642,-1034,-575,-323,50,270,-114
0,2023-03-01T18:49:47.469704,1576985,187,514,1642,-1034,-575,-323,50,270,-114
0,2023-03-01T18:49:47.475679,1576991,189,512,1641,-1034,-573,-317,50,270,-114
0,2023-03-01T18:49:47.481188,1576997,189,512,1641,-1034,-573,-317,50,270,-114
0,2023-03-01T18:49:47.487272,1577003,189,512,1641,-1034,-573,-317,50,270,-114
0,2023-03-01T18:49:47.493080,1577009,189,512,1641,-1034,-573,-317,50,270,-114
0,2023-03-01T18:49:47.498779,1577015,186,514,1639,-1033,-566,-318,56,270,-108
0,2023-03-01T18:49:47.504948,1577021,186,514,1639,-1033,-566,-318,56,270,-108
0,2023-03-01T18:49:47.510023,1577026,186,514,1639,-1033,-566,-318,56,270,-108
0,2023-03-01T18:49:47.515882,1577031,187,515,1645,-1038,-567,-322,56,270,-108
0,2023-03-01T18:49:47.521386,1577037,187,515,1645,-1038,-567,-322,56,270,-108
0,2023-03-01T18:49:47.527503,1577043,187,515,1645,-1038,-567,-322,56,270,-108
0,2023-03-01T18:49:47.532404,1577048,187,515,1645,-1038,-567,-322,56,270,-108
0,2023-03-01T18:49:47.537940,1577054,186,516,1636,-1037,-564,-313,56,270,-108
0,2023-03-01T18:49:47.543562,1577059,186,516,1636,-1037,-564,-313,56,270,-108
0,2023-03-01T18:49:47.549419,1577065,186,516,1636,-1037,-564,-313,56,270,-108
0,2023-03-01T18:49:47.555118,1577071,190,513,1645,-1030,-569,-321,56,270,-108
0,2023-03-01T18:49:47.560907,1577076,190,513,1645,-1030,-569,-321,56,270,-108
0,2023-03-01T18:49:47.566054,1577081,190,513,1645,-1030,-569,-321,56,270,-108
0,2023-03-01T18:49:47.571036,1577086,190,513,1645,-1030,-569,-321,56,270,-108
0,2023-03-01T18:49:47.577978,1577092,185,513,1648,-1039,-571,-324,56,270,-108
0,2023-03-01T18:49:47.583953,1577100,185,513,1648,-1039,-571,-324,56,270,-108
0,2023-03-01T18:49:47.589782,1577105,185,513,1648,-1039,-571,-324,56,270,-108
0,2023-03-01T18:49:47.595319,1577111,186,512,1646,-1031,-569,-319,56,270,-108
0,2023-03-01T18:49:47.602251,1577118,186,512,1646,-1031,-569,-319,56,270,-108
0,2023-03-01T18:49:47.607897,1577123,186,512,1646,-1031,-569,-319,56,270,-108
0,2023-03-01T18:49:47.612873,1577128,186,512,1646,-1031,-569,-319,56,270,-108
0,2023-03-01T18:49:47.618290,1577134,186,510,1645,-1039,-570,-324,56,270,-108
0,2023-03-01T18:49:47.623755,1577140,186,510,1645,-1039,-570,-324,56,270,-108
0,2023-03-01T18:49:47.629375,1577145,186,510,1645,-1039,-570,-324,56,270,-108
0,2023-03-01T18:49:47.635907,1577151,189,515,1644,-1041,-568,-321,57,273,-109
0,2023-03-01T18:49:47.641437,1577157,189,515,1644,-1041,-568,-321,57,273,-109
0,2023-03-01T18:49:47.646389,1577162,189,515,1644,-1041,-568,-321,57,273,-109
0,2023-03-01T18:49:47.651611,1577167,189,515,1644,-1041,-568,-321,57,273,-109
0,2023-03-01T18:49:47.657025,1577172,188,516,1641,-1042,-570,-317,57,273,-109
0,2023-03-01T18:49:47.662759,1577179,188,516,1641,-1042,-570,-317,57,273,-109
0,2023-03-01T18:49:47.667886,1577184,188,516,1641,-1042,-570,-317,57,273,-109
0,2023-03-01T18:49:47.672606,1577189,188,516,1641,-1042,-570,-317,57,273,-109
0,2023-03-01T18:49:47.678281,1577194,185,512,1646,-1043,-567,-325,57,273,-109
0,2023-03-01T18:49:47.683678,1577199,185,512,1646,-1043,-567,-325,57,273,-109
0,2023-03-01T18:49:47.689164,1577204,185,512,1646,-1043,-567,-325,57,273,-109
0,2023-03-01T18:49:47.694803,1577210,185,517,1642,-1042,-570,-327,57,273,-109
0,2023-03-01T18:49:47.700566,1577217,185,517,1642,-1042,-570,-327,57,273,-109
0,2023-03-01T18:49:47.705515,1577222,185,517,1642,-1042,-570,-327,57,273,-109
0,2023-03-01T18:49:47.710613,1577226,185,517,1642,-1042,-570,-327,57,273,-109
0,2023-03-01T18:49:47.716141,1577232,187,514,1638,-1046,-571,-324,57,273,-109
0,2023-03-01T18:49:47.722097,1577238,187,514,1638,-1046,-571,-324,57,273,-109
0,2023-03-01T18:49:47.727527,1577243,187,514,1638,-1046,-571,-324,57,273,-109
0,2023-03-01T18:49:47.732354,1577248,187,514,1638,-1046,-571,-324,57,273,-109
0,2023-03-01T18:49:47.738479,1577254,186,514,1648,-1035,-567,-314,57,273,-109
0,2023-03-01T18:49:47.744347,1577260,186,514,1648,-1035,-567,-314,57,273,-109
0,2023-03-01T18:49:47.750201,1577266,186,514,1648,-1035,-567,-314,57,273,-109
0,2023-03-01T18:49:47.755905,1577272,189,516,1643,-1032,-567,-319,48,268,-116
0,2023-03-01T18:49:47.762178,1577278,189,516,1643,-1032,-567,-319,48,268,-116
0,2023-03-01T18:49:47.767824,1577283,189,516,1643,-1032,-567,-319,48,268,-116
0,2023-03-01T18:49:47.772619,1577288,189,516,1643,-1032,-567,-319,48,268,-116
0,2023-03-01T18:49:47.778065,1577294,189,512,1646,-1037,-564,-319,48,268,-116
0,2023-03-01T18:49:47.783807,1577299,189,512,1646,-1037,-564,-319,48,268,-116
0,2023-03-01T18:49:47.789389,1577305,189,512,1646,-1037,-564,-319,48,268,-116
0,2023-03-01T18:49:47.794991,1577311,190,515,1644,-1036,-567,-317,48,268,-116
0,2023-03-01T18:49:47.800913,1577316,190,515,1644,-1036,-567,-317,48,268,-116
0,2023-03-01T18:49:47.806472,1577322,190,515,1644,-1036,-567,-317,48,268,-116
0,2023-03-01T18:49:47.811954,1577327,190,515,1644,-1036,-567,-317,48,268,-116
0,2023-03-01T18:49:47.818020,1577333,188,515,1637,-1027,-572,-327,48,268,-116
0,2023-03-01T18:49:47.822886,1577338,188,515,1637,-1027,-572,-327,48,268,-116
0,2023-03-01T18:49:47.828927,1577345,188,515,1637,-1027,-572,-327,48,268,-116
0,2023-03-01T18:49:47.834712,1577351,188,515,1637,-1027,-572,-327,48,268,-116
0,2023-03-01T18:49:47.839544,1577355,186,513,1637,-1033,-572,-324,48,268,-116
0,2023-03-01T18:49:47.845447,1577361,186,513,1637,-1033,-572,-324,48,268,-116
0,2023-03-01T18:49:47.850332,1577366,186,513,1637,-1033,-572,-324,48,268,-116
0,2023-03-01T18:49:47.855691,1577371,185,513,1641,-1025,-564,-316,48,268,-116
0,2023-03-01T18:49:47.861343,1577377,185,513,1641,-1025,-564,-316,48,268,-116
0,2023-03-01T18:49:47.866583,1577382,185,513,1641,-1025,-564,-316,48,268,-116
0,2023-03-01T18:49:47.871403,1577388,185,513,1641,-1025,-564,-316,48,268,-116
0,2023-03-01T18:49:47.876988,1577393,187,512,1641,-1027,-569,-326,48,268,-116
0,2023-03-01T18:49:47.882583,1577399,187,512,1641,-1027,-569,-326,48,268,-116
0,2023-03-01T18:49:47.887324,1577403,187,512,1641,-1027,-569,-326,48,268,-116
0,2023-03-01T18:49:47.892409,1577408,187,512,1641,-1027,-569,-326,48,268,-116
0,2023-03-01T18:49:47.898015,1577414,185,516,1643,-1033,-572,-325,47,263,-109
0,2023-03-01T18:49:47.903726,1577419,185,516,1643,-1033,-572,-325,47,263,-109
0,2023-03-01T18:49:47.909170,1577425,185,516,1643,-1033,-572,-325,47,263,-109
0,2023-03-01T18:49:47.914267,1577430,185,516,1643,-1033,-572,-325,47,263,-109
0,2023-03-01T18:49:47.918940,1577435,187,512,1644,-1037,-564,-318,47,263,-109
0,2023-03-01T18:49:47.924233,1577440,187,512,1644,-1037,-564,-318,47,263,-109
0,2023-03-01T18:49:47.929278,1577445,187,512,1644,-1037,-564,-318,47,263,-109
0,2023-03-01T18:49:47.934581,1577450,187,512,1644,-1037,-564,-318,47,263,-109
0,2023-03-01T18:49:47.939285,1577455,186,513,1642,-1026,-569,-322,47,263,-109
0,2023-03-01T18:49:47.946442,1577462,186,513,1642,-1026,-569,-322,47,263,-109
0,2023-03-01T18:49:47.951142,1577467,186,513,1642,-1026,-569,-322,47,263,-109
0,2023-03-01T18:49:47.956521,1577473,185,515,1648,-1035,-564,-324,47,263,-109
0,2023-03-01T18:49:47.962659,1577478,185,515,1648,-1035,-564,-324,47,263,-109
0,2023-03-01T18:49:47.968498,1577484,185,515,1648,-1035,-564,-324,47,263,-109
0,2023-03-01T18:49:47.973315,1577489,185,515,1648,-1035,-564,-324,47,263,-109
0,2023-03-01T18:49:47.978216,1577494,187,513,1632,-1031,-569,-317,47,263,-109
0,2023-03-01T18:49:47.983745,1577499,187,513,1632,-1031,-569,-317,47,263,-109
0,2023-03-01T18:49:47.988312,1577504,187,513,1632,-1031,-569,-317,47,263,-109
0,2023-03-01T18:49:47.993181,1577509,187,513,1632,-1031,-569,-317,47,263,-109
0,2023-03-01T18:49:47.998828,1577515,187,513,1640,-1028,-568,-317,47,263,-109
0,2023-03-01T18:49:48.004299,1577520,187,513,1640,-1028,-568,-317,47,263,-109
0,2023-03-01T18:49:48.010006,1577526,187,513,1640,-1028,-568,-317,47,263,-109
0,2023-03-01T18:49:48.015818,1577531,185,516,1647,-1037,-564,-324,58,266,-110
0,2023-03-01T18:49:48.021603,1577537,185,516,1647,-1037,-564,-324,58,266,-110
0,2023-03-01T18:49:48.026719,1577542,185,516,1647,-1037,-564,-324,58,266,-110
0,2023-03-01T18:49:48.031834,1577547,185,516,1647,-1037,-564,-324,58,266,-110
0,2023-03-01T18:49:48.037476,1577553,190,515,1636,-1041,-568,-314,58,266,-110
0,2023-03-01T18:49:48.042156,1577558,190,515,1636,-1041,-568,-314,58,266,-110
0,2023-03-01T18:49:48.047562,1577564,190,515,1636,-1041,-568,-314,58,266,-110
0,2023-03-01T18:49:48.052694,1577568,190,515,1636,-1041,-568,-314,58,266,-110
0,2023-03-01T18:49:48.058701,1577574,188,514,1641,-1043,-575,-320,58,266,-110
0,2023-03-01T18:49:48.064086,1577580,188,514,1641,-1043,-575,-320,58,266,-110
0,2023-03-01T18:49:48.069321,1577584,188,514,1641,-1043,-575,-320,58,266,-110
0,2023-03-01T18:49:48.075323,1577591,188,514,1641,-1043,-575,-320,58,266,-110
0,2023-03-01T18:49:48.080456,1577596,189,516,1640,-1041,-568,-325,58,266,-110
0,2023-03-01T18:49:48.086336,1577603,189,516,1640,-1041,-568,-325,58,266,-110
0,2023-03-01T18:49:48.091233,1577607,189,516,1640,-1041,-568,-325,58,266,-110
0,2023-03-01T18:49:48.096327,1577612,189,516,1642,-1035,-571,-334,58,266,-110
0,2023-03-01T18:49:48.101457,1577617,189,516,1642,-1035,-571,-334,58,266,-110
0,2023-03-01T18:49:48.106322,1577622,189,516,1642,-1035,-571,-334,58,266,-110
0,2023-03-01T18:49:48.111501,1577627,189,516,1642,-1035,-571,-334,58,266,-110
0,2023-03-01T18:49:48.116727,1577632,186,514,1646,-1029,-568,-320,58,266,-110
0,2023-03-01T18:49:48.122236,1577638,186,514,1646,-1029,-568,-320,58,266,-110
0,2023-03-01T18:49:48.127733,1577644,186,514,1646,-1029,-568,-320,58,266,-110
0,2023-03-01T18:49:48.132495,1577649,186,514,1646,-1029,-568,-320,58,266,-110
0,2023-03-01T18:49:48.138160,1577654,183,513,1641,-1036,-561,-318,52,272,-108
0,2023-03-01T18:49:48.143457,1577659,183,513,1641,-1036,-561,-318,52,272,-108
0,2023-03-01T18:49:48.149032,1577665,183,513,1641,-1036,-561,-318,52,272,-108
0,2023-03-01T18:49:48.154812,1577670,183,513,1641,-1036,-561,-318,52,272,-108
0,2023-03-01T18:49:48.159506,1577675,186,514,1644,-1034,-569,-325,52,272,-108
0,2023-03-01T18:49:48.165206,1577681,186,514,1644,-1034,-569,-325,52,272,-108
0,2023-03-01T18:49:48.170554,1577687,186,514,1644,-1034,-569,-325,52,272,-108
0,2023-03-01T18:49:48.176034,1577692,190,512,1638,-1025,-561,-325,52,272,-108
0,2023-03-01T18:49:48.181400,1577697,190,512,1638,-1025,-561,-325,52,272,-108
0,2023-03-01T18:49:48.186286,1577702,190,512,1638,-1025,-561,-325,52,272,-108
0,2023-03-01T18:49:48.191093,1577707,190,512,1638,-1025,-561,-325,52,272,-108
0,2023-03-01T18:49:48.196837,1577712,189,517,1644,-1029,-573,-317,52,272,-108
0,2023-03-01T18:49:48.202710,1577718,189,517,1644,-1029,-573,-317,52,272,-108
0,2023-03-01T18:49:48.207983,1577724,189,517,1644,-1029,-573,-317,52,272,-108
0,2023-03-01T18:49:48.212866,1577729,189,517,1644,-1029,-573,-317,52,272,-108
0,2023-03-01T18:49:48.218239,1577734,188,513,1647,-1025,-571,-320,52,272,-108
0,2023-03-01T18:49:48.223390,1577740,188,513,1647,-1025,-571,-320,52,272,-108
0,2023-03-01T18:49:48.228410,1577744,188,513,1647,-1025,-571,-320,52,272,-108
0,2023-03-01T18:49:48.233158,1577749,188,513,1647,-1025,-571,-320,52,272,-108
0,2023-03-01T18:49:48.238723,1577754,186,510,1638,-1019,-568,-324,52,272,-108
0,2023-03-01T18:49:48.244289,1577760,186,510,1638,-1019,-568,-324,52,272,-108
0,2023-03-01T18:49:48.249372,1577765,186,510,1638,-1019,-568,-324,52,272,-108
0,2023-03-01T18:49:48.255016,1577771,186,510,1638,-1019,-568,-324,52,272,-108
0,2023-03-01T18:49:48.260027,1577776,188,513,1637,-1029,-567,-323,52,272,-108
0,2023-03-01T18:49:48.266389,1577782,188,513,1637,-1029,-567,-323,52,272,-108
0,2023-03-01T18:49:48.271501,1577787,188,513,1637,-1029,-567,-323,52,272,-108
0,2023-03-01T18:49:48.277247,1577793,188,512,1645,-1041,-572,-319,57,269,-113
0,2023-03-01T18:49:48.282911,1577799,188,512,1645,-1041,-572,-319,57,269,-113
0,2023-03-01T18:49:48.288904,1577804,188,512,1645,-1041,-572,-319,57,269,-113
0,2023-03-01T18:49:48.294627,1577810,188,512,1645,-1041,-572,-319,57,269,-113
0,2023-03-01T18:49:48.299881,1577816,188,517,1644,-1035,-572,-313,57,269,-113
0,2023-03-01T18:49:48.306727,1577823,188,517,1644,-1035,-572,-313,57,269,-113
0,2023-03-01T18:49:48.312002,1577828,188,517,1644,-1035,-572,-313,57,269,-113
0,2023-03-01T18:49:48.317697,1577833,185,513,1649,-1022,-567,-324,57,269,-113
0,2023-03-01T18:49:48.323406,1577839,185,513,1649,-1022,-567,-324,57,269,-113
0,2023-03-01T18:49:48.328587,1577844,185,513,1649,-1022,-567,-324,57,269,-113
0,2023-03-01T18:49:48.333963,1577849,185,513,1649,-1022,-567,-324,57,269,-113
0,2023-03-01T18:49:48.339982,1577856,190,510,1645,-1022,-563,-318,57,269,-113
0,2023-03-01T18:49:48.345835,1577862,190,510,1645,-1022,-563,-318,57,269,-113
0,2023-03-01T18:49:48.350938,1577867,190,510,1645,-1022,-563,-318,57,269,-113
0,2023-03-01T18:49:48.356886,1577873,188,514,1638,-1034,-568,-321,57,269,-113
0,2023-03-01T18:49:48.362682,1577878,188,514,1638,-1034,-568,-321,57,269,-113
0,2023-03-01T18:49:48.368423,1577884,188,514,1638,-1034,-568,-321,57,269,-113
0,2023-03-01T18:49:48.373320,1577889,188,514,1638,-1034,-568,-321,57,269,-113
0,2023-03-01T18:49:48.379046,1577894,187,513,1645,-1037,-564,-332,57,269,-113
0,2023-03-01T18:49:48.384905,1577901,187,513,1645,-1037,-564,-332,57,269,-113
0,2023-03-01T18:49:48.390674,1577907,187,513,1645,-1037,-564,-332,57,269,-113
0,2023-03-01T18:49:48.396156,1577912,188,513,1639,-1028,-569,-328,54,274,-104
0,2023-03-01T18:49:48.401672,1577917,188,513,1639,-1028,-569,-328,54,274,-104
0,2023-03-01T18:49:48.407606,1577923,188,513,1639,-1028,-569,-328,54,274,-104
0,2023-03-01T18:49:48.412643,1577928,188,513,1639,-1028,-569,-328,54,274,-104
0,2023-03-01T18:49:48.418321,1577934,191,512,1645,-1040,-576,-328,54,274,-104
0,2023-03-01T18:49:48.424042,1577939,191,512,1645,-1040,-576,-328,54,274,-104
0,2023-03-01T18:49:48.429612,1577946,191,512,1645,-1040,-576,-328,54,274,-104
0,2023-03-01T18:49:48.435346,1577951,191,512,1645,-1040,-576,-328,54,274,-104
0,2023-03-01T18:49:48.440684,1577956,188,513,1646,-1049,-571,-323,54,274,-104
0,2023-03-01T18:49:48.446659,1577962,188,513,1646,-1049,-571,-323,54,274,-104
0,2023-03-01T18:49:48.451878,1577968,188,513,1646,-1049,-571,-323,54,274,-104
0,2023-03-01T18:49:48.457328,1577973,186,514,1647,-1037,-572,-322,54,274,-104
0,2023-03-01T18:49:48.463296,1577978,186,514,1647,-1037,-572,-322,54,274,-104
0,2023-03-01T18:49:48.468706,1577985,186,514,1647,-1037,-572,-322,54,274,-104
0,2023-03-01T18:49:48.473713,1577990,186,514,1647,-1037,-572,-322,54,274,-104
0,2023-03-01T18:49:48.479110,1577995,185,513,1645,-1033,-574,-317,54,274,-104
0,2023-03-01T18:49:48.484580,1578001,185,513,1645,-1033,-574,-317,54,274,-104
0,2023-03-01T18:49:48.490128,1578006,185,513,1645,-1033,-574,-317,54,274,-104
0,2023-03-01T18:49:48.495702,1578011,185,513,1645,-1033,-574,-317,54,274,-104
0,2023-03-01T18:49:48.500708,1578016,186,510,1642,-1032,-565,-315,54,274,-104
0,2023-03-01T18:49:48.506347,1578022,186,510,1642,-1032,-565,-315,54,274,-104
0,2023-03-01T18:49:48.511713,1578028,186,510,1642,-1032,-565,-315,54,274,-104
0,2023-03-01T18:49:48.517720,1578034,189,515,1634,-1031,-566,-325,54,274,-104
0,2023-03-01T18:49:48.523658,1578040,189,515,1634,-1031,-566,-325,54,274,-104
0,2023-03-01T18:49:48.528780,1578044,189,515,1634,-1031,-566,-325,54,274,-104
0,2023-03-01T18:49:48.534256,1578050,189,515,1634,-1031,-566,-325,54,274,-104
0,2023-03-01T18:49:48.540384,1578055,190,513,1637,-1034,-573,-319,54,260,-108
0,2023-03-01T18:49:48.546417,1578062,190,513,1637,-1034,-573,-319,54,260,-108
0,2023-03-01T18:49:48.552118,1578067,190,513,1637,-1034,-573,-319,54,260,-108
0,2023-03-01T18:49:48.557917,1578074,187,513,1646,-1047,-572,-318,54,260,-108
0,2023-03-01T18:49:48.563932,1578080,187,513,1646,-1047,-572,-318,54,260,-108
0,2023-03-01T18:49:48.569487,1578085,187,513,1646,-1047,-572,-318,54,260,-108
0,2023-03-01T18:49:48.574895,1578091,187,513,1646,-1047,-572,-318,54,260,-108
0,2023-03-01T18:49:48.580254,1578095,188,515,1640,-1044,-569,-327,54,260,-108
0,2023-03-01T18:49:48.586713,1578102,188,515,1640,-1044,-569,-327,54,260,-108
0,2023-03-01T18:49:48.591834,1578107,188,515,1640,-1044,-569,-327,54,260,-108
0,2023-03-01T18:49:48.597607,1578114,188,516,1633,-1040,-568,-320,54,260,-108
0,2023-03-01T18:49:48.603259,1578119,188,516,1633,-1040,-568,-320,54,260,-108
0,2023-03-01T18:49:48.608727,1578125,188,516,1633,-1040,-568,-320,54,260,-108
0,2023-03-01T18:49:48.614048,1578130,188,516,1633,-1040,-568,-320,54,260,-108
0,2023-03-01T18:49:48.619926,1578135,187,512,1641,-1037,-568,-321,54,260,-108
0,2023-03-01T18:49:48.626101,1578141,187,512,1641,-1037,-568,-321,54,260,-108
0,2023-03-01T18:49:48.630849,1578146,187,512,1641,-1037,-568,-321,54,260,-108
0,2023-03-01T18:49:48.636521,1578152,186,512,1642,-1027,-568,-329,54,260,-108
0,2023-03-01T18:49:48.642064,1578158,186,512,1642,-1027,-568,-329,54,260,-108
0,2023-03-01T18:49:48.647309,1578163,186,512,1642,-1027,-568,-329,54,260,-108
0,2023-03-01T18:49:48.652763,1578168,186,512,1642,-1027,-568,-329,54,260,-108
0,2023-03-01T18:49:48.658525,1578174,189,514,1645,-1028,-569,-327,50,270,-116
0,2023-03-01T18:49:48.664955,1578180,189,514,1645,-1028,-569,-327,50,270,-116
0,2023-03-01T18:49:48.671722,1578186,189,514,1645,-1028,-569,-327,50,270,-116
0,2023-03-01T18:49:48.677802,1578192,190,513,1644,-1026,-570,-321,50,270,-116
0,2023-03-01T18:49:48.684970,1578201,190,513,1644,-1026,-570,-321,50,270,-116
0,2023-03-01T18:49:48.692316,1578206,190,513,1644,-1026,-570,-321,50,270,-116
0,2023-03-01T18:49:48.700009,1578216,186,513,1637,-1038,-575,-323,50,270,-116
0,2023-03-01T18:49:48.706965,1578222,186,513,1637,-1038,-575,-323,50,270,-116
0,2023-03-01T18:49:48.714285,1578229,186,513,1637,-1038,-575,-323,50,270,-116
0,2023-03-01T18:49:48.720828,1578236,191,514,1644,-1041,-570,-325,50,270,-116
0,2023-03-01T18:49:48.727318,1578243,191,514,1644,-1041,-570,-325,50,270,-116
0,2023-03-01T18:49:48.732632,1578249,191,514,1644,-1041,-570,-325,50,270,-116
0,2023-03-01T18:49:48.738132,1578254,188,513,1642,-1035,-565,-324,50,270,-116
0,2023-03-01T18:49:48.743859,1578260,188,513,1642,-1035,-565,-324,50,270,-116
0,2023-03-01T18:49:48.748771,1578264,188,513,1642,-1035,-565,-324,50,270,-116
0,2023-03-01T18:49:48.753509,1578269,188,513,1642,-1035,-565,-324,50,270,-116
0,2023-03-01T18:49:48.759689,1578275,188,513,1638,-1037,-571,-324,50,270,-116
0,2023-03-01T18:49:48.766220,1578281,188,513,1638,-1037,-571,-324,50,270,-116
0,2023-03-01T18:49:48.771606,1578288,188,513,1638,-1037,-571,-324,50,270,-116
0,2023-03-01T18:49:48.777454,1578293,190,515,1643,-1034,-565,-326,50,270,-116
0,2023-03-01T18:49:48.783438,1578299,190,515,1643,-1034,-565,-326,50,270,-116
0,2023-03-01T18:49:48.789379,1578305,190,515,1643,-1034,-565,-326,50,270,-116
0,2023-03-01T18:49:48.794908,1578310,190,515,1643,-1034,-565,-326,50,270,-116
0,2023-03-01T18:49:48.799677,1578315,186,514,1646,-1039,-570,-317,51,273,-113
0,2023-03-01T18:49:48.805288,1578321,186,514,1646,-1039,-570,-317,51,273,-113
0,2023-03-01T18:49:48.810119,1578326,186,514,1646,-1039,-570,-317,51,273,-113
0,2023-03-01T18:49:48.815702,1578332,186,514,1646,-1039,-570,-317,51,273,-113
0,2023-03-01T18:49:48.820507,1578337,186,517,1646,-1033,-570,-319,51,273,-113
0,2023-03-01T18:49:48.826883,1578343,186,517,1646,-1033,-570,-319,51,273,-113
0,2023-03-01T18:49:48.832354,1578348,186,517,1646,-1033,-570,-319,51,273,-113
0,2023-03-01T18:49:48.837582,1578353,186,512,1642,-1031,-564,-324,51,273,-113
0,2023-03-01T18:49:48.844153,1578359,186,512,1642,-1031,-564,-324,51,273,-113
0,2023-03-01T18:49:48.850089,1578365,186,512,1642,-1031,-564,-324,51,273,-113
0,2023-03-01T18:49:48.855562,1578372,186,512,1642,-1031,-564,-324,51,273,-113
0,2023-03-01T18:49:48.860724,1578377,187,514,1634,-1039,-568,-322,51,273,-113
0,2023-03-01T18:49:48.866963,1578383,187,514,1634,-1039,-568,-322,51,273,-113
0,2023-03-01T18:49:48.872050,1578388,187,514,1634,-1039,-568,-322,51,273,-113
0,2023-03-01T18:49:48.877827,1578393,187,515,1636,-1031,-564,-322,51,273,-113
0,2023-03-01T18:49:48.883884,1578399,187,515,1636,-1031,-564,-322,51,273,-113
0,2023-03-01T18:49:48.888565,1578404,187,515,1636,-1031,-564,-322,51,273,-113
0,2023-03-01T18:49:48.893278,1578409,187,515,1636,-1031,-564,-322,51,273,-113
0,2023-03-01T18:49:48.898559,1578415,188,514,1647,-1042,-572,-325,51,273,-113
0,2023-03-01T18:49:48.904216,1578420,188,514,1647,-1042,-572,-325,51,273,-113
0,2023-03-01T18:49:48.909916,1578426,188,514,1647,-1042,-572,-325,51,273,-113
0,2023-03-01T18:49:48.915291,1578431,188,514,1647,-1042,-572,-325,51,273,-113
0,2023-03-01T18:49:48.920520,1578436,187,512,1648,-1030,-572,-321,53,263,-115
0,2023-03-01T18:49:48.926333,1578442,187,512,1648,-1030,-572,-321,53,263,-115
0,2023-03-01T18:49:48.931473,1578447,187,512,1648,-1030,-572,-321,53,263,-115
0,2023-03-01T18:49:48.937240,1578452,189,512,1644,-1036,-568,-324,53,263,-115
0,2023-03-01T18:49:48.943059,1578459,189,512,1644,-1036,-568,-324,53,263,-115
0,2023-03-01T18:49:48.948820,1578465,189,512,1644,-1036,-568,-324,53,263,-115
0,2023-03-01T18:49:48.954345,1578470,189,512,1644,-1036,-568,-324,53,263,-115
0,2023-03-01T18:49:48.959455,1578475,184,511,1643,-1041,-564,-320,53,263,-115
0,2023-03-01T18:49:48.965370,1578481,184,511,1643,-1041,-564,-320,53,263,-115
0,2023-03-01T18:49:48.970282,1578486,184,511,1643,-1041,-564,-320,53,263,-115
0,2023-03-01T18:49:48.975979,1578491,184,511,1643,-1041,-564,-320,53,263,-115
0,2023-03-01T18:49:48.980857,1578497,184,511,1643,-1034,-567,-320,53,263,-115
0,2023-03-01T18:49:48.987206,1578503,184,511,1643,-1034,-567,-320,53,263,-115
0,2023-03-01T18:49:48.992200,1578508,184,511,1643,-1034,-567,-320,53,263,-115
0,2023-03-01T18:49:48.997972,1578514,188,514,1642,-1036,-563,-322,53,263,-115
0,2023-03-01T18:49:49.003244,1578519,188,514,1642,-1036,-563,-322,53,263,-115
0,2023-03-01T18:49:49.008344,1578524,188,514,1642,-1036,-563,-322,53,263,-115
0,2023-03-01T18:49:49.013279,1578529,188,514,1642,-1036,-563,-322,53,263,-115
0,2023-03-01T18:49:49.019304,1578534,188,514,1642,-1038,-575,-320,53,263,-115
0,2023-03-01T18:49:49.026534,1578543,188,514,1642,-1038,-575,-320,53,263,-115
0,2023-03-01T18:49:49.031366,1578547,188,514,1642,-1038,-575,-320,53,263,-115
0,2023-03-01T18:49:49.036343,1578552,188,514,1642,-1038,-575,-320,53,263,-115
0,2023-03-01T18:49:49.041733,1578558,188,512,1642,-1033,-570,-320,59,267,-119
0,2023-03-01T18:49:49.047763,1578564,188,512,1642,-1033,-570,-320,59,267,-119
0,2023-03-01T18:49:49.053956,1578569,188,512,1642,-1033,-570,-320,59,267,-119
0,2023-03-01T18:49:49.060031,1578575,189,511,1644,-1028,-571,-314,59,267,-119
0,2023-03-01T18:49:49.066067,1578582,189,511,1644,-1028,-571,-314,59,267,-119
0,2023-03-01T18:49:49.071274,1578587,189,511,1644,-1028,-571,-314,59,267,-119
0,2023-03-01T18:49:49.076948,1578593,185,511,1643,-1032,-571,-325,59,267,-119
0,2023-03-01T18:49:49.082372,1578598,185,511,1643,-1032,-571,-325,59,267,-119
0,2023-03-01T18:49:49.087979,1578604,185,511,1643,-1032,-571,-325,59,267,-119
0,2023-03-01T18:49:49.092891,1578608,185,511,1643,-1032,-571,-325,59,267,-119
0,2023-03-01T18:49:49.098560,1578614,187,514,1640,-1030,-571,-317,59,267,-119
0,2023-03-01T18:49:49.103973,1578619,187,514,1640,-1030,-571,-317,59,267,-119
0,2023-03-01T18:49:49.108851,1578625,187,514,1640,-1030,-571,-317,59,267,-119
0,2023-03-01T18:49:49.114061,1578630,187,514,1640,-1030,-571,-317,59,267,-119
0,2023-03-01T18:49:49.120164,1578636,187,512,1635,-1036,-570,-321,59,267,-119
0,2023-03-01T18:49:49.125978,1578642,187,512,1635,-1036,-570,-321,59,267,-119
0,2023-03-01T18:49:49.131226,1578647,187,512,1635,-1036,-570,-321,59,267,-119
0,2023-03-01T18:49:49.136761,1578652,188,512,1639,-1034,-577,-322,59,267,-119
0,2023-03-01T18:49:49.142552,1578658,188,512,1639,-1034,-577,-322,59,267,-119
0,2023-03-01T18:49:49.148982,1578664,188,512,1639,-1034,-577,-322,59,267,-119
0,2023-03-01T18:49:49.153977,1578670,188,512,1639,-1034,-577,-322,59,267,-119
0,2023-03-01T18:49:49.159485,1578676,186,514,1638,-1037,-568,-325,59,267,-119
0,2023-03-01T18:49:49.165107,1578681,186,514,1638,-1037,-568,-325,59,267,-119
0,2023-03-01T18:49:49.169991,1578686,186,514,1638,-1037,-568,-325,59,267,-119
0,2023-03-01T18:49:49.175556,1578691,186,514,1638,-1037,-568,-325,59,267,-119
0,2023-03-01T18:49:49.180988,1578696,185,515,1640,-1038,-566,-327,52,268,-118
0,2023-03-01T18:49:49.187283,1578703,185,515,1640,-1038,-566,-327,52,268,-118
0,2023-03-01T18:49:49.191937,1578707,185,515,1640,-1038,-566,-327,52,268,-118
0,2023-03-01T18:49:49.197441,1578714,191,515,1644,-1033,-568,-322,52,268,-118
0,2023-03-01T18:49:49.202632,1578719,191,515,1644,-1033,-568,-322,52,268,-118
0,2023-03-01T18:49:49.207366,1578723,191,515,1644,-1033,-568,-322,52,268,-118
0,2023-03-01T18:49:49.212169,1578728,191,515,1644,-1033,-568,-322,52,268,-118
0,2023-03-01T18:49:49.218263,1578734,186,510,1646,-1033,-567,-329,52,268,-118
0,2023-03-01T18:49:49.223827,1578739,186,510,1646,-1033,-567,-329,52,268,-118
0,2023-03-01T18:49:49.229516,1578745,186,510,1646,-1033,-567,-329,52,268,-118
0,2023-03-01T18:49:49.235255,1578750,186,510,1646,-1033,-567,-329,52,268,-118
0,2023-03-01T18:49:49.240806,1578757,188,515,1636,-1034,-569,-322,52,268,-118
0,2023-03-01T18:49:49.247017,1578763,188,515,1636,-1034,-569,-322,52,268,-118
0,2023-03-01T18:49:49.251925,1578768,188,515,1636,-1034,-569,-322,52,268,-118
0,2023-03-01T18:49:49.257595,1578773,187,515,1636,-1037,-573,-317,52,268,-118
0,2023-03-01T18:49:49.263329,1578779,187,515,1636,-1037,-573,-317,52,268,-118
0,2023-03-01T18:49:49.269772,1578785,187,515,1636,-1037,-573,-317,52,268,-118
0,2023-03-01T18:49:49.276067,1578791,187,515,1636,-1037,-573,-317,52,268,-118
0,2023-03-01T18:49:49.281058,1578797,187,512,1643,-1043,-571,-326,52,268,-118
0,2023-03-01T18:49:49.287215,1578803,187,512,1643,-1043,-571,-326,52,268,-118
0,2023-03-01T18:49:49.292104,1578808,187,512,1643,-1043,-571,-326,52,268,-118
0,2023-03-01T18:49:49.297156,1578813,184,514,1644,-1041,-573,-333,58,266,-120
0,2023-03-01T18:49:49.302615,1578818,184,514,1644,-1041,-573,-333,58,266,-120
0,2023-03-01T18:49:49.307530,1578823,184,514,1644,-1041,-573,-333,58,266,-120
0,2023-03-01T18:49:49.312506,1578828,184,514,1644,-1041,-573,-333,58,266,-120
0,2023-03-01T18:49:49.317708,1578833,188,512,1647,-1037,-567,-319,58,266,-120
0,2023-03-01T18:49:49.323372,1578839,188,512,1647,-1037,-567,-319,58,266,-120
0,2023-03-01T18:49:49.329018,1578845,188,512,1647,-1037,-567,-319,58,266,-120
0,2023-03-01T18:49:49.334029,1578850,188,512,1647,-1037,-567,-319,58,266,-120
0,2023-03-01T18:49:49.339802,1578856,185,514,1646,-1039,-568,-329,58,266,-120
0,2023-03-01T18:49:49.345121,1578861,185,514,1646,-1039,-568,-329,58,266,-120
0,2023-03-01T18:49:49.350084,1578866,185,514,1646,-1039,-568,-329,58,266,-120
0,2023-03-01T18:49:49.355385,1578871,185,514,1646,-1039,-568,-329,58,266,-120
0,2023-03-01T18:49:49.360295,1578876,187,515,1640,-1034,-563,-324,58,266,-120
0,2023-03-01T18:49:49.366483,1578883,187,515,1640,-1034,-563,-324,58,266,-120
0,2023-03-01T18:49:49.371510,1578887,187,515,1640,-1034,-563,-324,58,266,-120
0,2023-03-01T18:49:49.377090,1578893,186,514,1642,-1034,-569,-327,58,266,-120
0,2023-03-01T18:49:49.382390,1578898,186,514,1642,-1034,-569,-327,58,266,-120
0,2023-03-01T18:49:49.388465,1578904,186,514,1642,-1034,-569,-327,58,266,-120
0,2023-03-01T18:49:49.393482,1578909,186,514,1642,-1034,-569,-327,58,266,-120
0,2023-03-01T18:49:49.399487,1578915,186,514,1639,-1034,-566,-328,58,266,-120
0,2023-03-01T18:49:49.404888,1578920,186,514,1639,-1034,-566,-328,58,266,-120
0,2023-03-01T18:49:49.409595,1578926,186,514,1639,-1034,-566,-328,58,266,-120
0,2023-03-01T18:49:49.415866,1578932,186,514,1639,-1034,-566,-328,58,266,-120
0,2023-03-01T18:49:49.420885,1578937,189,513,1637,-1040,-575,-326,58,266,-120
0,2023-03-01T18:49:49.427191,1578942,189,513,1637,-1040,-575,-326,58,266,-120
0,2023-03-01T18:49:49.432451,1578948,189,513,1637,-1040,-575,-326,58,266,-120
0,2023-03-01T18:49:49.437993,1578954,188,516,1648,-1037,-568,-321,54,278,-126
0,2023-03-01T18:49:49.443771,1578959,188,516,1648,-1037,-568,-321,54,278,-126
0,2023-03-01T18:49:49.448765,1578964,188,516,1648,-1037,-568,-321,54,278,-126
0,2023-03-01T18:49:49.453555,1578970,188,516,1648,-1037,-568,-321,54,278,-126
0,2023-03-01T18:49:49.458889,1578975,186,511,1640,-1041,-566,-324,54,278,-126
0,2023-03-01T18:49:49.464258,1578980,186,511,1640,-1041,-566,-324,54,278,-126
0,2023-03-01T18:49:49.469488,1578985,186,511,1640,-1041,-566,-324,54,278,-126
0,2023-03-01T18:49:49.474775,1578991,186,511,1640,-1041,-566,-324,54,278,-126
0,2023-03-01T18:49:49.480081,1578996,186,512,1640,-1030,-567,-320,54,278,-126
0,2023-03-01T18:49:49.486407,1579001,186,512,1640,-1030,-567,-320,54,278,-126
0,2023-03-01T18:49:49.491367,1579008,186,512,1640,-1030,-567,-320,54,278,-126
0,2023-03-01T18:49:49.497040,1579013,188,510,1641,-1025,-566,-327,54,278,-126
0,2023-03-01T18:49:49.502750,1579019,188,510,1641,-1025,-566,-327,54,278,-126
0,2023-03-01T18:49:49.507410,1579023,188,510,1641,-1025,-566,-327,54,278,-126
0,2023-03-01T18:49:49.512369,1579028,188,510,1641,-1025,-566,-327,54,278,-126
0,2023-03-01T18:49:49.518217,1579034,185,513,1646,-1029,-572,-326,54,278,-126
0,2023-03-01T18:49:49.523568,1579039,185,513,1646,-1029,-572,-326,54,278,-126
0,2023-03-01T18:49:49.528305,1579044,185,513,1646,-1029,-572,-326,54,278,-126
0,2023-03-01T18:49:49.533552,1579049,185,513,1646,-1029,-572,-326,54,278,-126
0,2023-03-01T18:49:49.538688,1579055,190,514,1640,-1036,-575,-321,54,278,-126
0,2023-03-01T18:49:49.544509,1579060,190,514,1640,-1036,-575,-321,54,278,-126
0,2023-03-01T18:49:49.550579,1579066,190,514,1640,-1036,-575,-321,54,278,-126
0,2023-03-01T18:49:49.556372,1579072,190,514,1640,-1036,-575,-321,54,278,-126
0,2023-03-01T18:49:49.561591,1579077,190,514,1640,-1036,-575,-321,54,270,-116
0,2023-03-01T18:49:49.567909,1579083,190,514,1640,-1036,-575,-321,54,270,-116
0,2023-03-01T18:49:49.572969,1579088,190,514,1640,-1036,-575,-321,54,270,-116
0,2023-03-01T18:49:49.579579,1579095,186,511,1644,-1036,-572,-323,54,270,-116
0,2023-03-01T18:49:49.586096,1579102,186,511,1644,-1036,-572,-323,54,270,-116
0,2023-03-01T18:49:49.591115,1579107,186,511,1644,-1036,-572,-323,54,270,-116
0,2023-03-01T18:49:49.597184,1579113,186,511,1644,-1036,-572,-323,54,270,-116
0,2023-03-01T18:49:49.602367,1579118,186,514,1641,-1030,-572,-316,54,270,-116
0,2023-03-01T18:49:49.608954,1579124,186,514,1641,-1030,-572,-316,54,270,-116
0,2023-03-01T18:49:49.614448,1579130,186,514,1641,-1030,-572,-316,54,270,-116
0,2023-03-01T18:49:49.619589,1579136,187,512,1643,-1028,-569,-328,54,270,-116
0,2023-03-01T18:49:49.626768,1579142,187,512,1643,-1028,-569,-328,54,270,-116
0,2023-03-01T18:49:49.632821,1579148,187,512,1643,-1028,-569,-328,54,270,-116
0,2023-03-01T18:49:49.638578,1579154,413,508,1451,-1004,111,-249,54,270,-116
0,2023-03-01T18:49:49.644282,1579160,413,508,1451,-1004,111,-249,54,270,-116
0,2023-03-01T18:49:49.649859,1579165,413,508,1451,-1004,111,-249,54,270,-116
0,2023-03-01T18:49:49.655088,1579171,413,508,1451,-1004,111,-249,54,270,-116
0,2023-03-01T18:49:49.659842,1579175,212,511,1155,-1064,-70,153,54,270,-116
0,2023-03-01T18:49:49.665997,1579182,212,511,1155,-1064,-70,153,54,270,-116
0,2023-03-01T18:49:49.671149,1579187,212,511,1155,-1064,-70,153,54,270,-116
0,2023-03-01T18:49:49.676927,1579193,212,511,1155,-1064,-70,153,54,270,-116
0,2023-03-01T18:49:49.682569,1579198,64,624,2213,-1160,-243,-707,54,270,-116
0,2023-03-01T18:49:49.688219,1579204,64,624,2213,-1160,-243,-707,54,270,-116
0,2023-03-01T18:49:49.693119,1579209,64,624,2213,-1160,-243,-707,54,270,-116
0,2023-03-01T18:49:49.698542,1579214,4,74,1522,-1430,-1046,-521,58,268,-106
0,2023-03-01T18:49:49.704119,1579220,4,74,1522,-1430,-1046,-521,58,268,-106
0,2023-03-01T18:49:49.709444,1579226,4,74,1522,-1430,-1046,-521,58,268,-106
0,2023-03-01T18:49:49.715175,1579231,4,74,1522,-1430,-1046,-521,58,268,-106
0,2023-03-01T18:49:49.720626,1579236,224,354,1508,-815,-1201,-392,58,268,-106
0,2023-03-01T18:49:49.726605,1579242,224,354,1508,-815,-1201,-392,58,268,-106
0,2023-03-01T18:49:49.731528,1579247,224,354,1508,-815,-1201,-392,58,268,-106
0,2023-03-01T18:49:49.737163,1579253,224,354,1508,-815,-1201,-392,58,268,-106
0,2023-03-01T18:49:49.742617,1579258,140,497,1835,-268,-882,-20,58,268,-106
0,2023-03-01T18:49:49.747507,1579264,140,497,1835,-268,-882,-20,58,268,-106
0,2023-03-01T18:49:49.752328,1579269,140,497,1835,-268,-882,-20,58,268,-106
0,2023-03-01T18:49:49.757777,1579274,349,767,1428,-419,-884,-64,58,268,-106
0,2023-03-01T18:49:49.764482,1579280,349,767,1428,-419,-884,-64,58,268,-106
0,2023-03-01T18:49:49.769671,1579285,349,767,1428,-419,-884,-64,58,268,-106
0,2023-03-01T18:49:49.775692,1579291,349,767,1428,-419,-884,-64,58,268,-106
0,2023-03-01T18:49:49.780969,1579296,262,750,1615,-872,-477,95,58,268,-106
0,2023-03-01T18:49:49.787526,1579303,262,750,1615,-872,-477,95,58,268,-106
0,2023-03-01T18:49:49.793111,1579309,262,750,1615,-872,-477,95,58,268,-106
0,2023-03-01T18:49:49.798990,1579315,166,634,1733,-1318,-331,-321,58,268,-106
0,2023-03-01T18:49:49.804663,1579321,166,634,1733,-1318,-331,-321,58,268,-106
0,2023-03-01T18:49:49.809835,1579326,166,634,1733,-1318,-331,-321,58,268,-106
0,2023-03-01T18:49:49.815766,1579331,166,634,1733,-1318,-331,-321,58,268,-106
0,2023-03-01T18:49:49.821144,1579336,167,454,1560,-1642,-442,-532,59,269,-119
0,2023-03-01T18:49:49.827181,1579343,167,454,1560,-1642,-442,-532,59,269,-119
0,2023-03-01T18:49:49.832020,1579347,167,454,1560,-1642,-442,-532,59,269,-119
0,2023-03-01T18:49:49.837298,1579354,167,454,1560,-1642,-442,-532,59,269,-119
0,2023-03-01T18:49:49.842463,1579359,112,300,1684,-1445,-508,-481,59,269,-119
0,2023-03-01T18:49:49.847963,1579364,112,300,1684,-1445,-508,-481,59,269,-119
0,2023-03-01T18:49:49.852997,1579369,112,300,1684,-1445,-508,-481,59,269,-119
0,2023-03-01T18:49:49.858606,1579374,132,343,1738,-1038,-601,-528,59,269,-119
0,2023-03-01T18:49:49.864129,1579380,132,343,1738,-1038,-601,-528,59,269,-119
0,2023-03-01T18:49:49.869340,1579385,132,343,1738,-1038,-601,-528,59,269,-119
0,2023-03-01T18:49:49.874163,1579389,132,343,1738,-1038,-601,-528,59,269,-119
0,2023-03-01T18:49:49.878996,1579395,183,440,1580,-648,-754,-221,59,269,-119
0,2023-03-01T18:49:49.885300,1579401,183,440,1580,-648,-754,-221,59,269,-119
0,2023-03-01T18:49:49.890231,1579406,183,440,1580,-648,-754,-221,59,269,-119
0,2023-03-01T18:49:49.895790,1579412,183,440,1580,-648,-754,-221,59,269,-119
0,2023-03-01T18:49:49.901583,1579416,257,661,1638,-573,-687,-251,59,269,-119
0,2023-03-01T18:49:49.908732,1579424,257,661,1638,-573,-687,-251,59,269,-119
0,2023-03-01T18:49:49.914569,1579430,257,661,1638,-573,-687,-251,59,269,-119
0,2023-03-01T18:49:49.920671,1579437,229,678,1647,-823,-574,-200,59,269,-119
0,2023-03-01T18:49:49.926953,1579442,229,678,1647,-823,-574,-200,59,269,-119
0,2023-03-01T18:49:49.932946,1579448,229,678,1647,-823,-574,-200,59,269,-119
0,2023-03-01T18:49:49.939130,1579455,223,634,1584,-1156,-512,-316,60,268,-112
0,2023-03-01T18:49:49.945065,1579461,223,634,1584,-1156,-512,-316,60,268,-112
0,2023-03-01T18:49:49.950631,1579466,223,634,1584,-1156,-512,-316,60,268,-112
0,2023-03-01T18:49:49.956104,1579472,223,634,1584,-1156,-512,-316,60,268,-112
0,2023-03-01T18:49:49.961463,1579478,172,515,1652,-1388,-423,-421,60,268,-112
0,2023-03-01T18:49:49.967326,1579484,172,515,1652,-1388,-423,-421,60,268,-112
0,2023-03-01T18:49:49.972320,1579488,172,515,1652,-1388,-423,-421,60,268,-112
0,2023-03-01T18:49:49.977847,1579494,124,372,1675,-1344,-500,-360,60,268,-112
0,2023-03-01T18:49:49.983354,1579499,124,372,1675,-1344,-500,-360,60,268,-112
0,2023-03-01T18:49:49.988259,1579504,124,372,1675,-1344,-500,-360,60,268,-112
0,2023-03-01T18:49:49.993342,1579509,124,372,1675,-1344,-500,-360,60,268,-112
0,2023-03-01T18:49:49.998965,1579514,161,386,1641,-1109,-602,-373,60,268,-112
0,2023-03-01T18:49:50.004306,1579521,161,386,1641,-1109,-602,-373,60,268,-112
0,2023-03-01T18:49:50.009245,1579526,161,386,1641,-1109,-602,-373,60,268,-112
0,2023-03-01T18:49:50.014742,1579531,161,386,1641,-1109,-602,-373,60,268,-112
0,2023-03-01T18:49:50.019866,1579536,174,461,1653,-793,-653,-262,60,268,-112
0,2023-03-01T18:49:50.025407,1579541,174,461,1653,-793,-653,-262,60,268,-112
0,2023-03-01T18:49:50.030220,1579546,174,461,1653,-793,-653,-262,60,268,-112
0,2023-03-01T18:49:50.035585,1579551,174,461,1653,-793,-653,-262,60,268,-112
0,2023-03-01T18:49:50.040802,1579556,213,579,1648,-721,-667,-253,60,268,-112
0,2023-03-01T18:49:50.047341,1579563,213,579,1648,-721,-667,-253,60,268,-112
0,2023-03-01T18:49:50.052785,1579569,213,579,1648,-721,-667,-253,60,268,-112
0,2023-03-01T18:49:50.058589,1579575,238,645,1602,-858,-607,-280,60,268,-112
0,2023-03-01T18:49:50.063958,1579580,238,645,1602,-858,-607,-280,60,268,-112
0,2023-03-01T18:49:50.068713,1579585,238,645,1602,-858,-607,-280,60,268,-112
0,2023-03-01T18:49:50.073978,1579589,238,645,1602,-858,-607,-280,60,268,-112
0,2023-03-01T18:49:50.080085,1579595,211,609,1628,-1105,-522,-334,50,268,-116
0,2023-03-01T18:49:50.085363,1579601,211,609,1628,-1105,-522,-334,50,268,-116
0,2023-03-01T18:49:50.090588,1579607,211,609,1628,-1105,-522,-334,50,268,-116
0,2023-03-01T18:49:50.096625,1579613,211,609,1628,-1105,-522,-334,50,268,-116
0,2023-03-01T18:49:50.102273,1579618,171,517,1657,-1281,-472,-370,50,268,-116
0,2023-03-01T18:49:50.108691,1579624,171,517,1657,-1281,-472,-370,50,268,-116
0,2023-03-01T18:49:50.114059,1579629,171,517,1657,-1281,-472,-370,50,268,-116
0,2023-03-01T18:49:50.120373,1579635,152,425,1639,-1271,-513,-367,50,268,-116
0,2023-03-01T18:49:50.126350,1579642,152,425,1639,-1271,-513,-367,50,268,-116
0,2023-03-01T18:49:50.131384,1579648,152,425,1639,-1271,-513,-367,50,268,-116
0,2023-03-01T18:49:50.136990,1579653,152,425,1639,-1271,-513,-367,50,268,-116
0,2023-03-01T18:49:50.141756,1579658,157,413,1651,-1089,-581,-339,50,268,-116
0,2023-03-01T18:49:50.148172,1579664,157,413,1651,-1089,-581,-339,50,268,-116
0,2023-03-01T18:49:50.153800,1579669,157,413,1651,-1089,-581,-339,50,268,-116
0,2023-03-01T18:49:50.160240,1579676,180,477,1660,-862,-630,-294,50,268,-116
0,2023-03-01T18:49:50.165777,1579681,180,477,1660,-862,-630,-294,50,268,-116
0,2023-03-01T18:49:50.170689,1579686,180,477,1660,-862,-630,-294,50,268,-116
0,2023-03-01T18:49:50.176042,1579692,180,477,1660,-862,-630,-294,50,268,-116
0,2023-03-01T18:49:50.180933,1579697,212,563,1623,-801,-646,-289,50,268,-116
0,2023-03-01T18:49:50.186538,1579703,212,563,1623,-801,-646,-289,50,268,-116
0,2023-03-01T18:49:50.191290,1579707,212,563,1623,-801,-646,-289,50,268,-116
0,2023-03-01T18:49:50.196509,1579712,212,563,1623,-801,-646,-289,50,268,-116
0,2023-03-01T18:49:50.201159,1579717,220,610,1625,-901,-589,-303,57,273,-107
0,2023-03-01T18:49:50.207026,1579723,220,610,1625,-901,-589,-303,57,273,-107
0,2023-03-01T18:49:50.212001,1579727,220,610,1625,-901,-589,-303,57,273,-107
0,2023-03-01T18:49:50.218268,1579734,220,610,1625,-901,-589,-303,57,273,-107
0,2023-03-01T18:49:50.223607,1579740,201,583,1639,-1087,-525,-332,57,273,-107
0,2023-03-01T18:49:50.229847,1579746,201,583,1639,-1087,-525,-332,57,273,-107
0,2023-03-01T18:49:50.235100,1579751,201,583,1639,-1087,-525,-332,57,273,-107
0,2023-03-01T18:49:50.240236,1579756,175,510,1634,-1220,-507,-353,57,273,-107
0,2023-03-01T18:49:50.245326,1579761,175,510,1634,-1220,-507,-353,57,273,-107
0,2023-03-01T18:49:50.250811,1579767,175,510,1634,-1220,-507,-353,57,273,-107
0,2023-03-01T18:49:50.256259,1579772,175,510,1634,-1220,-507,-353,57,273,-107
0,2023-03-01T18:49:50.261313,1579778,163,449,1649,-1202,-526,-353,57,273,-107
0,2023-03-01T18:49:50.267691,1579784,163,449,1649,-1202,-526,-353,57,273,-107
0,2023-03-01T18:49:50.272619,1579789,163,449,1649,-1202,-526,-353,57,273,-107
0,2023-03-01T18:49:50.277936,1579794,163,439,1661,-1058,-572,-325,57,273,-107
0,2023-03-01T18:49:50.283480,1579799,163,439,1661,-1058,-572,-325,57,273,-107
0,2023-03-01T18:49:50.289025,1579805,163,439,1661,-1058,-572,-325,57,273,-107
0,2023-03-01T18:49:50.294161,1579810,163,439,1661,-1058,-572,-325,57,273,-107
0,2023-03-01T18:49:50.299505,1579815,188,492,1640,-918,-623,-298,57,273,-107
0,2023-03-01T18:49:50.304545,1579821,188,492,1640,-918,-623,-298,57,273,-107
0,2023-03-01T18:49:50.309412,1579826,188,492,1640,-918,-623,-298,57,273,-107
0,2023-03-01T18:49:50.315462,1579831,188,492,1640,-918,-623,-298,57,273,-107
0,2023-03-01T18:49:50.320514,1579836,188,492,1640,-918,-623,-298,57,273,-107
0,2023-03-01T18:49:50.325392,1579841,188,492,1640,-918,-623,-298,57,273,-107
0,2023-03-01T18:49:50.330233,1579846,188,492,1640,-918,-623,-298,57,273,-107
0,2023-03-01T18:49:50.335665,1579851,188,492,1640,-918,-623,-298,57,273,-107
0,2023-03-01T18:49:50.340804,1579856,188,492,1640,-918,-623,-298,44,266,-112
0,2023-03-01T18:49:50.345616,1579862,188,492,1640,-918,-623,-298,44,266,-112
0,2023-03-01T18:49:50.350358,1579867,188,492,1640,-918,-623,-298,44,266,-112
0,2023-03-01T18:49:50.355556,1579872,188,492,1640,-918,-623,-298,44,266,-112
0,2023-03-01T18:49:50.360258,1579876,201,562,1635,-1088,-543,-338,44,266,-112
0,2023-03-01T18:49:50.365798,1579882,201,562,1635,-1088,-543,-338,44,266,-112
0,2023-03-01T18:49:50.371476,1579887,201,562,1635,-1088,-543,-338,44,266,-112
0,2023-03-01T18:49:50.377393,1579893,201,562,1635,-1088,-543,-338,44,266,-112
0,2023-03-01T18:49:50.382605,1579898,180,509,1636,-1176,-524,-354,44,266,-112
0,2023-03-01T18:49:50.387917,1579904,180,509,1636,-1176,-524,-354,44,266,-112
0,2023-03-01T18:49:50.392852,1579909,180,509,1636,-1176,-524,-354,44,266,-112
0,2023-03-01T18:49:50.398281,1579914,167,460,1646,-1155,-548,-344,44,266,-112
0,2023-03-01T18:49:50.404386,1579920,167,460,1646,-1155,-548,-344,44,266,-112
0,2023-03-01T18:49:50.409973,1579926,167,460,1646,-1155,-548,-344,44,266,-112
0,2023-03-01T18:49:50.415404,1579931,167,460,1646,-1155,-548,-344,44,266,-112
0,2023-03-01T18:49:50.420700,1579936,169,459,1650,-1037,-579,-328,44,266,-112
0,2023-03-01T18:49:50.426442,1579942,169,459,1650,-1037,-579,-328,44,266,-112
0,2023-03-01T18:49:50.431223,1579948,169,459,1650,-1037,-579,-328,44,266,-112
0,2023-03-01T18:49:50.436573,1579953,169,459,1650,-1037,-579,-328,44,266,-112
0,2023-03-01T18:49:50.441587,1579958,191,503,1643,-931,-609,-303,44,266,-112
0,2023-03-01T18:49:50.447504,1579964,191,503,1643,-931,-609,-303,44,266,-112
0,2023-03-01T18:49:50.452834,1579969,191,503,1643,-931,-609,-303,44,266,-112
0,2023-03-01T18:49:50.458673,1579974,203,555,1647,-913,-611,-295,56,272,-110
0,2023-03-01T18:49:50.464326,1579980,203,555,1647,-913,-611,-295,56,272,-110
0,2023-03-01T18:49:50.469510,1579985,203,555,1647,-913,-611,-295,56,272,-110
0,2023-03-01T18:49:50.474582,1579991,203,555,1647,-913,-611,-295,56,272,-110
0,2023-03-01T18:49:50.479605,1579996,207,570,1635,-989,-580,-317,56,272,-110
0,2023-03-01T18:49:50.485130,1580001,207,570,1635,-989,-580,-317,56,272,-110
0,2023-03-01T18:49:50.490781,1580006,207,570,1635,-989,-580,-317,56,272,-110
0,2023-03-01T18:49:50.496046,1580012,207,570,1635,-989,-580,-317,56,272,-110
0,2023-03-01T18:49:50.501522,1580017,194,546,1636,-1091,-545,-337,56,272,-110
0,2023-03-01T18:49:50.507684,1580023,194,546,1636,-1091,-545,-337,56,272,-110
0,2023-03-01T18:49:50.512460,1580028,194,546,1636,-1091,-545,-337,56,272,-110
0,2023-03-01T18:49:50.519129,1580035,176,499,1641,-1139,-517,-347,56,272,-110
0,2023-03-01T18:49:50.524884,1580041,176,499,1641,-1139,-517,-347,56,272,-110
0,2023-03-01T18:49:50.530417,1580046,176,499,1641,-1139,-517,-347,56,272,-110
0,2023-03-01T18:49:50.536369,1580052,176,499,1641,-1139,-517,-347,56,272,-110
0,2023-03-01T18:49:50.541342,1580057,169,469,1648,-1115,-553,-332,56,272,-110
0,2023-03-01T18:49:50.547033,1580063,169,469,1648,-1115,-553,-332,56,272,-110
0,2023-03-01T18:49:50.552297,1580067,169,469,1648,-1115,-553,-332,56,272,-110
0,2023-03-01T18:49:50.557538,1580073,169,469,1648,-1115,-553,-332,56,272,-110
0,2023-03-01T18:49:50.562733,1580079,177,479,1646,-1023,-580,-322,56,272,-110
0,2023-03-01T18:49:50.568597,1580085,177,479,1646,-1023,-580,-322,56,272,-110
0,2023-03-01T18:49:50.573379,1580090,177,479,1646,-1023,-580,-322,56,272,-110
0,2023-03-01T18:49:50.578558,1580095,189,515,1640,-945,-607,-301,56,272,-110
0,2023-03-01T18:49:50.583880,1580100,189,515,1640,-945,-607,-301,56,272,-110
0,2023-03-01T18:49:50.589396,1580105,189,515,1640,-945,-607,-301,56,272,-110
0,2023-03-01T18:49:50.594785,1580111,189,515,1640,-945,-607,-301,56,272,-110
0,2023-03-01T18:49:50.599441,1580115,202,549,1640,-946,-599,-308,52,270,-112
0,2023-03-01T18:49:50.605404,1580122,202,549,1640,-946,-599,-308,52,270,-112
0,2023-03-01T18:49:50.609921,1580126,202,549,1640,-946,-599,-308,52,270,-112
0,2023-03-01T18:49:50.615342,1580131,202,549,1640,-946,-599,-308,52,270,-112
0,2023-03-01T18:49:50.620228,1580136,205,553,1634,-1008,-568,-318,52,270,-112
0,2023-03-01T18:49:50.625879,1580142,205,553,1634,-1008,-568,-318,52,270,-112
0,2023-03-01T18:49:50.630761,1580146,205,553,1634,-1008,-568,-318,52,270,-112
0,2023-03-01T18:49:50.635978,1580152,205,553,1634,-1008,-568,-318,52,270,-112
0,2023-03-01T18:49:50.640894,1580156,192,530,1639,-1088,-542,-330,52,270,-112
0,2023-03-01T18:49:50.646566,1580163,192,530,1639,-1088,-542,-330,52,270,-112
0,2023-03-01T18:49:50.652753,1580169,192,530,1639,-1088,-542,-330,52,270,-112
0,2023-03-01T18:49:50.658569,1580174,192,530,1639,-1088,-542,-330,52,270,-112
0,2023-03-01T18:49:50.663735,1580179,177,496,1649,-1115,-531,-336,52,270,-112
0,2023-03-01T18:49:50.669788,1580186,177,496,1649,-1115,-531,-336,52,270,-112
0,2023-03-01T18:49:50.675064,1580190,177,496,1649,-1115,-531,-336,52,270,-112
0,2023-03-01T18:49:50.679731,1580195,173,479,1651,-1082,-559,-330,52,270,-112
0,2023-03-01T18:49:50.685458,1580201,173,479,1651,-1082,-559,-330,52,270,-112
0,2023-03-01T18:49:50.691186,1580207,173,479,1651,-1082,-559,-330,52,270,-112
0,2023-03-01T18:49:50.697202,1580213,173,479,1651,-1082,-559,-330,52,270,-112
0,2023-03-01T18:49:50.702685,1580218,178,491,1644,-1011,-589,-315,52,270,-112
0,2023-03-01T18:49:50.708774,1580225,178,491,1644,-1011,-589,-315,52,270,-112
0,2023-03-01T18:49:50.713549,1580229,178,491,1644,-1011,-589,-315,52,270,-112
0,2023-03-01T18:49:50.719848,1580235,191,525,1648,-960,-595,-306,55,271,-107
0,2023-03-01T18:49:50.726417,1580241,191,525,1648,-960,-595,-306,55,271,-107
0,2023-03-01T18:49:50.732192,1580248,191,525,1648,-960,-595,-306,55,271,-107
0,2023-03-01T18:49:50.737857,1580254,191,525,1648,-960,-595,-306,55,271,-107
0,2023-03-01T18:49:50.742805,1580259,197,546,1642,-977,-589,-304,55,271,-107
0,2023-03-01T18:49:50.748540,1580265,197,546,1642,-977,-589,-304,55,271,-107
0,2023-03-01T18:49:50.753748,1580269,197,546,1642,-977,-589,-304,55,271,-107
0,2023-03-01T18:49:50.760167,1580276,197,544,1642,-1036,-559,-319,55,271,-107
0,2023-03-01T18:49:50.765890,1580281,197,544,1642,-1036,-559,-319,55,271,-107
0,2023-03-01T18:49:50.771499,1580288,197,544,1642,-1036,-559,-319,55,271,-107
0,2023-03-01T18:49:50.777289,1580293,197,544,1642,-1036,-559,-319,55,271,-107
0,2023-03-01T18:49:50.782574,1580298,186,520,1646,-1087,-546,-334,55,271,-107
0,2023-03-01T18:49:50.788565,1580305,186,520,1646,-1087,-546,-334,55,271,-107
0,2023-03-01T18:49:50.793303,1580309,186,520,1646,-1087,-546,-334,55,271,-107
0,2023-03-01T18:49:50.798961,1580315,178,499,1644,-1096,-550,-334,55,271,-107
0,2023-03-01T18:49:50.804455,1580320,178,499,1644,-1096,-550,-334,55,271,-107
0,2023-03-01T18:49:50.810272,1580326,178,499,1644,-1096,-550,-334,55,271,-107
0,2023-03-01T18:49:50.816070,1580332,178,499,1644,-1096,-550,-334,55,271,-107
0,2023-03-01T18:49:50.821165,1580338,174,488,1643,-1052,-562,-322,55,271,-107
0,2023-03-01T18:49:50.826539,1580343,174,488,1643,-1052,-562,-322,55,271,-107
0,2023-03-01T18:49:50.831377,1580347,174,488,1643,-1052,-562,-322,55,271,-107
0,2023-03-01T18:49:50.837321,1580353,174,488,1643,-1052,-562,-322,55,271,-107
0,2023-03-01T18:49:50.842583,1580358,185,503,1643,-994,-583,-312,56,268,-114
0,2023-03-01T18:49:50.848744,1580364,185,503,1643,-994,-583,-312,56,268,-114
0,2023-03-01T18:49:50.853540,1580369,185,503,1643,-994,-583,-312,56,268,-114
0,2023-03-01T18:49:50.859210,1580376,193,528,1639,-971,-591,-305,56,268,-114
0,2023-03-01T18:49:50.865414,1580381,193,528,1639,-971,-591,-305,56,268,-114
0,2023-03-01T18:49:50.871411,1580387,193,528,1639,-971,-591,-305,56,268,-114
0,2023-03-01T18:49:50.877415,1580393,193,528,1639,-971,-591,-305,56,268,-114
0,2023-03-01T18:49:50.883454,1580398,197,539,1637,-1002,-582,-315,56,268,-114
0,2023-03-01T18:49:50.889839,1580405,197,539,1637,-1002,-582,-315,56,268,-114
0,2023-03-01T18:49:50.895628,1580411,197,539,1637,-1002,-582,-315,56,268,-114
0,2023-03-01T18:49:50.900431,1580417,193,531,1640,-1047,-561,-326,56,268,-114
0,2023-03-01T18:49:50.905691,1580422,193,531,1640,-1047,-561,-326,56,268,-114
0,2023-03-01T18:49:50.912524,1580427,193,531,1640,-1047,-561,-326,56,268,-114
0,2023-03-01T18:49:50.919536,1580435,188,513,1639,-1081,-553,-329,56,268,-114
0,2023-03-01T18:49:50.925146,1580441,188,513,1639,-1081,-553,-329,56,268,-114
0,2023-03-01T18:49:50.930778,1580447,188,513,1639,-1081,-553,-329,56,268,-114
0,2023-03-01T18:49:50.936265,1580452,188,513,1639,-1081,-553,-329,56,268,-114
0,2023-03-01T18:49:50.941415,1580457,180,496,1643,-1075,-560,-328,56,268,-114
0,2023-03-01T18:49:50.947628,1580464,180,496,1643,-1075,-560,-328,56,268,-114
0,2023-03-01T18:49:50.952880,1580469,180,496,1643,-1075,-560,-328,56,268,-114
0,2023-03-01T18:49:50.958213,1580474,180,496,1643,-1075,-560,-328,56,268,-114
0,2023-03-01T18:49:50.963367,1580479,181,496,1650,-1041,-573,-328,56,268,-114
0,2023-03-01T18:49:50.969910,1580486,181,496,1650,-1041,-573,-328,56,268,-114
0,2023-03-01T18:49:50.975589,1580491,181,496,1650,-1041,-573,-328,56,268,-114
0,2023-03-01T18:49:50.980418,1580496,190,511,1652,-1010,-582,-318,62,272,-110
0,2023-03-01T18:49:50.985696,1580502,190,511,1652,-1010,-582,-318,62,272,-110
0,2023-03-01T18:49:50.990810,1580507,190,511,1652,-1010,-582,-318,62,272,-110
0,2023-03-01T18:49:50.996876,1580513,190,511,1652,-1010,-582,-318,62,272,-110
0,2023-03-01T18:49:51.002597,1580518,194,524,1642,-1000,-586,-318,62,272,-110
0,2023-03-01T18:49:51.009163,1580525,194,524,1642,-1000,-586,-318,62,272,-110
0,2023-03-01T18:49:51.014169,1580530,194,524,1642,-1000,-586,-318,62,272,-110
0,2023-03-01T18:49:51.019715,1580535,195,535,1644,-1028,-575,-321,62,272,-110
0,2023-03-01T18:49:51.025592,1580541,195,535,1644,-1028,-575,-321,62,272,-110
0,2023-03-01T18:49:51.031663,1580548,195,535,1644,-1028,-575,-321,62,272,-110
0,2023-03-01T18:49:51.037099,1580553,195,535,1644,-1028,-575,-321,62,272,-110
0,2023-03-01T18:49:51.042051,1580558,188,529,1638,-1055,-558,-322,62,272,-110
0,2023-03-01T18:49:51.047211,1580563,188,529,1638,-1055,-558,-322,62,272,-110
0,2023-03-01T18:49:51.051942,1580568,188,529,1638,-1055,-558,-322,62,272,-110
0,2023-03-01T18:49:51.057834,1580573,188,529,1638,-1055,-558,-322,62,272,-110
0,2023-03-01T18:49:51.062901,1580579,187,512,1643,-1080,-555,-326,62,272,-110
0,2023-03-01T18:49:51.068798,1580584,187,512,1643,-1080,-555,-326,62,272,-110
0,2023-03-01T18:49:51.073705,1580590,187,512,1643,-1080,-555,-326,62,272,-110
0,2023-03-01T18:49:51.079121,1580595,181,501,1642,-1054,-566,-324,62,272,-110
0,2023-03-01T18:49:51.084624,1580601,181,501,1642,-1054,-566,-324,62,272,-110
0,2023-03-01T18:49:51.089674,1580605,181,501,1642,-1054,-566,-324,62,272,-110
0,2023-03-01T18:49:51.094379,1580610,181,501,1642,-1054,-566,-324,62,272,-110
0,2023-03-01T18:49:51.099625,1580616,183,503,1648,-1019,-575,-311,57,269,-113
0,2023-03-01T18:49:51.104779,1580620,183,503,1648,-1019,-575,-311,57,269,-113
0,2023-03-01T18:49:51.110230,1580626,183,503,1648,-1019,-575,-311,57,269,-113
0,2023-03-01T18:49:51.115974,1580632,183,503,1648,-1019,-575,-311,57,269,-113
0,2023-03-01T18:49:51.120750,1580637,189,517,1646,-1000,-581,-306,57,269,-113
0,2023-03-01T18:49:51.126400,1580643,189,517,1646,-1000,-581,-306,57,269,-113
0,2023-03-01T18:49:51.131517,1580648,189,517,1646,-1000,-581,-306,57,269,-113
0,2023-03-01T18:49:51.136704,1580653,189,517,1646,-1000,-581,-306,57,269,-113
0,2023-03-01T18:49:51.141613,1580657,196,530,1640,-1012,-578,-312,57,269,-113
0,2023-03-01T18:49:51.147171,1580663,196,530,1640,-1012,-578,-312,57,269,-113
0,2023-03-01T18:49:51.152578,1580668,196,530,1640,-1012,-578,-312,57,269,-113
0,2023-03-01T18:49:51.158313,1580675,196,530,1640,-1012,-578,-312,57,269,-113
0,2023-03-01T18:49:51.163194,1580679,198,528,1641,-1037,-571,-318,57,269,-113
0,2023-03-01T18:49:51.169620,1580686,198,528,1641,-1037,-571,-318,57,269,-113
0,2023-03-01T18:49:51.174546,1580691,198,528,1641,-1037,-571,-318,57,269,-113
0,2023-03-01T18:49:51.179852,1580696,190,517,1644,-1058,-568,-332,57,269,-113
0,2023-03-01T18:49:51.185526,1580701,190,517,1644,-1058,-568,-332,57,269,-113
0,2023-03-01T18:49:51.190181,1580706,190,517,1644,-1058,-568,-332,57,269,-113
0,2023-03-01T18:49:51.195325,1580711,190,517,1644,-1058,-568,-332,57,269,-113
0,2023-03-01T18:49:51.199921,1580716,190,504,1639,-1059,-558,-329,57,269,-113
0,2023-03-01T18:49:51.205563,1580722,190,504,1639,-1059,-558,-329,57,269,-113
0,2023-03-01T18:49:51.211307,1580727,190,504,1639,-1059,-558,-329,57,269,-113
0,2023-03-01T18:49:51.216396,1580733,190,504,1639,-1059,-558,-329,57,269,-113
0,2023-03-01T18:49:51.221314,1580737,179,503,1640,-1050,-571,-326,57,269,-113
0,2023-03-01T18:49:51.227244,1580743,179,503,1640,-1050,-571,-326,57,269,-113
0,2023-03-01T18:49:51.233060,1580749,179,503,1640,-1050,-571,-326,57,269,-113
0,2023-03-01T18:49:51.238108,1580754,179,503,1640,-1050,-571,-326,57,269,-113
0,2023-03-01T18:49:51.243344,1580759,184,508,1643,-1023,-584,-312,47,273,-115
0,2023-03-01T18:49:51.249230,1580766,184,508,1643,-1023,-584,-312,47,273,-115
0,2023-03-01T18:49:51.254045,1580770,184,508,1643,-1023,-584,-312,47,273,-115
0,2023-03-01T18:49:51.259558,1580775,188,521,1640,-1015,-585,-310,47,273,-115
0,2023-03-01T18:49:51.265334,1580781,188,521,1640,-1015,-585,-310,47,273,-115
0,2023-03-01T18:49:51.270131,1580786,188,521,1640,-1015,-585,-310,47,273,-115
0,2023-03-01T18:49:51.275588,1580791,188,521,1640,-1015,-585,-310,47,273,-115
0,2023-03-01T18:49:51.280176,1580796,193,528,1643,-1023,-573,-307,47,273,-115
0,2023-03-01T18:49:51.285453,1580802,193,528,1643,-1023,-573,-307,47,273,-115
0,2023-03-01T18:49:51.290344,1580807,193,528,1643,-1023,-573,-307,47,273,-115
0,2023-03-01T18:49:51.296123,1580812,193,528,1643,-1023,-573,-307,47,273,-115
0,2023-03-01T18:49:51.300806,1580817,190,526,1643,-1038,-568,-325,47,273,-115
0,2023-03-01T18:49:51.306072,1580822,190,526,1643,-1038,-568,-325,47,273,-115
0,2023-03-01T18:49:51.311498,1580827,190,526,1643,-1038,-568,-325,47,273,-115
0,2023-03-01T18:49:51.317306,1580833,190,526,1643,-1038,-568,-325,47,273,-115
0,2023-03-01T18:49:51.322378,1580838,186,514,1642,-1059,-554,-325,47,273,-115
0,2023-03-01T18:49:51.327871,1580844,186,514,1642,-1059,-554,-325,47,273,-115
0,2023-03-01T18:49:51.333075,1580849,186,514,1642,-1059,-554,-325,47,273,-115
0,2023-03-01T18:49:51.338993,1580855,186,514,1642,-1059,-554,-325,47,273,-115
0,2023-03-01T18:49:51.344102,1580860,183,505,1641,-1048,-558,-326,47,273,-115
0,2023-03-01T18:49:51.350144,1580866,183,505,1641,-1048,-558,-326,47,273,-115
0,2023-03-01T18:49:51.355486,1580871,183,505,1641,-1048,-558,-326,47,273,-115
0,2023-03-01T18:49:51.360453,1580876,184,508,1650,-1031,-565,-323,55,269,-113
0,2023-03-01T18:49:51.366107,1580881,184,508,1650,-1031,-565,-323,55,269,-113
0,2023-03-01T18:49:51.371339,1580888,184,508,1650,-1031,-565,-323,55,269,-113
0,2023-03-01T18:49:51.376552,1580893,184,508,1650,-1031,-565,-323,55,269,-113
0,2023-03-01T18:49:51.381615,1580898,184,515,1644,-1021,-580,-315,55,269,-113
0,2023-03-01T18:49:51.387265,1580903,184,515,1644,-1021,-580,-315,55,269,-113
0,2023-03-01T18:49:51.392411,1580908,184,515,1644,-1021,-580,-315,55,269,-113
0,2023-03-01T18:49:51.399092,1580914,184,515,1644,-1021,-580,-315,55,269,-113
0,2023-03-01T18:49:51.403898,1580920,189,522,1641,-1014,-577,-315,55,269,-113
0,2023-03-01T18:49:51.409853,1580925,189,522,1641,-1014,-577,-315,55,269,-113
0,2023-03-01T18:49:51.414853,1580931,189,522,1641,-1014,-577,-315,55,269,-113
0,2023-03-01T18:49:51.419534,1580936,192,523,1639,-1031,-567,-324,55,269,-113
0,2023-03-01T18:49:51.425575,1580941,192,523,1639,-1031,-567,-324,55,269,-113
0,2023-03-01T18:49:51.431725,1580948,192,523,1639,-1031,-567,-324,55,269,-113
0,2023-03-01T18:49:51.436801,1580953,192,523,1639,-1031,-567,-324,55,269,-113
0,2023-03-01T18:49:51.441604,1580957,189,517,1641,-1048,-559,-319,55,269,-113
0,2023-03-01T18:49:51.446990,1580963,189,517,1641,-1048,-559,-319,55,269,-113
0,2023-03-01T18:49:51.452108,1580967,189,517,1641,-1048,-559,-319,55,269,-113
0,2023-03-01T18:49:51.458038,1580974,189,517,1641,-1048,-559,-319,55,269,-113
0,2023-03-01T18:49:51.462737,1580979,186,510,1640,-1057,-559,-323,55,269,-113
0,2023-03-01T18:49:51.469461,1580985,186,510,1640,-1057,-559,-323,55,269,-113
0,2023-03-01T18:49:51.474253,1580990,186,510,1640,-1057,-559,-323,55,269,-113
0,2023-03-01T18:49:51.479442,1580995,186,510,1640,-1057,-559,-323,55,269,-113
0,2023-03-01T18:49:51.484526,1581000,184,507,1644,-1049,-568,-326,55,269,-113
0,2023-03-01T18:49:51.490445,1581006,184,507,1644,-1049,-568,-326,55,269,-113
0,2023-03-01T18:49:51.495697,1581011,184,507,1644,-1049,-568,-326,55,269,-113
0,2023-03-01T18:49:51.500323,1581017,188,511,1642,-1030,-572,-326,54,270,-112
0,2023-03-01T18:49:51.505983,1581022,188,511,1642,-1030,-572,-326,54,270,-112
0,2023-03-01T18:49:51.511577,1581028,188,511,1642,-1030,-572,-326,54,270,-112
0,2023-03-01T18:49:51.517308,1581033,188,511,1642,-1030,-572,-326,54,270,-112
0,2023-03-01T18:49:51.522496,1581038,189,519,1643,-1014,-579,-319,54,270,-112
0,2023-03-01T18:49:51.528759,1581044,189,519,1643,-1014,-579,-319,54,270,-112
0,2023-03-01T18:49:51.533444,1581049,189,519,1643,-1014,-579,-319,54,270,-112
0,2023-03-01T18:49:51.539477,1581056,189,519,1643,-1014,-579,-319,54,270,-112
0,2023-03-01T18:49:51.544807,1581061,193,524,1641,-1033,-576,-312,54,270,-112
0,2023-03-01T18:49:51.550648,1581067,193,524,1641,-1033,-576,-312,54,270,-112
0,2023-03-01T18:49:51.556218,1581072,193,524,1641,-1033,-576,-312,54,270,-112
0,2023-03-01T18:49:51.561229,1581077,190,525,1649,-1040,-565,-315,54,270,-112
0,2023-03-01T18:49:51.567116,1581083,190,525,1649,-1040,-565,-315,54,270,-112
0,2023-03-01T18:49:51.572995,1581089,190,525,1649,-1040,-565,-315,54,270,-112
0,2023-03-01T18:49:51.578292,1581094,190,525,1649,-1040,-565,-315,54,270,-112
0,2023-03-01T18:49:51.583059,1581099,190,525,1649,-1040,-565,-315,54,270,-112
0,2023-03-01T18:49:51.588766,1581105,190,525,1649,-1040,-565,-315,54,270,-112
0,2023-03-01T18:49:51.593746,1581110,190,525,1649,-1040,-565,-315,54,270,-112
0,2023-03-01T18:49:51.599393,1581115,190,525,1649,-1040,-565,-315,54,270,-112
0,2023-03-01T18:49:51.604091,1581120,185,505,1642,-1050,-569,-322,54,270,-112
0,2023-03-01T18:49:51.610835,1581126,185,505,1642,-1050,-569,-322,54,270,-112
0,2023-03-01T18:49:51.616539,1581132,185,505,1642,-1050,-569,-322,54,270,-112
0,2023-03-01T18:49:51.622058,1581137,186,516,1653,-1034,-574,-331,53,277,-109
0,2023-03-01T18:49:51.627559,1581144,186,516,1653,-1034,-574,-331,53,277,-109
0,2023-03-01T18:49:51.633218,1581150,186,516,1653,-1034,-574,-331,53,277,-109
0,2023-03-01T18:49:51.639372,1581155,186,516,1653,-1034,-574,-331,53,277,-109
0,2023-03-01T18:49:51.644502,1581160,186,510,1642,-1032,-578,-309,53,277,-109
0,2023-03-01T18:49:51.651344,1581167,186,510,1642,-1032,-578,-309,53,277,-109
0,2023-03-01T18:49:51.656901,1581173,186,510,1642,-1032,-578,-309,53,277,-109
0,2023-03-01T18:49:51.661334,1581177,191,523,1642,-1027,-569,-298,53,277,-109
0,2023-03-01T18:49:51.666769,1581182,191,523,1642,-1027,-569,-298,53,277,-109
0,2023-03-01T18:49:51.672602,1581189,191,523,1642,-1027,-569,-298,53,277,-109
0,2023-03-01T18:49:51.678178,1581194,191,523,1642,-1027,-569,-298,53,277,-109
0,2023-03-01T18:49:51.683282,1581199,192,524,1635,-1029,-557,-270,53,277,-109
0,2023-03-01T18:49:51.689664,1581206,192,524,1635,-1029,-557,-270,53,277,-109
0,2023-03-01T18:49:51.694389,1581210,192,524,1635,-1029,-557,-270,53,277,-109
0,2023-03-01T18:49:51.700103,1581216,186,506,1641,-1048,-550,-222,53,277,-109
0,2023-03-01T18:49:51.705803,1581221,186,506,1641,-1048,-550,-222,53,277,-109
0,2023-03-01T18:49:51.711603,1581228,186,506,1641,-1048,-550,-222,53,277,-109
0,2023-03-01T18:49:51.717190,1581233,186,506,1641,-1048,-550,-222,53,277,-109
0,2023-03-01T18:49:51.721883,1581238,192,518,1649,-1028,-549,-249,53,277,-109
0,2023-03-01T18:49:51.727303,1581243,192,518,1649,-1028,-549,-249,53,277,-109
0,2023-03-01T18:49:51.733540,1581249,192,518,1649,-1028,-549,-249,53,277,-109
0,2023-03-01T18:49:51.739053,1581255,192,518,1649,-1028,-549,-249,53,277,-109
0,2023-03-01T18:49:51.743970,1581260,192,513,1643,-1046,-543,-231,56,272,-114
0,2023-03-01T18:49:51.749895,1581265,192,513,1643,-1046,-543,-231,56,272,-114
0,2023-03-01T18:49:51.755591,1581272,192,513,1643,-1046,-543,-231,56,272,-114
0,2023-03-01T18:49:51.760485,1581277,183,510,1656,-1030,-533,-153,56,272,-114
0,2023-03-01T18:49:51.766274,1581282,183,510,1656,-1030,-533,-153,56,272,-114
0,2023-03-01T18:49:51.771649,1581288,183,510,1656,-1030,-533,-153,56,272,-114
0,2023-03-01T18:49:51.777038,1581293,183,510,1656,-1030,-533,-153,56,272,-114
0,2023-03-01T18:49:51.781905,1581298,183,514,1645,-1021,-546,-183,56,272,-114
0,2023-03-01T18:49:51.787317,1581303,183,514,1645,-1021,-546,-183,56,272,-114
0,2023-03-01T18:49:51.792018,1581308,183,514,1645,-1021,-546,-183,56,272,-114
0,2023-03-01T18:49:51.797658,1581314,183,514,1645,-1021,-546,-183,56,272,-114
0,2023-03-01T18:49:51.802593,1581319,188,512,1633,-1020,-556,-196,56,272,-114
0,2023-03-01T18:49:51.808135,1581324,188,512,1633,-1020,-556,-196,56,272,-114
0,2023-03-01T18:49:51.812994,1581329,188,512,1633,-1020,-556,-196,56,272,-114
0,2023-03-01T18:49:51.818432,1581334,188,512,1633,-1020,-556,-196,56,272,-114
0,2023-03-01T18:49:51.823289,1581339,192,525,1642,-1002,-556,-183,56,272,-114
0,2023-03-01T18:49:51.829142,1581345,192,525,1642,-1002,-556,-183,56,272,-114
0,2023-03-01T18:49:51.833633,1581349,192,525,1642,-1002,-556,-183,56,272,-114
0,2023-03-01T18:49:51.839169,1581356,192,525,1642,-1002,-556,-183,56,272,-114
0,2023-03-01T18:49:51.843782,1581360,188,516,1639,-1007,-568,-197,56,272,-114
0,2023-03-01T18:49:51.849491,1581365,188,516,1639,-1007,-568,-197,56,272,-114
0,2023-03-01T18:49:51.854585,1581371,188,516,1639,-1007,-568,-197,56,272,-114
0,2023-03-01T18:49:51.860115,1581376,195,517,1638,-932,-620,-196,56,272,-114
0,2023-03-01T18:49:51.865760,1581382,195,517,1638,-932,-620,-196,56,272,-114
0,2023-03-01T18:49:51.871719,1581387,195,517,1638,-932,-620,-196,56,272,-114
0,2023-03-01T18:49:51.877833,1581393,195,517,1638,-932,-620,-196,56,272,-114
0,2023-03-01T18:49:51.882932,1581399,179,506,1646,-904,-622,-174,53,261,-111
0,2023-03-01T18:49:51.889040,1581405,179,506,1646,-904,-622,-174,53,261,-111
0,2023-03-01T18:49:51.894011,1581410,179,506,1646,-904,-622,-174,53,261,-111
0,2023-03-01T18:49:51.899785,1581416,179,506,1646,-904,-622,-174,53,261,-111
0,2023-03-01T18:49:51.904904,1581421,196,529,1640,-948,-598,-208,53,261,-111
0,2023-03-01T18:49:51.911300,1581427,196,529,1640,-948,-598,-208,53,261,-111
0,2023-03-01T18:49:51.916965,1581432,196,529,1640,-948,-598,-208,53,261,-111
0,2023-03-01T18:49:51.922290,1581438,180,507,1640,-934,-602,-171,53,261,-111
0,2023-03-01T18:49:51.928219,1581444,180,507,1640,-934,-602,-171,53,261,-111
0,2023-03-01T18:49:51.934612,1581451,180,507,1640,-934,-602,-171,53,261,-111
0,2023-03-01T18:49:51.940222,1581456,196,529,1644,-944,-603,-189,53,261,-111
0,2023-03-01T18:49:51.945625,1581461,196,529,1644,-944,-603,-189,53,261,-111
0,2023-03-01T18:49:51.950798,1581466,196,529,1644,-944,-603,-189,53,261,-111
0,2023-03-01T18:49:51.956864,1581472,196,529,1644,-944,-603,-189,53,261,-111
0,2023-03-01T18:49:51.962102,1581477,186,517,1640,-924,-603,-169,53,261,-111
0,2023-03-01T18:49:51.967921,1581484,186,517,1640,-924,-603,-169,53,261,-111
0,2023-03-01T18:49:51.973496,1581490,186,517,1640,-924,-603,-169,53,261,-111
0,2023-03-01T18:49:51.979661,1581496,186,517,1640,-924,-603,-169,53,261,-111
0,2023-03-01T18:49:51.984544,1581501,195,523,1639,-945,-597,-172,53,261,-111
0,2023-03-01T18:49:51.990308,1581506,195,523,1639,-945,-597,-172,53,261,-111
0,2023-03-01T18:49:51.995563,1581511,195,523,1639,-945,-597,-172,53,261,-111
0,2023-03-01T18:49:52.000760,1581516,190,516,1645,-942,-603,-174,49,273,-111
0,2023-03-01T18:49:52.006182,1581522,190,516,1645,-942,-603,-174,49,273,-125
0,2023-03-01T18:49:52.011979,1581528,190,516,1645,-942,-603,-174,49,273,-125
0,2023-03-01T18:49:52.018418,1581534,190,516,1645,-942,-603,-174,49,273,-125
0,2023-03-01T18:49:52.023509,1581540,194,519,1642,-940,-591,-176,49,273,-125
0,2023-03-01T18:49:52.029541,1581546,194,519,1642,-940,-591,-176,49,273,-125
0,2023-03-01T18:49:52.034489,1581550,194,519,1642,-940,-591,-176,49,273,-125
0,2023-03-01T18:49:52.040292,1581556,194,519,1642,-940,-591,-176,49,273,-125
0,2023-03-01T18:49:52.044927,1581561,192,523,1640,-931,-596,-170,49,273,-125
0,2023-03-01T18:49:52.051188,1581568,192,523,1640,-931,-596,-170,49,273,-125
0,2023-03-01T18:49:52.056654,1581573,192,523,1640,-931,-596,-170,49,273,-125
0,2023-03-01T18:49:52.061551,1581578,193,527,1643,-926,-607,-172,49,273,-125
0,2023-03-01T18:49:52.067163,1581583,193,527,1643,-926,-607,-172,49,273,-125
0,2023-03-01T18:49:52.072369,1581588,193,527,1643,-926,-607,-172,49,273,-125
0,2023-03-01T18:49:52.077628,1581594,193,527,1643,-926,-607,-172,49,273,-125
0,2023-03-01T18:49:52.082364,1581598,190,525,1638,-908,-616,-164,49,273,-125
0,2023-03-01T18:49:52.087558,1581603,190,525,1638,-908,-616,-164,49,273,-125
0,2023-03-01T18:49:52.092280,1581608,190,525,1638,-908,-616,-164,49,273,-125
0,2023-03-01T18:49:52.097899,1581614,190,525,1638,-908,-616,-164,49,273,-125
0,2023-03-01T18:49:52.102998,1581619,199,526,1631,-932,-610,-163,49,273,-125
0,2023-03-01T18:49:52.109139,1581625,199,526,1631,-932,-610,-163,49,273,-125
0,2023-03-01T18:49:52.113935,1581630,199,526,1631,-932,-610,-163,49,273,-125
0,2023-03-01T18:49:52.119594,1581635,199,526,1631,-932,-610,-163,49,273,-125
0,2023-03-01T18:49:52.124651,1581640,195,521,1634,-928,-603,-164,49,273,-125
0,2023-03-01T18:49:52.130354,1581646,195,521,1634,-928,-603,-164,49,273,-125
0,2023-03-01T18:49:52.135962,1581652,195,521,1634,-928,-603,-164,49,273,-125
0,2023-03-01T18:49:52.141037,1581657,198,526,1647,-926,-616,-176,49,263,-117
0,2023-03-01T18:49:52.146540,1581663,198,526,1647,-926,-616,-176,49,263,-117
0,2023-03-01T18:49:52.151389,1581668,198,526,1647,-926,-616,-176,49,263,-117
0,2023-03-01T18:49:52.156805,1581673,198,526,1647,-926,-616,-176,49,263,-117
0,2023-03-01T18:49:52.162135,1581678,193,528,1645,-921,-597,-170,49,263,-117
0,2023-03-01T18:49:52.167291,1581683,193,528,1645,-921,-597,-170,49,263,-117
0,2023-03-01T18:49:52.171831,1581688,193,528,1645,-921,-597,-170,49,263,-117
0,2023-03-01T18:49:52.177065,1581693,193,528,1645,-921,-597,-170,49,263,-117
0,2023-03-01T18:49:52.182071,1581699,191,523,1637,-927,-610,-155,49,263,-117
0,2023-03-01T18:49:52.188068,1581704,191,523,1637,-927,-610,-155,49,263,-117
0,2023-03-01T18:49:52.192671,1581709,191,523,1637,-927,-610,-155,49,263,-117
0,2023-03-01T18:49:52.198396,1581714,191,523,1637,-927,-610,-155,49,263,-117
0,2023-03-01T18:49:52.203392,1581719,197,532,1640,-914,-609,-154,49,263,-117
0,2023-03-01T18:49:52.209351,1581725,197,532,1640,-914,-609,-154,49,263,-117
0,2023-03-01T18:49:52.213962,1581730,197,532,1640,-914,-609,-154,49,263,-117
0,2023-03-01T18:49:52.219342,1581735,197,532,1640,-914,-609,-154,49,263,-117
0,2023-03-01T18:49:52.224292,1581741,197,534,1639,-917,-608,-148,49,263,-117
0,2023-03-01T18:49:52.229643,1581746,197,534,1639,-917,-608,-148,49,263,-117
0,2023-03-01T18:49:52.234549,1581751,197,534,1639,-917,-608,-148,49,263,-117
0,2023-03-01T18:49:52.240190,1581756,197,534,1639,-917,-608,-148,49,263,-117
0,2023-03-01T18:49:52.244930,1581761,194,526,1640,-920,-606,-141,49,263,-117
0,2023-03-01T18:49:52.250804,1581767,194,526,1640,-920,-606,-141,49,263,-117
0,2023-03-01T18:49:52.256206,1581772,194,526,1640,-920,-606,-141,49,263,-117
0,2023-03-01T18:49:52.261336,1581777,202,536,1644,-916,-611,-154,50,266,-110
0,2023-03-01T18:49:52.266933,1581783,202,536,1644,-916,-611,-154,50,266,-110
0,2023-03-01T18:49:52.272646,1581789,202,536,1644,-916,-611,-154,50,266,-110
0,2023-03-01T18:49:52.279369,1581796,202,536,1644,-916,-611,-154,50,266,-110
0,2023-03-01T18:49:52.283801,1581800,191,523,1645,-909,-614,-134,50,266,-110
0,2023-03-01T18:49:52.289498,1581806,191,523,1645,-909,-614,-134,50,266,-110
0,2023-03-01T18:49:52.294317,1581810,191,523,1645,-909,-614,-134,50,266,-110
0,2023-03-01T18:49:52.300004,1581816,191,523,1645,-909,-614,-134,50,266,-110
0,2023-03-01T18:49:52.304826,1581821,191,523,1645,-909,-614,-134,50,266,-110
0,2023-03-01T18:49:52.309681,1581826,191,523,1645,-909,-614,-134,50,266,-110
0,2023-03-01T18:49:52.314515,1581831,191,523,1645,-909,-614,-134,50,266,-110
0,2023-03-01T18:49:52.320175,1581836,191,523,1645,-909,-614,-134,50,266,-110
0,2023-03-01T18:49:52.326084,1581841,196,530,1641,-910,-620,-151,50,266,-110
0,2023-03-01T18:49:52.331912,1581848,196,530,1641,-910,-620,-151,50,266,-110
0,2023-03-01T18:49:52.337546,1581853,196,530,1641,-910,-620,-151,50,266,-110
0,2023-03-01T18:49:52.342526,1581858,196,525,1643,-907,-609,-136,50,266,-110
0,2023-03-01T18:49:52.348141,1581864,196,525,1643,-907,-609,-136,50,266,-110
0,2023-03-01T18:49:52.354262,1581870,196,525,1643,-907,-609,-136,50,266,-110
0,2023-03-01T18:49:52.359744,1581876,196,525,1643,-907,-609,-136,50,266,-110
0,2023-03-01T18:49:52.364828,1581881,201,532,1640,-903,-614,-148,50,266,-110
0,2023-03-01T18:49:52.370380,1581886,201,532,1640,-903,-614,-148,50,266,-110
0,2023-03-01T18:49:52.375895,1581892,201,532,1640,-903,-614,-148,50,266,-110
0,2023-03-01T18:49:52.381656,1581897,194,526,1629,-905,-622,-129,50,266,-110
0,2023-03-01T18:49:52.387501,1581903,194,526,1629,-905,-622,-129,50,266,-110
0,2023-03-01T18:49:52.392521,1581908,194,526,1629,-905,-622,-129,50,266,-110
0,2023-03-01T18:49:52.398055,1581914,194,526,1629,-905,-622,-129,50,266,-110
0,2023-03-01T18:49:52.403170,1581919,196,538,1644,-911,-613,-130,50,266,-110
0,2023-03-01T18:49:52.408925,1581925,196,538,1644,-911,-613,-130,50,266,-110
0,2023-03-01T18:49:52.413924,1581930,196,538,1644,-911,-613,-130,50,266,-110
0,2023-03-01T18:49:52.419609,1581935,196,538,1644,-911,-613,-130,50,266,-110
0,2023-03-01T18:49:52.424696,1581940,202,536,1640,-911,-614,-139,50,266,-110
0,2023-03-01T18:49:52.431238,1581947,202,536,1640,-911,-614,-139,50,266,-110
0,2023-03-01T18:49:52.437128,1581953,202,536,1640,-911,-614,-139,50,266,-110
0,2023-03-01T18:49:52.441963,1581958,197,532,1642,-903,-618,-146,50,266,-110
0,2023-03-01T18:49:52.447796,1581964,197,532,1642,-903,-618,-146,50,266,-110
0,2023-03-01T18:49:52.453436,1581969,197,532,1642,-903,-618,-146,50,266,-110
0,2023-03-01T18:49:52.459480,1581975,197,532,1642,-903,-618,-146,50,266,-110
0,2023-03-01T18:49:52.464858,1581980,199,539,1642,-910,-615,-147,50,266,-110
0,2023-03-01T18:49:52.471494,1581987,199,539,1642,-910,-615,-147,50,266,-110
0,2023-03-01T18:49:52.476876,1581992,199,539,1642,-910,-615,-147,50,266,-110
0,2023-03-01T18:49:52.482070,1581998,201,537,1630,-906,-614,-146,50,266,-110
0,2023-03-01T18:49:52.487693,1582004,201,537,1630,-906,-614,-146,50,266,-110
0,2023-03-01T18:49:52.493881,1582009,201,537,1630,-906,-614,-146,50,266,-110
0,2023-03-01T18:49:52.499386,1582016,201,537,1630,-906,-614,-146,50,266,-110
0,2023-03-01T18:49:52.504362,1582020,203,541,1639,-897,-606,-131,50,266,-110
0,2023-03-01T18:49:52.510462,1582026,203,541,1639,-897,-606,-131,50,266,-110
0,2023-03-01T18:49:52.515822,1582031,203,541,1639,-897,-606,-131,50,266,-110
0,2023-03-01T18:49:52.521137,1582036,198,538,1640,-900,-620,-139,55,267,-115
0,2023-03-01T18:49:52.526714,1582043,198,538,1640,-900,-620,-139,55,267,-115
0,2023-03-01T18:49:52.531548,1582048,198,538,1640,-900,-620,-139,55,267,-115
0,2023-03-01T18:49:52.536200,1582052,198,538,1640,-900,-620,-139,55,267,-115
0,2023-03-01T18:49:52.541082,1582057,199,534,1638,-906,-617,-136,55,267,-115
0,2023-03-01T18:49:52.546530,1582062,199,534,1638,-906,-617,-136,55,267,-115
0,2023-03-01T18:49:52.552593,1582068,199,534,1638,-906,-617,-136,55,267,-115
0,2023-03-01T18:49:52.558540,1582073,199,534,1638,-906,-617,-136,55,267,-115
0,2023-03-01T18:49:52.563533,1582080,205,538,1640,-892,-613,-136,55,267,-115
0,2023-03-01T18:49:52.569459,1582086,205,538,1640,-892,-613,-136,55,267,-115
0,2023-03-01T18:49:52.574317,1582091,205,538,1640,-892,-613,-136,55,267,-115
0,2023-03-01T18:49:52.579928,1582096,205,538,1640,-892,-613,-136,55,267,-115
0,2023-03-01T18:49:52.584364,1582101,206,541,1645,-899,-621,-137,55,267,-115
0,2023-03-01T18:49:52.590300,1582106,206,541,1645,-899,-621,-137,55,267,-115
0,2023-03-01T18:49:52.595526,1582111,206,541,1645,-899,-621,-137,55,267,-115
0,2023-03-01T18:49:52.600477,1582116,206,541,1645,-899,-621,-137,55,267,-115
0,2023-03-01T18:49:52.605498,1582121,198,540,1635,-905,-615,-117,55,267,-115
0,2023-03-01T18:49:52.610998,1582128,198,540,1635,-905,-615,-117,55,267,-115
0,2023-03-01T18:49:52.616159,1582133,198,540,1635,-905,-615,-117,55,267,-115
0,2023-03-01T18:49:52.620816,1582137,207,543,1633,-894,-614,-125,55,267,-115
0,2023-03-01T18:49:52.627036,1582142,207,543,1633,-894,-614,-125,55,267,-115
0,2023-03-01T18:49:52.632055,1582148,207,543,1633,-894,-614,-125,55,267,-115
0,2023-03-01T18:49:52.637686,1582154,207,543,1633,-894,-614,-125,55,267,-115
0,2023-03-01T18:49:52.642682,1582158,201,537,1639,-901,-621,-128,61,271,-119
0,2023-03-01T18:49:52.648216,1582163,201,537,1639,-901,-621,-128,61,271,-119
0,2023-03-01T18:49:52.653211,1582170,201,537,1639,-901,-621,-128,61,271,-119
0,2023-03-01T18:49:52.659197,1582175,201,537,1639,-901,-621,-128,61,271,-119
0,2023-03-01T18:49:52.664519,1582181,202,544,1640,-897,-609,-106,61,271,-119
0,2023-03-01T18:49:52.670762,1582187,202,544,1640,-897,-609,-106,61,271,-119
0,2023-03-01T18:49:52.676615,1582192,202,544,1640,-897,-609,-106,61,271,-119
0,2023-03-01T18:49:52.681165,1582197,205,547,1636,-902,-605,-127,61,271,-119
0,2023-03-01T18:49:52.686794,1582202,205,547,1636,-902,-605,-127,61,271,-119
0,2023-03-01T18:49:52.691815,1582208,205,547,1636,-902,-605,-127,61,271,-119
0,2023-03-01T18:49:52.697057,1582214,205,547,1636,-902,-605,-127,61,271,-119
0,2023-03-01T18:49:52.701884,1582218,204,542,1636,-906,-617,-127,61,271,-119
0,2023-03-01T18:49:52.706832,1582223,204,542,1636,-906,-617,-127,61,271,-119
0,2023-03-01T18:49:52.711878,1582228,204,542,1636,-906,-617,-127,61,271,-119
0,2023-03-01T18:49:52.717362,1582233,204,542,1636,-906,-617,-127,61,271,-119
0,2023-03-01T18:49:52.722324,1582238,208,547,1633,-876,-620,-127,61,271,-119
0,2023-03-01T18:49:52.727533,1582243,208,547,1633,-876,-620,-127,61,271,-119
0,2023-03-01T18:49:52.732612,1582248,208,547,1633,-876,-620,-127,61,271,-119
0,2023-03-01T18:49:52.738198,1582254,208,547,1633,-876,-620,-127,61,271,-119
0,2023-03-01T18:49:52.743741,1582260,206,544,1629,-873,-630,-127,61,271,-119
0,2023-03-01T18:49:52.749750,1582266,206,544,1629,-873,-630,-127,61,271,-119
0,2023-03-01T18:49:52.754463,1582271,206,544,1629,-873,-630,-127,61,271,-119
0,2023-03-01T18:49:52.760055,1582276,206,544,1629,-873,-630,-127,61,271,-119
0,2023-03-01T18:49:52.764876,1582281,204,546,1630,-872,-633,-120,61,271,-119
0,2023-03-01T18:49:52.771098,1582287,204,546,1630,-872,-633,-120,61,271,-119
0,2023-03-01T18:49:52.776448,1582292,204,546,1630,-872,-633,-120,61,271,-119
0,2023-03-01T18:49:52.781238,1582298,203,549,1643,-870,-637,-126,58,260,-122
0,2023-03-01T18:49:52.786286,1582303,203,549,1643,-870,-637,-126,58,260,-122
0,2023-03-01T18:49:52.790908,1582307,203,549,1643,-870,-637,-126,58,260,-122
0,2023-03-01T18:49:52.796230,1582312,203,549,1643,-870,-637,-126,58,260,-122
0,2023-03-01T18:49:52.801403,1582317,209,552,1638,-888,-623,-122,58,260,-122
0,2023-03-01T18:49:52.806783,1582323,209,552,1638,-888,-623,-122,58,260,-122
0,2023-03-01T18:49:52.812103,1582328,209,552,1638,-888,-623,-122,58,260,-122
0,2023-03-01T18:49:52.817975,1582333,209,552,1638,-888,-623,-122,58,260,-122
0,2023-03-01T18:49:52.822869,1582339,213,544,1633,-882,-631,-135,58,260,-122
0,2023-03-01T18:49:52.828119,1582345,213,544,1633,-882,-631,-135,58,260,-122
0,2023-03-01T18:49:52.833010,1582349,213,544,1633,-882,-631,-135,58,260,-122
0,2023-03-01T18:49:52.838766,1582354,213,544,1633,-882,-631,-135,58,260,-122
0,2023-03-01T18:49:52.843790,1582360,211,553,1642,-878,-621,-148,58,260,-122
0,2023-03-01T18:49:52.850112,1582366,211,553,1642,-878,-621,-148,58,260,-122
0,2023-03-01T18:49:52.854843,1582371,211,553,1642,-878,-621,-148,58,260,-122
0,2023-03-01T18:49:52.860020,1582376,211,553,1642,-878,-621,-148,58,260,-122
0,2023-03-01T18:49:52.865039,1582381,209,551,1632,-886,-623,-129,58,260,-122
0,2023-03-01T18:49:52.871128,1582388,209,551,1632,-886,-623,-129,58,260,-122
0,2023-03-01T18:49:52.876660,1582393,209,551,1632,-886,-623,-129,58,260,-122
0,2023-03-01T18:49:52.881581,1582398,211,552,1628,-900,-617,-119,58,260,-122
0,2023-03-01T18:49:52.887156,1582403,211,552,1628,-900,-617,-119,58,260,-122
0,2023-03-01T18:49:52.891897,1582408,211,552,1628,-900,-617,-119,58,260,-122
0,2023-03-01T18:49:52.897470,1582413,211,552,1628,-900,-617,-119,58,260,-122
0,2023-03-01T18:49:52.902363,1582418,205,550,1636,-876,-613,-92,55,271,-117
0,2023-03-01T18:49:52.908024,1582424,205,550,1636,-876,-613,-92,55,271,-117
0,2023-03-01T18:49:52.912802,1582429,205,550,1636,-876,-613,-92,55,271,-117
0,2023-03-01T18:49:52.919351,1582436,205,550,1636,-876,-613,-92,55,271,-117
0,2023-03-01T18:49:52.924208,1582440,208,548,1632,-876,-629,-115,55,271,-117
0,2023-03-01T18:49:52.930333,1582446,208,548,1632,-876,-629,-115,55,271,-117
0,2023-03-01T18:49:52.935399,1582451,208,548,1632,-876,-629,-115,55,271,-117
0,2023-03-01T18:49:52.940967,1582457,208,548,1632,-876,-629,-115,55,271,-117
0,2023-03-01T18:49:52.945889,1582461,214,552,1631,-875,-620,-110,55,271,-117
0,2023-03-01T18:49:52.951885,1582468,214,552,1631,-875,-620,-110,55,271,-117
0,2023-03-01T18:49:52.957886,1582474,214,552,1631,-875,-620,-110,55,271,-117
0,2023-03-01T18:49:52.963216,1582480,212,559,1635,-866,-624,-113,55,271,-117
0,2023-03-01T18:49:52.968750,1582485,212,559,1635,-866,-624,-113,55,271,-117
0,2023-03-01T18:49:52.973666,1582490,212,559,1635,-866,-624,-113,55,271,-117
0,2023-03-01T18:49:52.980446,1582496,212,559,1635,-866,-624,-113,55,271,-117
0,2023-03-01T18:49:52.985745,1582501,216,560,1631,-877,-617,-115,55,271,-117
0,2023-03-01T18:49:52.992452,1582509,216,560,1631,-877,-617,-115,55,271,-117
0,2023-03-01T18:49:52.998652,1582515,216,560,1631,-877,-617,-115,55,271,-117
0,2023-03-01T18:49:53.003532,1582520,210,554,1638,-877,-618,-113,55,271,-117
0,2023-03-01T18:49:53.009897,1582526,210,554,1638,-877,-618,-113,55,271,-117
0,2023-03-01T18:49:53.014765,1582531,210,554,1638,-877,-618,-113,55,271,-117
0,2023-03-01T18:49:53.020196,1582536,210,554,1638,-877,-618,-113,55,271,-117
0,2023-03-01T18:49:53.025439,1582541,213,557,1632,-889,-614,-129,55,271,-117
0,2023-03-01T18:49:53.031499,1582547,213,557,1632,-889,-614,-129,55,271,-117
0,2023-03-01T18:49:53.037167,1582553,213,557,1632,-889,-614,-129,55,271,-117
0,2023-03-01T18:49:53.042796,1582559,211,552,1637,-889,-607,-119,54,258,-108
0,2023-03-01T18:49:53.048618,1582565,211,552,1637,-889,-607,-119,54,258,-108
0,2023-03-01T18:49:53.054446,1582570,211,552,1637,-889,-607,-119,54,258,-108
0,2023-03-01T18:49:53.059913,1582576,211,552,1637,-889,-607,-119,54,258,-108
0,2023-03-01T18:49:53.065109,1582581,215,560,1633,-880,-617,-119,54,258,-108
0,2023-03-01T18:49:53.071937,1582587,215,560,1633,-880,-617,-119,54,258,-108
0,2023-03-01T18:49:53.077560,1582594,215,560,1633,-880,-617,-119,54,258,-108
0,2023-03-01T18:49:53.082298,1582599,213,564,1635,-879,-621,-99,54,258,-108
0,2023-03-01T18:49:53.087894,1582604,213,564,1635,-879,-621,-99,54,258,-108
0,2023-03-01T18:49:53.093145,1582609,213,564,1635,-879,-621,-99,54,258,-108
0,2023-03-01T18:49:53.098620,1582615,213,564,1635,-879,-621,-99,54,258,-108
0,2023-03-01T18:49:53.103536,1582619,213,562,1636,-882,-625,-93,54,258,-108
0,2023-03-01T18:49:53.109389,1582625,213,562,1636,-882,-625,-93,54,258,-108
0,2023-03-01T18:49:53.114060,1582630,213,562,1636,-882,-625,-93,54,258,-108
0,2023-03-01T18:49:53.119138,1582636,213,562,1636,-882,-625,-93,54,258,-108
0,2023-03-01T18:49:53.124117,1582640,214,563,1633,-883,-620,-92,54,258,-108
0,2023-03-01T18:49:53.130461,1582647,214,563,1633,-883,-620,-92,54,258,-108
0,2023-03-01T18:49:53.135157,1582651,214,563,1633,-883,-620,-92,54,258,-108
0,2023-03-01T18:49:53.139916,1582656,214,563,1633,-883,-620,-92,54,258,-108
0,2023-03-01T18:49:53.145671,1582661,211,553,1634,-892,-608,-99,54,258,-108
0,2023-03-01T18:49:53.151501,1582667,211,553,1634,-892,-608,-99,54,258,-108
0,2023-03-01T18:49:53.157108,1582673,211,553,1634,-892,-608,-99,54,258,-108
0,2023-03-01T18:49:53.162101,1582679,227,576,1624,-910,-612,-123,46,264,-112
0,2023-03-01T18:49:53.167375,1582684,227,576,1624,-910,-612,-123,46,264,-112
0,2023-03-01T18:49:53.172178,1582688,227,576,1624,-910,-612,-123,46,264,-112
0,2023-03-01T18:49:53.177480,1582694,227,576,1624,-910,-612,-123,46,264,-112
0,2023-03-01T18:49:53.182115,1582698,205,542,1637,-898,-606,-93,46,264,-112
0,2023-03-01T18:49:53.187570,1582703,205,542,1637,-898,-606,-93,46,264,-112
0,2023-03-01T18:49:53.193333,1582709,205,542,1637,-898,-606,-93,46,264,-112
0,2023-03-01T18:49:53.198634,1582714,205,542,1637,-898,-606,-93,46,264,-112
0,2023-03-01T18:49:53.203056,1582720,212,563,1639,-881,-629,-124,46,264,-112
0,2023-03-01T18:49:53.208207,1582725,212,563,1639,-881,-629,-124,46,264,-112
0,2023-03-01T18:49:53.213839,1582730,212,563,1639,-881,-629,-124,46,264,-112
0,2023-03-01T18:49:53.219384,1582736,212,563,1639,-881,-629,-124,46,264,-112
0,2023-03-01T18:49:53.224393,1582740,235,583,1619,-898,-615,-128,46,264,-112
0,2023-03-01T18:49:53.229858,1582746,235,583,1619,-898,-615,-128,46,264,-112
0,2023-03-01T18:49:53.234823,1582751,235,583,1619,-898,-615,-128,46,264,-112
0,2023-03-01T18:49:53.240942,1582756,235,583,1619,-898,-615,-128,46,264,-112
0,2023-03-01T18:49:53.245864,1582761,201,546,1631,-856,-630,-60,46,264,-112
0,2023-03-01T18:49:53.251201,1582768,201,546,1631,-856,-630,-60,46,264,-112
0,2023-03-01T18:49:53.256389,1582773,201,546,1631,-856,-630,-60,46,264,-112
0,2023-03-01T18:49:53.261226,1582778,201,546,1631,-856,-630,-60,46,264,-112
0,2023-03-01T18:49:53.265960,1582782,247,603,1632,-915,-599,-141,46,264,-112
0,2023-03-01T18:49:53.271352,1582787,247,603,1632,-915,-599,-141,46,264,-112
