imu,server_time,arduino_time,ax,ay,az,gx,gy,gz,mx,my,mz
0,2023-03-01T18:50:38.997502,1628516,1114,1870,294,-784,-497,-250,-61,177,-249
0,2023-03-01T18:50:39.004174,1628523,1114,1870,294,-784,-497,-250,-61,177,-249
0,2023-03-01T18:50:39.010474,1628529,1114,1870,294,-784,-497,-250,-61,177,-249
0,2023-03-01T18:50:39.015809,1628534,1114,1870,294,-784,-497,-250,-61,177,-249
0,2023-03-01T18:50:39.020534,1628539,1112,1873,288,-803,-497,-246,-61,177,-249
0,2023-03-01T18:50:39.026438,1628545,1112,1873,288,-803,-497,-246,-61,177,-249
0,2023-03-01T18:50:39.032224,1628551,1112,1873,288,-803,-497,-246,-61,177,-249
0,2023-03-01T18:50:39.037452,1628556,1112,1873,288,-803,-497,-246,-61,177,-249
0,2023-03-01T18:50:39.042114,1628561,1109,1870,285,-792,-496,-244,-61,177,-249
0,2023-03-01T18:50:39.047896,1628566,1109,1870,285,-792,-496,-244,-61,177,-249
0,2023-03-01T18:50:39.054269,1628572,1109,1870,285,-792,-496,-244,-61,177,-249
0,2023-03-01T18:50:39.059072,1628577,1111,1874,285,-809,-492,-246,-61,177,-249
0,2023-03-01T18:50:39.064525,1628583,1111,1874,285,-809,-492,-246,-61,177,-249
0,2023-03-01T18:50:39.070581,1628590,1111,1874,285,-809,-492,-246,-61,177,-249
0,2023-03-01T18:50:39.075558,1628594,1111,1874,285,-809,-492,-246,-61,177,-249
0,2023-03-01T18:50:39.080443,1628599,1115,1872,290,-798,-498,-250,-61,177,-249
0,2023-03-01T18:50:39.086120,1628605,1115,1872,290,-798,-498,-250,-61,177,-249
0,2023-03-01T18:50:39.092536,1628611,1115,1872,290,-798,-498,-250,-61,177,-249
0,2023-03-01T18:50:39.097418,1628616,1115,1872,290,-798,-498,-250,-61,177,-249
0,2023-03-01T18:50:39.102695,1628621,1114,1873,283,-799,-514,-250,-57,179,-245
0,2023-03-01T18:50:39.107906,1628626,1114,1873,283,-799,-514,-250,-57,179,-245
0,2023-03-01T18:50:39.113539,1628632,1114,1873,283,-799,-514,-250,-57,179,-245
0,2023-03-01T18:50:39.118331,1628637,1113,1877,288,-801,-496,-246,-57,179,-245
0,2023-03-01T18:50:39.123739,1628642,1113,1877,288,-801,-496,-246,-57,179,-245
0,2023-03-01T18:50:39.129253,1628648,1113,1877,288,-801,-496,-246,-57,179,-245
0,2023-03-01T18:50:39.134429,1628653,1113,1877,288,-801,-496,-246,-57,179,-245
0,2023-03-01T18:50:39.139533,1628658,1117,1876,279,-795,-509,-244,-57,179,-245
0,2023-03-01T18:50:39.145062,1628663,1117,1876,279,-795,-509,-244,-57,179,-245
0,2023-03-01T18:50:39.151183,1628669,1117,1876,279,-795,-509,-244,-57,179,-245
0,2023-03-01T18:50:39.156297,1628675,1117,1876,279,-795,-509,-244,-57,179,-245
0,2023-03-01T18:50:39.161416,1628680,1115,1874,280,-812,-504,-248,-57,179,-245
0,2023-03-01T18:50:39.166869,1628686,1115,1874,280,-812,-504,-248,-57,179,-245
0,2023-03-01T18:50:39.172452,1628691,1115,1874,280,-812,-504,-248,-57,179,-245
0,2023-03-01T18:50:39.177351,1628696,1115,1874,280,-812,-504,-248,-57,179,-245
0,2023-03-01T18:50:39.182360,1628701,1115,1871,279,-809,-512,-250,-57,179,-245
0,2023-03-01T18:50:39.187826,1628706,1115,1871,279,-809,-512,-250,-57,179,-245
0,2023-03-01T18:50:39.193112,1628711,1115,1871,279,-809,-512,-250,-57,179,-245
0,2023-03-01T18:50:39.198054,1628717,1113,1875,278,-814,-504,-241,-57,179,-245
0,2023-03-01T18:50:39.203593,1628722,1113,1875,278,-814,-504,-241,-57,179,-245
0,2023-03-01T18:50:39.208346,1628727,1113,1875,278,-814,-504,-241,-57,179,-245
0,2023-03-01T18:50:39.213393,1628732,1113,1875,278,-814,-504,-241,-57,179,-245
0,2023-03-01T18:50:39.218609,1628737,1114,1877,278,-814,-508,-251,-57,177,-247
0,2023-03-01T18:50:39.223971,1628742,1114,1877,278,-814,-508,-251,-57,177,-247
0,2023-03-01T18:50:39.229846,1628748,1114,1877,278,-814,-508,-251,-57,177,-247
0,2023-03-01T18:50:39.234797,1628753,1114,1877,278,-814,-508,-251,-57,177,-247
0,2023-03-01T18:50:39.239679,1628759,1115,1874,282,-802,-509,-247,-57,177,-247
0,2023-03-01T18:50:39.245361,1628764,1115,1874,282,-802,-509,-247,-57,177,-247
0,2023-03-01T18:50:39.250620,1628770,1115,1874,282,-802,-509,-247,-57,177,-247
0,2023-03-01T18:50:39.255311,1628774,1115,1874,282,-802,-509,-247,-57,177,-247
0,2023-03-01T18:50:39.259921,1628778,1118,1874,278,-805,-496,-248,-57,177,-247
0,2023-03-01T18:50:39.265203,1628784,1118,1874,278,-805,-496,-248,-57,177,-247
0,2023-03-01T18:50:39.270474,1628789,1118,1874,278,-805,-496,-248,-57,177,-247
0,2023-03-01T18:50:39.275206,1628793,1118,1874,278,-805,-496,-248,-57,177,-247
0,2023-03-01T18:50:39.279833,1628798,1115,1880,275,-800,-511,-249,-57,177,-247
0,2023-03-01T18:50:39.285267,1628804,1115,1880,275,-800,-511,-249,-57,177,-247
0,2023-03-01T18:50:39.290060,1628809,1115,1880,275,-800,-511,-249,-57,177,-247
0,2023-03-01T18:50:39.295045,1628814,1115,1880,275,-800,-511,-249,-57,177,-247
0,2023-03-01T18:50:39.299887,1628818,1119,1874,269,-796,-503,-244,-57,177,-247
0,2023-03-01T18:50:39.306803,1628825,1119,1874,269,-796,-503,-244,-57,177,-247
0,2023-03-01T18:50:39.311661,1628830,1119,1874,269,-796,-503,-244,-57,177,-247
0,2023-03-01T18:50:39.316437,1628835,1119,1874,269,-796,-503,-244,-57,177,-247
0,2023-03-01T18:50:39.321182,1628839,1116,1877,267,-812,-511,-246,-57,177,-247
0,2023-03-01T18:50:39.326889,1628846,1116,1877,267,-812,-511,-246,-57,177,-247
0,2023-03-01T18:50:39.333146,1628852,1116,1877,267,-812,-511,-246,-57,177,-247
0,2023-03-01T18:50:39.337849,1628857,1116,1877,267,-812,-511,-246,-57,177,-247
0,2023-03-01T18:50:39.342472,1628861,1116,1873,271,-800,-506,-245,-56,176,-244
0,2023-03-01T18:50:39.348845,1628866,1116,1873,271,-800,-506,-245,-56,176,-244
0,2023-03-01T18:50:39.354015,1628873,1116,1873,271,-800,-506,-245,-56,176,-244
0,2023-03-01T18:50:39.358658,1628877,1118,1880,282,-810,-504,-252,-56,176,-244
0,2023-03-01T18:50:39.363947,1628882,1118,1880,282,-810,-504,-252,-56,176,-244
0,2023-03-01T18:50:39.369424,1628889,1118,1880,282,-810,-504,-252,-56,176,-244
0,2023-03-01T18:50:39.374046,1628893,1118,1880,282,-810,-504,-252,-56,176,-244
0,2023-03-01T18:50:39.378878,1628897,1118,1876,275,-799,-512,-251,-56,176,-244
0,2023-03-01T18:50:39.384268,1628903,1118,1876,275,-799,-512,-251,-56,176,-244
0,2023-03-01T18:50:39.390149,1628909,1118,1876,275,-799,-512,-251,-56,176,-244
0,2023-03-01T18:50:39.394845,1628913,1118,1876,275,-799,-512,-251,-56,176,-244
0,2023-03-01T18:50:39.399547,1628918,1119,1879,270,-803,-503,-249,-56,176,-244
0,2023-03-01T18:50:39.404586,1628923,1119,1879,270,-803,-503,-249,-56,176,-244
0,2023-03-01T18:50:39.410840,1628930,1119,1879,270,-803,-503,-249,-56,176,-244
0,2023-03-01T18:50:39.416119,1628935,1119,1879,270,-803,-503,-249,-56,176,-244
0,2023-03-01T18:50:39.421009,1628940,1119,1876,264,-795,-507,-245,-56,176,-244
0,2023-03-01T18:50:39.426785,1628945,1119,1876,264,-795,-507,-245,-56,176,-244
0,2023-03-01T18:50:39.432539,1628951,1119,1876,264,-795,-507,-245,-56,176,-244
0,2023-03-01T18:50:39.437052,1628956,1119,1876,264,-795,-507,-245,-56,176,-244
0,2023-03-01T18:50:39.441851,1628960,1120,1872,267,-796,-505,-245,-56,176,-244
0,2023-03-01T18:50:39.447505,1628966,1120,1872,267,-796,-505,-245,-56,176,-244
0,2023-03-01T18:50:39.453283,1628972,1120,1872,267,-796,-505,-245,-56,176,-244
0,2023-03-01T18:50:39.457844,1628977,1120,1872,267,-796,-505,-245,-56,176,-244
0,2023-03-01T18:50:39.462672,1628981,1119,1880,268,-803,-514,-253,-56,176,-244
0,2023-03-01T18:50:39.468108,1628987,1119,1880,268,-803,-514,-253,-56,176,-244
0,2023-03-01T18:50:39.473633,1628992,1119,1880,268,-803,-514,-253,-56,176,-244
0,2023-03-01T18:50:39.478607,1628997,1118,1879,273,-804,-510,-258,-60,182,-250
0,2023-03-01T18:50:39.483678,1629002,1118,1879,273,-804,-510,-258,-60,182,-250
0,2023-03-01T18:50:39.489478,1629008,1118,1879,273,-804,-510,-258,-60,182,-250
0,2023-03-01T18:50:39.494440,1629012,1118,1879,273,-804,-510,-258,-60,182,-250
0,2023-03-01T18:50:39.499106,1629018,1120,1879,264,-819,-514,-254,-60,182,-250
0,2023-03-01T18:50:39.504700,1629024,1120,1879,264,-819,-514,-254,-60,182,-250
0,2023-03-01T18:50:39.510160,1629029,1120,1879,264,-819,-514,-254,-60,182,-250
0,2023-03-01T18:50:39.514690,1629033,1120,1879,264,-819,-514,-254,-60,182,-250
0,2023-03-01T18:50:39.519478,1629038,1119,1876,264,-790,-511,-247,-60,182,-250
0,2023-03-01T18:50:39.526346,1629045,1119,1876,264,-790,-511,-247,-60,182,-250
0,2023-03-01T18:50:39.532191,1629050,1119,1876,264,-790,-511,-247,-60,182,-250
0,2023-03-01T18:50:39.537059,1629056,1119,1876,264,-790,-511,-247,-60,182,-250
0,2023-03-01T18:50:39.542175,1629061,1122,1881,263,-803,-501,-250,-60,182,-250
0,2023-03-01T18:50:39.547131,1629066,1122,1881,263,-803,-501,-250,-60,182,-250
0,2023-03-01T18:50:39.552896,1629072,1122,1881,263,-803,-501,-250,-60,182,-250
0,2023-03-01T18:50:39.557670,1629076,1122,1881,263,-803,-501,-250,-60,182,-250
0,2023-03-01T18:50:39.562444,1629081,1117,1880,261,-797,-513,-245,-60,182,-250
0,2023-03-01T18:50:39.568009,1629086,1117,1880,261,-797,-513,-245,-60,182,-250
0,2023-03-01T18:50:39.573863,1629092,1117,1880,261,-797,-513,-245,-60,182,-250
0,2023-03-01T18:50:39.578773,1629097,1118,1877,256,-793,-496,-249,-60,182,-250
0,2023-03-01T18:50:39.584231,1629103,1118,1877,256,-793,-496,-249,-60,182,-250
0,2023-03-01T18:50:39.590306,1629109,1118,1877,256,-793,-496,-249,-60,182,-250
0,2023-03-01T18:50:39.595203,1629114,1118,1877,256,-793,-496,-249,-60,182,-250
0,2023-03-01T18:50:39.599705,1629119,1117,1880,259,-798,-500,-254,-56,170,-244
0,2023-03-01T18:50:39.604985,1629123,1117,1880,259,-798,-500,-254,-56,170,-244
0,2023-03-01T18:50:39.610933,1629129,1117,1880,259,-798,-500,-254,-56,170,-244
0,2023-03-01T18:50:39.615889,1629134,1117,1880,259,-798,-500,-254,-56,170,-244
0,2023-03-01T18:50:39.621173,1629139,1120,1880,254,-814,-512,-252,-56,170,-244
0,2023-03-01T18:50:39.626483,1629145,1120,1880,254,-814,-512,-252,-56,170,-244
0,2023-03-01T18:50:39.634229,1629153,1120,1880,254,-814,-512,-252,-56,170,-244
0,2023-03-01T18:50:39.639172,1629158,1119,1883,259,-814,-509,-252,-56,170,-244
0,2023-03-01T18:50:39.644546,1629163,1119,1883,259,-814,-509,-252,-56,170,-244
0,2023-03-01T18:50:39.650677,1629169,1119,1883,259,-814,-509,-252,-56,170,-244
0,2023-03-01T18:50:39.655805,1629174,1119,1883,259,-814,-509,-252,-56,170,-244
0,2023-03-01T18:50:39.660542,1629179,1117,1876,256,-801,-510,-240,-56,170,-244
0,2023-03-01T18:50:39.665621,1629185,1117,1876,256,-801,-510,-240,-56,170,-244
0,2023-03-01T18:50:39.671701,1629191,1117,1876,256,-801,-510,-240,-56,170,-244
0,2023-03-01T18:50:39.676515,1629196,1117,1876,256,-801,-510,-240,-56,170,-244
0,2023-03-01T18:50:39.681464,1629200,1117,1876,256,-801,-510,-240,-56,170,-244
0,2023-03-01T18:50:39.686496,1629205,1117,1876,256,-801,-510,-240,-56,170,-244
0,2023-03-01T18:50:39.691673,1629210,1117,1876,256,-801,-510,-240,-56,170,-244
0,2023-03-01T18:50:39.696753,1629215,1117,1876,256,-801,-510,-240,-56,170,-244
0,2023-03-01T18:50:39.701756,1629220,1117,1881,257,-796,-500,-261,-56,170,-244
0,2023-03-01T18:50:39.707116,1629225,1117,1881,257,-796,-500,-261,-56,170,-244
0,2023-03-01T18:50:39.712932,1629232,1117,1881,257,-796,-500,-261,-56,170,-244
0,2023-03-01T18:50:39.718700,1629237,1117,1881,257,-796,-500,-261,-56,170,-244
0,2023-03-01T18:50:39.723822,1629243,1119,1880,253,-805,-500,-249,-56,170,-244
0,2023-03-01T18:50:39.731324,1629250,1119,1880,253,-805,-500,-249,-56,170,-244
0,2023-03-01T18:50:39.735886,1629254,1119,1880,253,-805,-500,-249,-56,170,-244
0,2023-03-01T18:50:39.740520,1629259,1119,1880,257,-806,-500,-261,-51,185,-253
0,2023-03-01T18:50:39.746522,1629265,1119,1880,257,-806,-500,-261,-51,185,-253
0,2023-03-01T18:50:39.753046,1629272,1119,1880,257,-806,-500,-261,-51,185,-253
0,2023-03-01T18:50:39.757680,1629277,1119,1880,257,-806,-500,-261,-51,185,-253
0,2023-03-01T18:50:39.762465,1629281,1123,1882,256,-803,-508,-246,-51,185,-253
0,2023-03-01T18:50:39.767810,1629287,1123,1882,256,-803,-508,-246,-51,185,-253
0,2023-03-01T18:50:39.774389,1629293,1123,1882,256,-803,-508,-246,-51,185,-253
0,2023-03-01T18:50:39.779469,1629298,1122,1886,254,-812,-507,-254,-51,185,-253
0,2023-03-01T18:50:39.785732,1629304,1122,1886,254,-812,-507,-254,-51,185,-253
0,2023-03-01T18:50:39.791434,1629310,1122,1886,254,-812,-507,-254,-51,185,-253
0,2023-03-01T18:50:39.796264,1629315,1122,1886,254,-812,-507,-254,-51,185,-253
0,2023-03-01T18:50:39.801340,1629320,1124,1882,247,-816,-514,-249,-51,185,-253
0,2023-03-01T18:50:39.807610,1629326,1124,1882,247,-816,-514,-249,-51,185,-253
0,2023-03-01T18:50:39.812649,1629331,1124,1882,247,-816,-514,-249,-51,185,-253
0,2023-03-01T18:50:39.817542,1629336,1124,1882,247,-816,-514,-249,-51,185,-253
0,2023-03-01T18:50:39.822230,1629341,1123,1882,253,-819,-495,-246,-51,185,-253
0,2023-03-01T18:50:39.827634,1629346,1123,1882,253,-819,-495,-246,-51,185,-253
0,2023-03-01T18:50:39.832915,1629351,1123,1882,253,-819,-495,-246,-51,185,-253
0,2023-03-01T18:50:39.837716,1629357,1123,1882,253,-819,-495,-246,-51,185,-253
0,2023-03-01T18:50:39.842431,1629362,1125,1881,244,-805,-517,-254,-51,185,-253
0,2023-03-01T18:50:39.847660,1629367,1125,1881,244,-805,-517,-254,-51,185,-253
0,2023-03-01T18:50:39.854049,1629373,1125,1881,244,-805,-517,-254,-51,185,-253
0,2023-03-01T18:50:39.858959,1629377,1125,1882,246,-806,-513,-250,-51,185,-253
0,2023-03-01T18:50:39.864737,1629383,1125,1882,246,-806,-513,-250,-55,173,-255
0,2023-03-01T18:50:39.870628,1629389,1125,1882,246,-806,-513,-250,-55,173,-255
0,2023-03-01T18:50:39.875199,1629394,1125,1882,246,-806,-513,-250,-55,173,-255
0,2023-03-01T18:50:39.880350,1629399,1121,1879,247,-815,-512,-257,-55,173,-255
0,2023-03-01T18:50:39.885944,1629405,1121,1879,247,-815,-512,-257,-55,173,-255
0,2023-03-01T18:50:39.891823,1629411,1121,1879,247,-815,-512,-257,-55,173,-255
0,2023-03-01T18:50:39.896813,1629415,1121,1879,247,-815,-512,-257,-55,173,-255
0,2023-03-01T18:50:39.901458,1629420,1123,1884,241,-815,-507,-249,-55,173,-255
0,2023-03-01T18:50:39.906845,1629425,1123,1884,241,-815,-507,-249,-55,173,-255
0,2023-03-01T18:50:39.911451,1629430,1123,1884,241,-815,-507,-249,-55,173,-255
0,2023-03-01T18:50:39.916175,1629434,1123,1884,241,-815,-507,-249,-55,173,-255
0,2023-03-01T18:50:39.921506,1629440,1126,1884,248,-815,-500,-254,-55,173,-255
0,2023-03-01T18:50:39.926786,1629446,1126,1884,248,-815,-500,-254,-55,173,-255
0,2023-03-01T18:50:39.932318,1629451,1126,1884,248,-815,-500,-254,-55,173,-255
0,2023-03-01T18:50:39.937253,1629456,1126,1884,248,-815,-500,-254,-55,173,-255
0,2023-03-01T18:50:39.942069,1629461,1122,1884,242,-820,-516,-253,-55,173,-255
0,2023-03-01T18:50:39.947957,1629466,1122,1884,242,-820,-516,-253,-55,173,-255
0,2023-03-01T18:50:39.954871,1629473,1122,1884,242,-820,-516,-253,-55,173,-255
0,2023-03-01T18:50:39.960403,1629479,1124,1881,245,-818,-510,-250,-55,173,-255
0,2023-03-01T18:50:39.965508,1629485,1124,1881,245,-818,-510,-250,-55,173,-255
0,2023-03-01T18:50:39.970848,1629490,1124,1881,245,-818,-510,-250,-55,173,-255
0,2023-03-01T18:50:39.975523,1629494,1124,1881,245,-818,-510,-250,-55,173,-255
0,2023-03-01T18:50:39.980629,1629499,1125,1884,240,-819,-519,-252,-55,173,-255
0,2023-03-01T18:50:39.986283,1629505,1125,1884,240,-819,-519,-252,-55,173,-255
0,2023-03-01T18:50:39.992697,1629511,1125,1884,240,-819,-519,-252,-55,173,-255
0,2023-03-01T18:50:39.997605,1629516,1125,1884,240,-819,-519,-252,-55,173,-255
0,2023-03-01T18:50:40.002771,1629521,1124,1884,244,-814,-514,-255,-55,171,-251
0,2023-03-01T18:50:40.008367,1629527,1124,1884,244,-814,-514,-255,-55,171,-251
0,2023-03-01T18:50:40.014260,1629533,1124,1884,244,-814,-514,-255,-55,171,-251
0,2023-03-01T18:50:40.019015,1629538,1124,1885,244,-821,-515,-264,-55,171,-251
0,2023-03-01T18:50:40.024412,1629543,1124,1885,244,-821,-515,-264,-55,171,-251
0,2023-03-01T18:50:40.030210,1629549,1124,1885,244,-821,-515,-264,-55,171,-251
0,2023-03-01T18:50:40.034897,1629553,1124,1885,244,-821,-515,-264,-55,171,-251
0,2023-03-01T18:50:40.039817,1629558,1121,1884,234,-818,-519,-249,-55,171,-251
0,2023-03-01T18:50:40.045433,1629564,1121,1884,234,-818,-519,-249,-55,171,-251
0,2023-03-01T18:50:40.050985,1629570,1121,1884,234,-818,-519,-249,-55,171,-251
0,2023-03-01T18:50:40.056129,1629575,1121,1884,234,-818,-519,-249,-55,171,-251
0,2023-03-01T18:50:40.061128,1629580,1127,1885,240,-814,-501,-252,-55,171,-251
0,2023-03-01T18:50:40.066236,1629585,1127,1885,240,-814,-501,-252,-55,171,-251
0,2023-03-01T18:50:40.072952,1629592,1127,1885,240,-814,-501,-252,-55,171,-251
0,2023-03-01T18:50:40.077927,1629596,1127,1885,240,-814,-501,-252,-55,171,-251
0,2023-03-01T18:50:40.082578,1629601,1123,1884,238,-812,-518,-260,-55,171,-251
0,2023-03-01T18:50:40.088626,1629606,1123,1884,238,-812,-518,-260,-55,171,-251
0,2023-03-01T18:50:40.094253,1629613,1123,1884,238,-812,-518,-260,-55,171,-251
0,2023-03-01T18:50:40.099100,1629618,1123,1884,238,-812,-518,-260,-55,171,-251
0,2023-03-01T18:50:40.103780,1629623,1123,1885,237,-807,-510,-254,-55,171,-251
0,2023-03-01T18:50:40.109338,1629628,1123,1885,237,-807,-510,-254,-55,171,-251
0,2023-03-01T18:50:40.114415,1629633,1123,1885,237,-807,-510,-254,-55,171,-251
0,2023-03-01T18:50:40.119043,1629638,1125,1887,244,-808,-513,-260,-55,171,-251
0,2023-03-01T18:50:40.124205,1629643,1125,1887,244,-808,-513,-260,-50,172,-250
0,2023-03-01T18:50:40.129692,1629648,1125,1887,244,-808,-513,-260,-50,172,-250
0,2023-03-01T18:50:40.134263,1629654,1125,1887,244,-808,-513,-260,-50,172,-250
0,2023-03-01T18:50:40.139183,1629658,1125,1887,244,-808,-513,-260,-50,172,-250
0,2023-03-01T18:50:40.144134,1629663,1127,1882,243,-801,-510,-253,-50,172,-250
0,2023-03-01T18:50:40.150629,1629669,1127,1882,243,-801,-510,-253,-50,172,-250
0,2023-03-01T18:50:40.156355,1629675,1127,1882,243,-801,-510,-253,-50,172,-250
0,2023-03-01T18:50:40.161476,1629680,1128,1889,235,-820,-518,-259,-50,172,-250
0,2023-03-01T18:50:40.167102,1629685,1128,1889,235,-820,-518,-259,-50,172,-250
0,2023-03-01T18:50:40.173805,1629692,1128,1889,235,-820,-518,-259,-50,172,-250
0,2023-03-01T18:50:40.179544,1629698,1126,1888,235,-797,-529,-252,-50,172,-250
0,2023-03-01T18:50:40.185033,1629704,1126,1888,235,-797,-529,-252,-50,172,-250
0,2023-03-01T18:50:40.190964,1629710,1126,1888,235,-797,-529,-252,-50,172,-250
0,2023-03-01T18:50:40.196376,1629715,1126,1888,235,-797,-529,-252,-50,172,-250
0,2023-03-01T18:50:40.201217,1629720,1128,1887,228,-824,-518,-257,-50,172,-250
0,2023-03-01T18:50:40.206865,1629725,1128,1887,228,-824,-518,-257,-50,172,-250
0,2023-03-01T18:50:40.213460,1629732,1128,1887,228,-824,-518,-257,-50,172,-250
0,2023-03-01T18:50:40.218285,1629737,1128,1887,228,-824,-518,-257,-50,172,-250
0,2023-03-01T18:50:40.223382,1629742,1124,1886,233,-816,-513,-267,-50,172,-250
0,2023-03-01T18:50:40.228908,1629748,1124,1886,233,-816,-513,-267,-50,172,-250
0,2023-03-01T18:50:40.234796,1629753,1124,1886,233,-816,-513,-267,-50,172,-250
0,2023-03-01T18:50:40.239918,1629758,1127,1886,230,-825,-514,-258,-57,171,-259
0,2023-03-01T18:50:40.245598,1629764,1127,1886,230,-825,-514,-258,-57,171,-259
0,2023-03-01T18:50:40.250983,1629769,1127,1886,230,-825,-514,-258,-57,171,-259
0,2023-03-01T18:50:40.256147,1629774,1127,1886,230,-825,-514,-258,-57,171,-259
0,2023-03-01T18:50:40.261452,1629779,1128,1889,236,-813,-502,-263,-57,171,-259
0,2023-03-01T18:50:40.267688,1629786,1128,1889,236,-813,-502,-263,-57,171,-259
0,2023-03-01T18:50:40.273937,1629793,1128,1889,236,-813,-502,-263,-57,171,-259
0,2023-03-01T18:50:40.279063,1629798,1128,1889,236,-813,-502,-263,-57,171,-259
0,2023-03-01T18:50:40.284342,1629803,1124,1890,228,-800,-515,-257,-57,171,-259
0,2023-03-01T18:50:40.290346,1629809,1124,1890,228,-800,-515,-257,-57,171,-259
0,2023-03-01T18:50:40.295213,1629814,1124,1890,228,-800,-515,-257,-57,171,-259
0,2023-03-01T18:50:40.300109,1629818,1129,1889,232,-810,-502,-258,-57,171,-259
0,2023-03-01T18:50:40.305464,1629825,1129,1889,232,-810,-502,-258,-57,171,-259
0,2023-03-01T18:50:40.311055,1629830,1129,1889,232,-810,-502,-258,-57,171,-259
0,2023-03-01T18:50:40.316720,1629836,1129,1889,232,-810,-502,-258,-57,171,-259
0,2023-03-01T18:50:40.321572,1629840,1129,1888,225,-805,-509,-262,-57,171,-259
0,2023-03-01T18:50:40.327175,1629846,1129,1888,225,-805,-509,-262,-57,171,-259
0,2023-03-01T18:50:40.333012,1629851,1129,1888,225,-805,-509,-262,-57,171,-259
0,2023-03-01T18:50:40.338185,1629856,1129,1888,225,-805,-509,-262,-57,171,-259
0,2023-03-01T18:50:40.343064,1629861,1129,1888,225,-805,-509,-262,-57,171,-259
0,2023-03-01T18:50:40.348020,1629867,1129,1888,225,-805,-509,-262,-57,171,-259
0,2023-03-01T18:50:40.353743,1629873,1129,1888,225,-805,-509,-262,-57,171,-259
0,2023-03-01T18:50:40.358317,1629877,1129,1888,225,-805,-509,-262,-57,171,-259
0,2023-03-01T18:50:40.363052,1629882,1128,1887,223,-803,-507,-257,-57,171,-259
0,2023-03-01T18:50:40.368507,1629887,1128,1887,223,-803,-507,-257,-57,171,-259
0,2023-03-01T18:50:40.374027,1629892,1128,1887,223,-803,-507,-257,-57,171,-259
0,2023-03-01T18:50:40.378995,1629897,1128,1887,223,-803,-507,-257,-57,171,-259
0,2023-03-01T18:50:40.383781,1629902,1127,1887,228,-808,-504,-259,-64,174,-256
0,2023-03-01T18:50:40.389639,1629908,1127,1887,228,-808,-504,-259,-64,174,-256
0,2023-03-01T18:50:40.394289,1629913,1127,1887,228,-808,-504,-259,-64,174,-256
0,2023-03-01T18:50:40.398988,1629918,1127,1887,228,-808,-504,-259,-64,174,-256
0,2023-03-01T18:50:40.403983,1629923,1127,1888,233,-800,-503,-257,-64,174,-256
0,2023-03-01T18:50:40.410110,1629929,1127,1888,233,-800,-503,-257,-64,174,-256
0,2023-03-01T18:50:40.414968,1629933,1127,1888,233,-800,-503,-257,-64,174,-256
0,2023-03-01T18:50:40.419648,1629938,1131,1889,226,-798,-516,-257,-64,174,-256
0,2023-03-01T18:50:40.424900,1629943,1131,1889,226,-798,-516,-257,-64,174,-256
0,2023-03-01T18:50:40.430827,1629949,1131,1889,226,-798,-516,-257,-64,174,-256
0,2023-03-01T18:50:40.435955,1629955,1131,1889,226,-798,-516,-257,-64,174,-256
0,2023-03-01T18:50:40.440584,1629960,1132,1891,226,-808,-500,-260,-64,174,-256
0,2023-03-01T18:50:40.446007,1629965,1132,1891,226,-808,-500,-260,-64,174,-256
0,2023-03-01T18:50:40.453484,1629972,1132,1891,226,-808,-500,-260,-64,174,-256
0,2023-03-01T18:50:40.458182,1629977,1132,1891,226,-808,-500,-260,-64,174,-256
0,2023-03-01T18:50:40.463060,1629981,1133,1886,215,-811,-521,-257,-64,174,-256
0,2023-03-01T18:50:40.468459,1629987,1133,1886,215,-811,-521,-257,-64,174,-256
0,2023-03-01T18:50:40.473294,1629991,1133,1886,215,-811,-521,-257,-64,174,-256
0,2023-03-01T18:50:40.478456,1629997,1133,1886,215,-811,-521,-257,-64,174,-256
0,2023-03-01T18:50:40.483224,1630002,1129,1886,219,-818,-511,-252,-64,174,-256
0,2023-03-01T18:50:40.488778,1630008,1129,1886,219,-818,-511,-252,-64,174,-256
0,2023-03-01T18:50:40.494952,1630014,1129,1886,219,-818,-511,-252,-64,174,-256
0,2023-03-01T18:50:40.499901,1630018,1128,1887,218,-824,-519,-260,-63,171,-251
0,2023-03-01T18:50:40.505482,1630024,1128,1887,218,-824,-519,-260,-63,171,-251
0,2023-03-01T18:50:40.511598,1630030,1128,1887,218,-824,-519,-260,-63,171,-251
0,2023-03-01T18:50:40.516394,1630035,1128,1887,218,-824,-519,-260,-63,171,-251
0,2023-03-01T18:50:40.521213,1630040,1129,1891,221,-822,-516,-256,-63,171,-251
0,2023-03-01T18:50:40.526788,1630046,1129,1891,221,-822,-516,-256,-63,171,-251
0,2023-03-01T18:50:40.532452,1630051,1129,1891,221,-822,-516,-256,-63,171,-251
0,2023-03-01T18:50:40.537864,1630056,1129,1891,221,-822,-516,-256,-63,171,-251
0,2023-03-01T18:50:40.542686,1630061,1128,1889,226,-811,-503,-257,-63,171,-251
0,2023-03-01T18:50:40.548292,1630067,1128,1889,226,-811,-503,-257,-63,171,-251
0,2023-03-01T18:50:40.554411,1630073,1128,1889,226,-811,-503,-257,-63,171,-251
0,2023-03-01T18:50:40.559137,1630077,1128,1889,226,-811,-503,-257,-63,171,-251
0,2023-03-01T18:50:40.563923,1630083,1133,1892,220,-801,-513,-252,-63,171,-251
0,2023-03-01T18:50:40.569673,1630089,1133,1892,220,-801,-513,-252,-63,171,-251
0,2023-03-01T18:50:40.574580,1630093,1133,1892,220,-801,-513,-252,-63,171,-251
0,2023-03-01T18:50:40.579598,1630098,1130,1890,216,-803,-503,-253,-63,171,-251
0,2023-03-01T18:50:40.584858,1630104,1130,1890,216,-803,-503,-253,-63,171,-251
0,2023-03-01T18:50:40.590484,1630109,1130,1890,216,-803,-503,-253,-63,171,-251
0,2023-03-01T18:50:40.595399,1630114,1130,1890,216,-803,-503,-253,-63,171,-251
0,2023-03-01T18:50:40.600646,1630119,1129,1888,211,-801,-516,-254,-63,171,-251
0,2023-03-01T18:50:40.606311,1630125,1129,1888,211,-801,-516,-254,-63,171,-251
0,2023-03-01T18:50:40.611954,1630131,1129,1888,211,-801,-516,-254,-63,171,-251
0,2023-03-01T18:50:40.616923,1630136,1129,1888,211,-801,-516,-254,-63,171,-251
0,2023-03-01T18:50:40.621707,1630140,1128,1889,214,-818,-510,-255,-63,171,-251
0,2023-03-01T18:50:40.626892,1630146,1128,1889,214,-818,-510,-255,-63,171,-251
0,2023-03-01T18:50:40.632242,1630151,1128,1889,214,-818,-510,-255,-63,171,-251
0,2023-03-01T18:50:40.637139,1630156,1128,1889,214,-818,-510,-255,-63,171,-251
0,2023-03-01T18:50:40.641814,1630160,1131,1890,212,-823,-510,-259,-44,174,-248
0,2023-03-01T18:50:40.647281,1630166,1131,1890,212,-823,-510,-259,-44,174,-248
0,2023-03-01T18:50:40.652503,1630172,1131,1890,212,-823,-510,-259,-44,174,-248
0,2023-03-01T18:50:40.657921,1630177,1131,1890,212,-823,-510,-259,-44,174,-248
0,2023-03-01T18:50:40.662677,1630181,1130,1894,211,-808,-509,-249,-44,174,-248
0,2023-03-01T18:50:40.668442,1630187,1130,1894,211,-808,-509,-249,-44,174,-248
0,2023-03-01T18:50:40.674446,1630193,1130,1894,211,-808,-509,-249,-44,174,-248
0,2023-03-01T18:50:40.679623,1630198,1130,1894,211,-808,-509,-249,-44,174,-248
0,2023-03-01T18:50:40.684672,1630203,1131,1894,213,-821,-505,-253,-44,174,-248
0,2023-03-01T18:50:40.691084,1630210,1131,1894,213,-821,-505,-253,-44,174,-248
0,2023-03-01T18:50:40.696076,1630215,1131,1894,213,-821,-505,-253,-44,174,-248
0,2023-03-01T18:50:40.700622,1630220,1135,1890,214,-799,-503,-257,-44,174,-248
0,2023-03-01T18:50:40.706163,1630225,1135,1890,214,-799,-503,-257,-44,174,-248
0,2023-03-01T18:50:40.712817,1630231,1135,1890,214,-799,-503,-257,-44,174,-248
0,2023-03-01T18:50:40.717975,1630236,1135,1890,214,-799,-503,-257,-44,174,-248
0,2023-03-01T18:50:40.723445,1630241,1133,1890,203,-789,-501,-251,-44,174,-248
0,2023-03-01T18:50:40.730010,1630248,1133,1890,203,-789,-501,-251,-44,174,-248
0,2023-03-01T18:50:40.736637,1630256,1133,1890,203,-789,-501,-251,-44,174,-248
0,2023-03-01T18:50:40.741512,1630260,1135,1893,206,-808,-511,-256,-44,174,-248
0,2023-03-01T18:50:40.747483,1630266,1135,1893,206,-808,-511,-256,-44,174,-248
0,2023-03-01T18:50:40.753754,1630272,1135,1893,206,-808,-511,-256,-44,174,-248
0,2023-03-01T18:50:40.758823,1630277,1135,1893,206,-808,-511,-256,-44,174,-248
0,2023-03-01T18:50:40.763818,1630282,1129,1891,211,-802,-506,-260,-61,179,-255
0,2023-03-01T18:50:40.769651,1630288,1129,1891,211,-802,-506,-260,-61,179,-255
0,2023-03-01T18:50:40.774141,1630292,1129,1891,211,-802,-506,-260,-61,179,-255
0,2023-03-01T18:50:40.778977,1630298,1129,1891,211,-802,-506,-260,-61,179,-255
0,2023-03-01T18:50:40.783914,1630303,1132,1895,207,-816,-513,-270,-61,179,-255
0,2023-03-01T18:50:40.789513,1630308,1132,1895,207,-816,-513,-270,-61,179,-255
0,2023-03-01T18:50:40.795840,1630315,1132,1895,207,-816,-513,-270,-61,179,-255
0,2023-03-01T18:50:40.800542,1630319,1127,1890,208,-804,-514,-261,-61,179,-255
0,2023-03-01T18:50:40.806071,1630325,1127,1890,208,-804,-514,-261,-61,179,-255
0,2023-03-01T18:50:40.812584,1630331,1127,1890,208,-804,-514,-261,-61,179,-255
0,2023-03-01T18:50:40.817404,1630337,1127,1890,208,-804,-514,-261,-61,179,-255
0,2023-03-01T18:50:40.822020,1630341,1133,1893,206,-815,-500,-255,-61,179,-255
0,2023-03-01T18:50:40.827159,1630346,1133,1893,206,-815,-500,-255,-61,179,-255
0,2023-03-01T18:50:40.832881,1630352,1133,1893,206,-815,-500,-255,-61,179,-255
0,2023-03-01T18:50:40.838830,1630357,1133,1893,206,-815,-500,-255,-61,179,-255
0,2023-03-01T18:50:40.843455,1630362,1133,1890,207,-797,-514,-261,-61,179,-255
0,2023-03-01T18:50:40.849001,1630367,1133,1890,207,-797,-514,-261,-61,179,-255
0,2023-03-01T18:50:40.855028,1630373,1133,1890,207,-797,-514,-261,-61,179,-255
0,2023-03-01T18:50:40.859788,1630379,1131,1889,202,-807,-505,-260,-61,179,-255
0,2023-03-01T18:50:40.864324,1630383,1131,1889,202,-807,-505,-260,-61,179,-255
0,2023-03-01T18:50:40.869688,1630389,1131,1889,202,-807,-505,-260,-61,179,-255
0,2023-03-01T18:50:40.874733,1630394,1131,1889,202,-807,-505,-260,-61,179,-255
0,2023-03-01T18:50:40.879416,1630398,1131,1889,202,-807,-505,-260,-61,179,-255
0,2023-03-01T18:50:40.884831,1630403,1135,1896,202,-808,-508,-254,-60,172,-254
0,2023-03-01T18:50:40.890468,1630409,1135,1896,202,-808,-508,-254,-60,172,-254
0,2023-03-01T18:50:40.895350,1630414,1135,1896,202,-808,-508,-254,-60,172,-254
0,2023-03-01T18:50:40.900057,1630418,1134,1892,204,-801,-503,-249,-60,172,-254
0,2023-03-01T18:50:40.905495,1630425,1134,1892,204,-801,-503,-249,-60,172,-254
0,2023-03-01T18:50:40.911810,1630431,1134,1892,204,-801,-503,-249,-60,172,-254
0,2023-03-01T18:50:40.916695,1630435,1134,1892,204,-801,-503,-249,-60,172,-254
0,2023-03-01T18:50:40.921330,1630440,1135,1899,209,-814,-484,-265,-60,172,-254
0,2023-03-01T18:50:40.927056,1630445,1135,1899,209,-814,-484,-265,-60,172,-254
0,2023-03-01T18:50:40.933187,1630452,1135,1899,209,-814,-484,-265,-60,172,-254
0,2023-03-01T18:50:40.938230,1630457,1135,1899,209,-814,-484,-265,-60,172,-254
0,2023-03-01T18:50:40.943104,1630461,1133,1891,196,-805,-503,-257,-60,172,-254
0,2023-03-01T18:50:40.948505,1630468,1133,1891,196,-805,-503,-257,-60,172,-254
0,2023-03-01T18:50:40.954425,1630473,1133,1891,196,-805,-503,-257,-60,172,-254
0,2023-03-01T18:50:40.959231,1630478,1133,1891,196,-805,-503,-257,-60,172,-254
0,2023-03-01T18:50:40.964611,1630483,1135,1897,200,-802,-489,-258,-60,172,-254
0,2023-03-01T18:50:40.970412,1630489,1135,1897,200,-802,-489,-258,-60,172,-254
0,2023-03-01T18:50:40.976436,1630495,1135,1897,200,-802,-489,-258,-60,172,-254
0,2023-03-01T18:50:40.981789,1630500,1133,1894,197,-797,-502,-262,-60,172,-254
0,2023-03-01T18:50:40.987144,1630505,1133,1894,197,-797,-502,-262,-60,172,-254
0,2023-03-01T18:50:40.993536,1630512,1133,1894,197,-797,-502,-262,-60,172,-254
0,2023-03-01T18:50:40.998302,1630517,1133,1894,197,-797,-502,-262,-60,172,-254
0,2023-03-01T18:50:41.003721,1630522,1133,1892,194,-810,-504,-259,-60,172,-254
0,2023-03-01T18:50:41.009100,1630528,1133,1892,194,-810,-504,-259,-60,172,-254
0,2023-03-01T18:50:41.015039,1630534,1133,1892,194,-810,-504,-259,-60,172,-254
0,2023-03-01T18:50:41.019742,1630538,1133,1892,194,-810,-504,-259,-60,172,-254
0,2023-03-01T18:50:41.024381,1630543,1135,1895,203,-804,-512,-261,-52,170,-250
0,2023-03-01T18:50:41.029950,1630548,1135,1895,203,-804,-512,-261,-52,170,-250
0,2023-03-01T18:50:41.034497,1630554,1135,1895,203,-804,-512,-261,-52,170,-250
0,2023-03-01T18:50:41.039296,1630558,1135,1895,203,-804,-512,-261,-52,170,-250
0,2023-03-01T18:50:41.044171,1630563,1133,1895,198,-810,-516,-257,-52,170,-250
0,2023-03-01T18:50:41.049968,1630569,1133,1895,198,-810,-516,-257,-52,170,-250
0,2023-03-01T18:50:41.054570,1630573,1133,1895,198,-810,-516,-257,-52,170,-250
0,2023-03-01T18:50:41.059556,1630578,1133,1895,198,-810,-516,-257,-52,170,-250
0,2023-03-01T18:50:41.064440,1630583,1135,1894,198,-806,-491,-261,-52,170,-250
0,2023-03-01T18:50:41.070440,1630589,1135,1894,198,-806,-491,-261,-52,170,-250
0,2023-03-01T18:50:41.075055,1630594,1135,1894,198,-806,-491,-261,-52,170,-250
0,2023-03-01T18:50:41.079502,1630599,1135,1894,198,-806,-491,-261,-52,170,-250
0,2023-03-01T18:50:41.084380,1630603,1137,1897,189,-800,-507,-260,-52,170,-250
0,2023-03-01T18:50:41.090378,1630609,1137,1897,189,-800,-507,-260,-52,170,-250
0,2023-03-01T18:50:41.096135,1630615,1137,1897,189,-800,-507,-260,-52,170,-250
0,2023-03-01T18:50:41.101135,1630620,1133,1891,192,-807,-499,-257,-52,170,-250
0,2023-03-01T18:50:41.106624,1630625,1133,1891,192,-807,-499,-257,-52,170,-250
0,2023-03-01T18:50:41.112481,1630631,1133,1891,192,-807,-499,-257,-52,170,-250
0,2023-03-01T18:50:41.117783,1630637,1133,1891,192,-807,-499,-257,-52,170,-250
0,2023-03-01T18:50:41.122414,1630642,1133,1893,189,-803,-506,-267,-52,170,-250
0,2023-03-01T18:50:41.127830,1630647,1133,1893,189,-803,-506,-267,-52,170,-250
0,2023-03-01T18:50:41.133533,1630652,1133,1893,189,-803,-506,-267,-52,170,-250
0,2023-03-01T18:50:41.138221,1630657,1133,1893,189,-803,-506,-267,-52,170,-250
0,2023-03-01T18:50:41.143112,1630661,1139,1896,190,-802,-506,-252,-55,175,-247
0,2023-03-01T18:50:41.148860,1630667,1139,1896,190,-802,-506,-252,-55,175,-247
0,2023-03-01T18:50:41.155112,1630673,1139,1896,190,-802,-506,-252,-55,175,-247
0,2023-03-01T18:50:41.160715,1630679,1137,1897,193,-801,-501,-259,-55,175,-247
0,2023-03-01T18:50:41.166669,1630686,1137,1897,193,-801,-501,-259,-55,175,-247
0,2023-03-01T18:50:41.173513,1630692,1137,1897,193,-801,-501,-259,-55,175,-247
0,2023-03-01T18:50:41.178661,1630697,1137,1897,193,-801,-501,-259,-55,175,-247
0,2023-03-01T18:50:41.183454,1630702,1135,1895,192,-805,-506,-258,-55,175,-247
0,2023-03-01T18:50:41.189243,1630707,1135,1895,192,-805,-506,-258,-55,175,-247
0,2023-03-01T18:50:41.194195,1630712,1135,1895,192,-805,-506,-258,-55,175,-247
0,2023-03-01T18:50:41.199383,1630718,1135,1895,192,-805,-506,-258,-55,175,-247
0,2023-03-01T18:50:41.204593,1630723,1137,1897,190,-803,-493,-253,-55,175,-247
0,2023-03-01T18:50:41.211333,1630730,1137,1897,190,-803,-493,-253,-55,175,-247
0,2023-03-01T18:50:41.216836,1630736,1137,1897,190,-803,-493,-253,-55,175,-247
0,2023-03-01T18:50:41.221654,1630740,1137,1895,184,-799,-497,-259,-55,175,-247
0,2023-03-01T18:50:41.227798,1630746,1137,1895,184,-799,-497,-259,-55,175,-247
0,2023-03-01T18:50:41.234329,1630753,1137,1895,184,-799,-497,-259,-55,175,-247
0,2023-03-01T18:50:41.239224,1630758,1137,1895,184,-799,-497,-259,-55,175,-247
0,2023-03-01T18:50:41.244011,1630763,1137,1894,185,-792,-495,-260,-55,175,-247
0,2023-03-01T18:50:41.249768,1630769,1137,1894,185,-792,-495,-260,-55,175,-247
0,2023-03-01T18:50:41.255271,1630774,1137,1894,185,-792,-495,-260,-55,175,-247
0,2023-03-01T18:50:41.260142,1630779,1137,1894,185,-792,-495,-260,-55,175,-247
0,2023-03-01T18:50:41.264781,1630784,1135,1898,188,-796,-500,-259,-55,175,-247
0,2023-03-01T18:50:41.270752,1630789,1135,1898,188,-796,-500,-259,-55,175,-247
0,2023-03-01T18:50:41.276124,1630795,1135,1898,188,-796,-500,-259,-55,175,-247
0,2023-03-01T18:50:41.281011,1630799,1136,1894,190,-788,-507,-262,-57,175,-257
0,2023-03-01T18:50:41.287686,1630806,1136,1894,190,-788,-507,-262,-57,175,-257
0,2023-03-01T18:50:41.292556,1630812,1136,1894,190,-788,-507,-262,-57,175,-257
0,2023-03-01T18:50:41.297352,1630816,1136,1894,190,-788,-507,-262,-57,175,-257
0,2023-03-01T18:50:41.302228,1630821,1138,1902,186,-801,-497,-262,-57,175,-257
0,2023-03-01T18:50:41.307763,1630826,1138,1902,186,-801,-497,-262,-57,175,-257
0,2023-03-01T18:50:41.314126,1630832,1138,1902,186,-801,-497,-262,-57,175,-257
0,2023-03-01T18:50:41.318932,1630837,1138,1902,186,-801,-497,-262,-57,175,-257
0,2023-03-01T18:50:41.323682,1630842,1137,1897,180,-797,-511,-253,-57,175,-257
0,2023-03-01T18:50:41.328978,1630848,1137,1897,180,-797,-511,-253,-57,175,-257
0,2023-03-01T18:50:41.334434,1630853,1137,1897,180,-797,-511,-253,-57,175,-257
0,2023-03-01T18:50:41.339532,1630858,1137,1897,180,-797,-511,-253,-57,175,-257
0,2023-03-01T18:50:41.344671,1630863,1141,1898,182,-818,-499,-255,-57,175,-257
0,2023-03-01T18:50:41.351130,1630870,1141,1898,182,-818,-499,-255,-57,175,-257
0,2023-03-01T18:50:41.355973,1630875,1141,1898,182,-818,-499,-255,-57,175,-257
0,2023-03-01T18:50:41.360561,1630879,1136,1901,174,-812,-510,-253,-57,175,-257
0,2023-03-01T18:50:41.366553,1630885,1136,1901,174,-812,-510,-253,-57,175,-257
0,2023-03-01T18:50:41.372881,1630892,1136,1901,174,-812,-510,-253,-57,175,-257
0,2023-03-01T18:50:41.378310,1630897,1136,1901,174,-812,-510,-253,-57,175,-257
0,2023-03-01T18:50:41.383253,1630902,1137,1897,177,-804,-499,-251,-57,175,-257
0,2023-03-01T18:50:41.388692,1630907,1137,1897,177,-804,-499,-251,-57,175,-257
0,2023-03-01T18:50:41.394948,1630914,1137,1897,177,-804,-499,-251,-57,175,-257
0,2023-03-01T18:50:41.399847,1630918,1137,1897,177,-804,-499,-251,-57,175,-257
0,2023-03-01T18:50:41.404491,1630923,1135,1898,179,-814,-507,-256,-57,177,-257
0,2023-03-01T18:50:41.410264,1630929,1135,1898,179,-814,-507,-256,-57,177,-257
0,2023-03-01T18:50:41.415057,1630934,1135,1898,179,-814,-507,-256,-57,177,-257
0,2023-03-01T18:50:41.420347,1630939,1135,1898,179,-814,-507,-256,-57,177,-257
0,2023-03-01T18:50:41.425159,1630944,1137,1899,179,-794,-503,-255,-57,177,-257
0,2023-03-01T18:50:41.430505,1630949,1137,1899,179,-794,-503,-255,-57,177,-257
0,2023-03-01T18:50:41.435963,1630955,1137,1899,179,-794,-503,-255,-57,177,-257
0,2023-03-01T18:50:41.440603,1630959,1140,1901,183,-802,-486,-260,-57,177,-257
0,2023-03-01T18:50:41.446695,1630965,1140,1901,183,-802,-486,-260,-57,177,-257
0,2023-03-01T18:50:41.452577,1630971,1140,1901,183,-802,-486,-260,-57,177,-257
0,2023-03-01T18:50:41.457522,1630977,1140,1901,183,-802,-486,-260,-57,177,-257
0,2023-03-01T18:50:41.462434,1630982,1138,1900,176,-782,-505,-250,-57,177,-257
0,2023-03-01T18:50:41.467863,1630987,1138,1900,176,-782,-505,-250,-57,177,-257
0,2023-03-01T18:50:41.473213,1630992,1138,1900,176,-782,-505,-250,-57,177,-257
0,2023-03-01T18:50:41.478034,1630997,1138,1900,176,-782,-505,-250,-57,177,-257
0,2023-03-01T18:50:41.482797,1631001,1136,1898,171,-798,-497,-256,-57,177,-257
0,2023-03-01T18:50:41.488539,1631007,1136,1898,171,-798,-497,-256,-57,177,-257
0,2023-03-01T18:50:41.495348,1631014,1136,1898,171,-798,-497,-256,-57,177,-257
0,2023-03-01T18:50:41.499827,1631019,1136,1898,171,-798,-497,-256,-57,177,-257
0,2023-03-01T18:50:41.504446,1631024,1135,1896,174,-791,-501,-255,-57,177,-257
0,2023-03-01T18:50:41.510327,1631029,1135,1896,174,-791,-501,-255,-57,177,-257
0,2023-03-01T18:50:41.516134,1631035,1135,1896,174,-791,-501,-255,-57,177,-257
0,2023-03-01T18:50:41.521174,1631040,1138,1898,167,-802,-505,-247,-57,177,-257
0,2023-03-01T18:50:41.526528,1631045,1138,1898,167,-802,-505,-247,-57,177,-257
0,2023-03-01T18:50:41.533462,1631052,1138,1898,167,-802,-505,-247,-57,177,-257
0,2023-03-01T18:50:41.538486,1631057,1138,1898,167,-802,-505,-247,-57,177,-257
0,2023-03-01T18:50:41.543634,1631063,1139,1900,178,-799,-511,-265,-57,173,-253
0,2023-03-01T18:50:41.549239,1631068,1139,1900,178,-799,-511,-265,-57,173,-253
0,2023-03-01T18:50:41.555365,1631074,1139,1900,178,-799,-511,-265,-57,173,-253
0,2023-03-01T18:50:41.560227,1631079,1139,1900,178,-799,-511,-265,-57,173,-253
0,2023-03-01T18:50:41.565406,1631084,1143,1896,170,-792,-512,-246,-57,173,-253
0,2023-03-01T18:50:41.571527,1631090,1143,1896,170,-792,-512,-246,-57,173,-253
0,2023-03-01T18:50:41.577440,1631096,1143,1896,170,-792,-512,-246,-57,173,-253
0,2023-03-01T18:50:41.582435,1631101,1144,1902,172,-796,-504,-261,-57,173,-253
0,2023-03-01T18:50:41.587603,1631107,1144,1902,172,-796,-504,-261,-57,173,-253
0,2023-03-01T18:50:41.593622,1631113,1144,1902,172,-796,-504,-261,-57,173,-253
0,2023-03-01T18:50:41.598494,1631117,1144,1902,172,-796,-504,-261,-57,173,-253
0,2023-03-01T18:50:41.605783,1631124,1138,1900,173,-782,-506,-255,-57,173,-253
0,2023-03-01T18:50:41.612025,1631131,1138,1900,173,-782,-506,-255,-57,173,-253
0,2023-03-01T18:50:41.617654,1631136,1138,1900,173,-782,-506,-255,-57,173,-253
0,2023-03-01T18:50:41.622550,1631141,1143,1901,165,-796,-495,-254,-57,173,-253
0,2023-03-01T18:50:41.627970,1631147,1143,1901,165,-796,-495,-254,-57,173,-253
0,2023-03-01T18:50:41.634150,1631153,1143,1901,165,-796,-495,-254,-57,173,-253
0,2023-03-01T18:50:41.639263,1631158,1143,1901,165,-796,-495,-254,-57,173,-253
0,2023-03-01T18:50:41.644151,1631163,1137,1899,164,-792,-505,-254,-57,173,-253
0,2023-03-01T18:50:41.649967,1631169,1137,1899,164,-792,-505,-254,-57,173,-253
0,2023-03-01T18:50:41.655320,1631174,1137,1899,164,-792,-505,-254,-57,173,-253
0,2023-03-01T18:50:41.660350,1631179,1137,1899,164,-792,-505,-254,-57,173,-253
0,2023-03-01T18:50:41.665716,1631184,1139,1900,171,-802,-497,-242,-57,175,-255
0,2023-03-01T18:50:41.672331,1631191,1139,1900,171,-802,-497,-242,-57,175,-255
0,2023-03-01T18:50:41.678921,1631197,1139,1900,171,-802,-497,-242,-57,175,-255
0,2023-03-01T18:50:41.684371,1631203,1139,1901,169,-804,-501,-257,-57,175,-255
0,2023-03-01T18:50:41.690662,1631209,1139,1901,169,-804,-501,-257,-57,175,-255
0,2023-03-01T18:50:41.696220,1631215,1139,1901,169,-804,-501,-257,-57,175,-255
0,2023-03-01T18:50:41.701230,1631220,1141,1901,167,-799,-515,-249,-57,175,-255
0,2023-03-01T18:50:41.708215,1631225,1141,1901,167,-799,-515,-249,-57,175,-255
0,2023-03-01T18:50:41.714218,1631233,1141,1901,167,-799,-515,-249,-57,175,-255
0,2023-03-01T18:50:41.719481,1631238,1141,1901,167,-799,-515,-249,-57,175,-255
0,2023-03-01T18:50:41.724598,1631243,1146,1903,164,-803,-500,-253,-57,175,-255
0,2023-03-01T18:50:41.730874,1631250,1146,1903,164,-803,-500,-253,-57,175,-255
0,2023-03-01T18:50:41.736909,1631255,1146,1903,164,-803,-500,-253,-57,175,-255
0,2023-03-01T18:50:41.742595,1631261,1138,1900,162,-796,-511,-259,-57,175,-255
0,2023-03-01T18:50:41.748135,1631267,1138,1900,162,-796,-511,-259,-57,175,-255
0,2023-03-01T18:50:41.754518,1631273,1138,1900,162,-796,-511,-259,-57,175,-255
0,2023-03-01T18:50:41.759329,1631279,1138,1900,162,-796,-511,-259,-57,175,-255
0,2023-03-01T18:50:41.764563,1631283,1141,1901,162,-803,-490,-260,-57,175,-255
0,2023-03-01T18:50:41.771230,1631290,1141,1901,162,-803,-490,-260,-57,175,-255
0,2023-03-01T18:50:41.776262,1631295,1141,1901,162,-803,-490,-260,-57,175,-255
0,2023-03-01T18:50:41.781192,1631300,1143,1900,156,-789,-505,-255,-61,165,-257
0,2023-03-01T18:50:41.786358,1631305,1143,1900,156,-789,-505,-255,-61,165,-257
0,2023-03-01T18:50:41.792677,1631311,1143,1900,156,-789,-505,-255,-61,165,-257
0,2023-03-01T18:50:41.797651,1631316,1143,1900,156,-789,-505,-255,-61,165,-257
0,2023-03-01T18:50:41.802636,1631322,1148,1906,164,-788,-499,-259,-61,165,-257
0,2023-03-01T18:50:41.808101,1631327,1148,1906,164,-788,-499,-259,-61,165,-257
0,2023-03-01T18:50:41.814024,1631333,1148,1906,164,-788,-499,-259,-61,165,-257
0,2023-03-01T18:50:41.819349,1631337,1148,1906,164,-788,-499,-259,-61,165,-257
0,2023-03-01T18:50:41.824558,1631343,1142,1903,157,-781,-484,-250,-61,165,-257
0,2023-03-01T18:50:41.831104,1631349,1142,1903,157,-781,-484,-250,-61,165,-257
0,2023-03-01T18:50:41.836685,1631355,1142,1903,157,-781,-484,-250,-61,165,-257
0,2023-03-01T18:50:41.841452,1631361,1144,1902,157,-778,-494,-253,-61,165,-257
0,2023-03-01T18:50:41.847006,1631366,1144,1902,157,-778,-494,-253,-61,165,-257
0,2023-03-01T18:50:41.853178,1631372,1144,1902,157,-778,-494,-253,-61,165,-257
0,2023-03-01T18:50:41.857970,1631377,1144,1902,157,-778,-494,-253,-61,165,-257
0,2023-03-01T18:50:41.862959,1631381,1143,1902,151,-789,-493,-255,-61,165,-257
0,2023-03-01T18:50:41.868755,1631387,1143,1902,151,-789,-493,-255,-61,165,-257
0,2023-03-01T18:50:41.874761,1631393,1143,1902,151,-789,-493,-255,-61,165,-257
0,2023-03-01T18:50:41.880047,1631398,1143,1902,151,-789,-493,-255,-61,165,-257
0,2023-03-01T18:50:41.884836,1631404,1142,1902,159,-788,-500,-254,-61,165,-257
0,2023-03-01T18:50:41.890806,1631410,1142,1902,159,-788,-500,-254,-61,165,-257
0,2023-03-01T18:50:41.896576,1631415,1142,1902,159,-788,-500,-254,-61,165,-257
0,2023-03-01T18:50:41.901989,1631421,1143,1902,153,-798,-496,-252,-61,165,-257
0,2023-03-01T18:50:41.907561,1631426,1143,1902,153,-798,-496,-252,-61,165,-257
0,2023-03-01T18:50:41.913399,1631431,1143,1902,153,-798,-496,-252,-61,165,-257
0,2023-03-01T18:50:41.918606,1631437,1143,1902,153,-798,-496,-252,-61,165,-257
0,2023-03-01T18:50:41.923557,1631442,1144,1902,160,-805,-495,-267,-50,172,-258
0,2023-03-01T18:50:41.930291,1631449,1144,1902,160,-805,-495,-267,-50,172,-258
0,2023-03-01T18:50:41.936125,1631455,1144,1902,160,-805,-495,-267,-50,172,-258
0,2023-03-01T18:50:41.940950,1631460,1144,1902,160,-805,-495,-267,-50,172,-258
0,2023-03-01T18:50:41.946055,1631465,1142,1903,155,-792,-497,-264,-50,172,-258
0,2023-03-01T18:50:41.951983,1631471,1142,1903,155,-792,-497,-264,-50,172,-258
0,2023-03-01T18:50:41.957780,1631476,1142,1903,155,-792,-497,-264,-50,172,-258
0,2023-03-01T18:50:41.962756,1631481,1147,1905,158,-794,-489,-254,-50,172,-258
0,2023-03-01T18:50:41.968267,1631488,1147,1905,158,-794,-489,-254,-50,172,-258
0,2023-03-01T18:50:41.974115,1631493,1147,1905,158,-794,-489,-254,-50,172,-258
0,2023-03-01T18:50:41.979796,1631498,1147,1905,158,-794,-489,-254,-50,172,-258
0,2023-03-01T18:50:41.984508,1631504,1148,1907,153,-782,-506,-256,-50,172,-258
0,2023-03-01T18:50:41.991011,1631509,1148,1907,153,-782,-506,-256,-50,172,-258
0,2023-03-01T18:50:41.997614,1631516,1148,1907,153,-782,-506,-256,-50,172,-258
0,2023-03-01T18:50:42.002309,1631521,1146,1900,143,-791,-493,-251,-50,172,-258
0,2023-03-01T18:50:42.007606,1631526,1146,1900,143,-791,-493,-251,-50,172,-258
0,2023-03-01T18:50:42.013160,1631532,1146,1900,143,-791,-493,-251,-50,172,-258
0,2023-03-01T18:50:42.018183,1631537,1146,1900,143,-791,-493,-251,-50,172,-258
0,2023-03-01T18:50:42.023581,1631543,1144,1903,142,-788,-494,-254,-50,172,-258
0,2023-03-01T18:50:42.028578,1631548,1144,1903,142,-788,-494,-254,-50,172,-258
0,2023-03-01T18:50:42.034565,1631553,1144,1903,142,-788,-494,-254,-50,172,-258
0,2023-03-01T18:50:42.040963,1631559,1144,1903,142,-788,-494,-254,-50,172,-258
0,2023-03-01T18:50:42.045732,1631564,1142,1903,153,-794,-484,-256,-54,176,-264
0,2023-03-01T18:50:42.051699,1631570,1142,1903,153,-794,-484,-256,-54,176,-264
0,2023-03-01T18:50:42.056552,1631576,1142,1903,153,-794,-484,-256,-54,176,-264
0,2023-03-01T18:50:42.061190,1631580,1142,1903,153,-794,-484,-256,-54,176,-264
0,2023-03-01T18:50:42.066230,1631585,1147,1905,152,-807,-485,-257,-54,176,-264
0,2023-03-01T18:50:42.073124,1631592,1147,1905,152,-807,-485,-257,-54,176,-264
0,2023-03-01T18:50:42.077980,1631597,1147,1905,152,-807,-485,-257,-54,176,-264
0,2023-03-01T18:50:42.082983,1631602,1145,1906,146,-789,-489,-262,-54,176,-264
0,2023-03-01T18:50:42.088483,1631607,1145,1906,146,-789,-489,-262,-54,176,-264
0,2023-03-01T18:50:42.094279,1631613,1145,1906,146,-789,-489,-262,-54,176,-264
0,2023-03-01T18:50:42.099395,1631619,1145,1906,146,-789,-489,-262,-54,176,-264
0,2023-03-01T18:50:42.104546,1631623,1144,1903,149,-794,-483,-264,-54,176,-264
0,2023-03-01T18:50:42.110911,1631630,1144,1903,149,-794,-483,-264,-54,176,-264
0,2023-03-01T18:50:42.115881,1631635,1144,1903,149,-794,-483,-264,-54,176,-264
0,2023-03-01T18:50:42.120643,1631639,1144,1903,149,-794,-483,-264,-54,176,-264
0,2023-03-01T18:50:42.125953,1631644,1145,1902,144,-776,-487,-261,-54,176,-264
0,2023-03-01T18:50:42.131881,1631650,1145,1902,144,-776,-487,-261,-54,176,-264
0,2023-03-01T18:50:42.137279,1631656,1145,1902,144,-776,-487,-261,-54,176,-264
0,2023-03-01T18:50:42.142040,1631661,1146,1904,143,-784,-482,-254,-54,176,-264
0,2023-03-01T18:50:42.147743,1631667,1146,1904,143,-784,-482,-254,-54,176,-264
0,2023-03-01T18:50:42.154048,1631673,1146,1904,143,-784,-482,-254,-54,176,-264
0,2023-03-01T18:50:42.159087,1631678,1146,1904,143,-784,-482,-254,-54,176,-264
0,2023-03-01T18:50:42.163713,1631682,1146,1905,144,-783,-494,-257,-54,176,-264
0,2023-03-01T18:50:42.169076,1631688,1146,1905,144,-783,-494,-257,-54,176,-264
0,2023-03-01T18:50:42.175722,1631693,1146,1905,144,-783,-494,-257,-54,176,-264
0,2023-03-01T18:50:42.180422,1631699,1146,1905,144,-783,-494,-257,-54,176,-264
0,2023-03-01T18:50:42.185500,1631705,1144,1907,147,-796,-503,-257,-61,163,-255
0,2023-03-01T18:50:42.191432,1631711,1144,1907,147,-796,-503,-257,-61,163,-255
0,2023-03-01T18:50:42.196843,1631716,1144,1907,147,-796,-503,-257,-61,163,-255
0,2023-03-01T18:50:42.202382,1631721,1151,1908,140,-797,-491,-261,-61,163,-255
0,2023-03-01T18:50:42.207985,1631726,1151,1908,140,-797,-491,-261,-61,163,-255
0,2023-03-01T18:50:42.214052,1631732,1151,1908,140,-797,-491,-261,-61,163,-255
0,2023-03-01T18:50:42.218897,1631737,1151,1908,140,-797,-491,-261,-61,163,-255
0,2023-03-01T18:50:42.224139,1631742,1143,1906,140,-797,-499,-255,-61,163,-255
0,2023-03-01T18:50:42.229649,1631749,1143,1906,140,-797,-499,-255,-61,163,-255
0,2023-03-01T18:50:42.235560,1631755,1143,1906,140,-797,-499,-255,-61,163,-255
0,2023-03-01T18:50:42.240935,1631760,1143,1906,140,-797,-499,-255,-61,163,-255
0,2023-03-01T18:50:42.246055,1631765,1148,1908,137,-803,-490,-266,-61,163,-255
0,2023-03-01T18:50:42.252553,1631771,1148,1908,137,-803,-490,-266,-61,163,-255
0,2023-03-01T18:50:42.259382,1631778,1148,1908,137,-803,-490,-266,-61,163,-255
0,2023-03-01T18:50:42.264689,1631783,1145,1908,139,-780,-496,-271,-61,163,-255
0,2023-03-01T18:50:42.272212,1631791,1145,1908,139,-780,-496,-271,-61,163,-255
0,2023-03-01T18:50:42.277465,1631797,1145,1908,139,-780,-496,-271,-61,163,-255
0,2023-03-01T18:50:42.282594,1631801,1146,1908,139,-797,-489,-256,-61,163,-255
0,2023-03-01T18:50:42.288540,1631807,1146,1908,139,-797,-489,-256,-61,163,-255
0,2023-03-01T18:50:42.293907,1631812,1146,1908,139,-797,-489,-256,-61,163,-255
0,2023-03-01T18:50:42.298771,1631817,1146,1908,139,-797,-489,-256,-61,163,-255
0,2023-03-01T18:50:42.304689,1631823,1143,1907,141,-783,-485,-262,-57,177,-261
0,2023-03-01T18:50:42.310614,1631830,1143,1907,141,-783,-485,-262,-57,177,-261
0,2023-03-01T18:50:42.316628,1631835,1143,1907,141,-783,-485,-262,-57,177,-261
0,2023-03-01T18:50:42.321994,1631841,1145,1907,142,-795,-498,-261,-57,177,-261
0,2023-03-01T18:50:42.327316,1631846,1145,1907,142,-795,-498,-261,-57,177,-261
0,2023-03-01T18:50:42.333058,1631852,1145,1907,142,-795,-498,-261,-57,177,-261
0,2023-03-01T18:50:42.337561,1631856,1145,1907,142,-795,-498,-261,-57,177,-261
0,2023-03-01T18:50:42.343256,1631861,1148,1912,141,-799,-488,-263,-57,177,-261
0,2023-03-01T18:50:42.348725,1631867,1148,1912,141,-799,-488,-263,-57,177,-261
0,2023-03-01T18:50:42.354939,1631874,1148,1912,141,-799,-488,-263,-57,177,-261
0,2023-03-01T18:50:42.359764,1631879,1148,1912,141,-799,-488,-263,-57,177,-261
0,2023-03-01T18:50:42.364387,1631883,1146,1905,132,-787,-499,-260,-57,177,-261
0,2023-03-01T18:50:42.370756,1631890,1146,1905,132,-787,-499,-260,-57,177,-261
0,2023-03-01T18:50:42.375868,1631895,1146,1905,132,-787,-499,-260,-57,177,-261
0,2023-03-01T18:50:42.380448,1631899,1146,1905,132,-787,-499,-260,-57,177,-261
0,2023-03-01T18:50:42.385204,1631904,1146,1911,136,-800,-487,-261,-57,177,-261
0,2023-03-01T18:50:42.391252,1631910,1146,1911,136,-800,-487,-261,-57,177,-261
0,2023-03-01T18:50:42.396271,1631916,1146,1911,136,-800,-487,-261,-57,177,-261
0,2023-03-01T18:50:42.401490,1631920,1146,1911,136,-800,-487,-261,-57,177,-261
0,2023-03-01T18:50:42.406823,1631926,1148,1904,128,-786,-500,-257,-57,177,-261
0,2023-03-01T18:50:42.413220,1631932,1148,1904,128,-786,-500,-257,-57,177,-261
0,2023-03-01T18:50:42.417639,1631937,1148,1904,128,-786,-500,-257,-57,177,-261
0,2023-03-01T18:50:42.422091,1631941,1148,1906,130,-783,-498,-257,-57,177,-261
0,2023-03-01T18:50:42.427904,1631946,1148,1906,130,-783,-498,-257,-57,177,-261
0,2023-03-01T18:50:42.434133,1631952,1148,1906,130,-783,-498,-257,-57,177,-261
0,2023-03-01T18:50:42.438558,1631958,1148,1906,130,-783,-498,-257,-57,177,-261
0,2023-03-01T18:50:42.442942,1631962,1148,1911,138,-792,-501,-265,-59,173,-259
0,2023-03-01T18:50:42.447948,1631967,1148,1911,138,-792,-501,-265,-59,173,-259
0,2023-03-01T18:50:42.453430,1631972,1148,1911,138,-792,-501,-265,-59,173,-259
0,2023-03-01T18:50:42.458367,1631977,1148,1911,138,-792,-501,-265,-59,173,-259
0,2023-03-01T18:50:42.463255,1631982,1144,1910,128,-795,-498,-261,-59,173,-259
0,2023-03-01T18:50:42.468398,1631987,1144,1910,128,-795,-498,-261,-59,173,-259
0,2023-03-01T18:50:42.474477,1631993,1144,1910,128,-795,-498,-261,-59,173,-259
0,2023-03-01T18:50:42.479652,1631998,1144,1910,128,-795,-498,-261,-59,173,-259
0,2023-03-01T18:50:42.484626,1632004,1150,1908,130,-789,-493,-265,-59,173,-259
0,2023-03-01T18:50:42.491145,1632010,1150,1908,130,-789,-493,-265,-59,173,-259
0,2023-03-01T18:50:42.496971,1632016,1150,1908,130,-789,-493,-265,-59,173,-259
0,2023-03-01T18:50:42.501771,1632020,1150,1908,130,-789,-493,-265,-59,173,-259
0,2023-03-01T18:50:42.506853,1632025,1151,1909,125,-799,-507,-265,-59,173,-259
0,2023-03-01T18:50:42.513029,1632032,1151,1909,125,-799,-507,-265,-59,173,-259
0,2023-03-01T18:50:42.518002,1632036,1151,1909,125,-799,-507,-265,-59,173,-259
0,2023-03-01T18:50:42.522602,1632041,1151,1909,135,-803,-492,-258,-59,173,-259
0,2023-03-01T18:50:42.528036,1632047,1151,1909,135,-803,-492,-258,-59,173,-259
0,2023-03-01T18:50:42.533825,1632053,1151,1909,135,-803,-492,-258,-59,173,-259
0,2023-03-01T18:50:42.538651,1632058,1151,1909,135,-803,-492,-258,-59,173,-259
0,2023-03-01T18:50:42.543975,1632062,1148,1908,126,-797,-504,-267,-59,173,-259
0,2023-03-01T18:50:42.549298,1632068,1148,1908,126,-797,-504,-267,-59,173,-259
0,2023-03-01T18:50:42.555640,1632074,1148,1908,126,-797,-504,-267,-59,173,-259
0,2023-03-01T18:50:42.560388,1632079,1148,1908,126,-797,-504,-267,-59,173,-259
0,2023-03-01T18:50:42.565456,1632084,1148,1907,133,-802,-499,-262,-51,167,-261
0,2023-03-01T18:50:42.571592,1632091,1148,1907,133,-802,-499,-262,-51,167,-261
0,2023-03-01T18:50:42.576422,1632095,1148,1907,133,-802,-499,-262,-51,167,-261
0,2023-03-01T18:50:42.581453,1632100,1148,1907,133,-802,-499,-262,-51,167,-261
0,2023-03-01T18:50:42.588093,1632106,1150,1909,127,-801,-501,-261,-51,167,-261
0,2023-03-01T18:50:42.594772,1632113,1150,1909,127,-801,-501,-261,-51,167,-261
0,2023-03-01T18:50:42.599434,1632118,1150,1909,127,-801,-501,-261,-51,167,-261
0,2023-03-01T18:50:42.604150,1632123,1149,1909,119,-796,-504,-259,-51,167,-261
0,2023-03-01T18:50:42.609486,1632129,1149,1909,119,-796,-504,-259,-51,167,-261
0,2023-03-01T18:50:42.614532,1632133,1149,1909,119,-796,-504,-259,-51,167,-261
0,2023-03-01T18:50:42.619303,1632138,1149,1909,119,-796,-504,-259,-51,167,-261
0,2023-03-01T18:50:42.624063,1632143,1152,1912,127,-808,-504,-261,-51,167,-261
0,2023-03-01T18:50:42.630264,1632148,1152,1912,127,-808,-504,-261,-51,167,-261
0,2023-03-01T18:50:42.635997,1632155,1152,1912,127,-808,-504,-261,-51,167,-261
0,2023-03-01T18:50:42.640677,1632159,1152,1912,127,-808,-504,-261,-51,167,-261
0,2023-03-01T18:50:42.645832,1632164,1151,1909,121,-797,-509,-265,-51,167,-261
0,2023-03-01T18:50:42.651777,1632171,1151,1909,121,-797,-509,-265,-51,167,-261
0,2023-03-01T18:50:42.656436,1632176,1151,1909,121,-797,-509,-265,-51,167,-261
0,2023-03-01T18:50:42.661092,1632180,1151,1909,121,-797,-509,-265,-51,167,-261
0,2023-03-01T18:50:42.665789,1632185,1148,1907,120,-806,-510,-259,-51,167,-261
0,2023-03-01T18:50:42.671835,1632191,1148,1907,120,-806,-510,-259,-51,167,-261
0,2023-03-01T18:50:42.676676,1632195,1148,1907,120,-806,-510,-259,-51,167,-261
0,2023-03-01T18:50:42.681453,1632200,1148,1907,120,-806,-510,-259,-51,167,-261
0,2023-03-01T18:50:42.686483,1632205,1150,1912,119,-809,-513,-271,-56,176,-254
0,2023-03-01T18:50:42.692776,1632211,1150,1912,119,-809,-513,-271,-56,176,-254
0,2023-03-01T18:50:42.697662,1632217,1150,1912,119,-809,-513,-271,-56,176,-254
0,2023-03-01T18:50:42.702732,1632222,1147,1908,126,-796,-501,-262,-56,176,-254
0,2023-03-01T18:50:42.708968,1632227,1147,1908,126,-796,-501,-262,-56,176,-254
0,2023-03-01T18:50:42.715078,1632234,1147,1908,126,-796,-501,-262,-56,176,-254
0,2023-03-01T18:50:42.719594,1632238,1147,1908,126,-796,-501,-262,-56,176,-254
0,2023-03-01T18:50:42.724662,1632243,1148,1912,121,-794,-492,-261,-56,176,-254
0,2023-03-01T18:50:42.731204,1632249,1148,1912,121,-794,-492,-261,-56,176,-254
0,2023-03-01T18:50:42.738453,1632257,1148,1912,121,-794,-492,-261,-56,176,-254
0,2023-03-01T18:50:42.743674,1632263,1150,1909,112,-798,-504,-257,-56,176,-254
0,2023-03-01T18:50:42.749194,1632268,1150,1909,112,-798,-504,-257,-56,176,-254
0,2023-03-01T18:50:42.755393,1632274,1150,1909,112,-798,-504,-257,-56,176,-254
0,2023-03-01T18:50:42.760494,1632279,1150,1909,112,-798,-504,-257,-56,176,-254
0,2023-03-01T18:50:42.766352,1632285,1148,1912,116,-813,-504,-263,-56,176,-254
0,2023-03-01T18:50:42.771717,1632290,1148,1912,116,-813,-504,-263,-56,176,-254
0,2023-03-01T18:50:42.776934,1632295,1148,1912,116,-813,-504,-263,-56,176,-254
0,2023-03-01T18:50:42.782148,1632301,1148,1912,116,-813,-504,-263,-56,176,-254
0,2023-03-01T18:50:42.787563,1632306,1150,1909,115,-793,-500,-264,-56,176,-254
0,2023-03-01T18:50:42.794582,1632313,1150,1909,115,-793,-500,-264,-56,176,-254
0,2023-03-01T18:50:42.799692,1632318,1150,1909,115,-793,-500,-264,-56,176,-254
0,2023-03-01T18:50:42.804936,1632323,1154,1909,122,-796,-505,-260,-56,176,-254
0,2023-03-01T18:50:42.811722,1632330,1154,1909,122,-796,-505,-260,-56,176,-254
0,2023-03-01T18:50:42.817948,1632336,1154,1909,122,-796,-505,-260,-56,176,-254
0,2023-03-01T18:50:42.823243,1632342,1154,1913,117,-798,-496,-262,-54,172,-262
0,2023-03-01T18:50:42.828707,1632348,1154,1913,117,-798,-496,-262,-54,172,-262
0,2023-03-01T18:50:42.834405,1632353,1154,1913,117,-798,-496,-262,-54,172,-262
0,2023-03-01T18:50:42.839350,1632358,1154,1913,117,-798,-496,-262,-54,172,-262
0,2023-03-01T18:50:42.844528,1632363,1153,1911,119,-798,-509,-255,-54,172,-262
0,2023-03-01T18:50:42.850188,1632369,1153,1911,119,-798,-509,-255,-54,172,-262
0,2023-03-01T18:50:42.856253,1632375,1153,1911,119,-798,-509,-255,-54,172,-262
0,2023-03-01T18:50:42.861319,1632380,1153,1911,119,-798,-509,-255,-54,172,-262
0,2023-03-01T18:50:42.866938,1632386,1156,1914,106,-795,-505,-269,-54,172,-262
0,2023-03-01T18:50:42.873335,1632392,1156,1914,106,-795,-505,-269,-54,172,-262
0,2023-03-01T18:50:42.879607,1632398,1156,1914,106,-795,-505,-269,-54,172,-262
0,2023-03-01T18:50:42.884654,1632403,1150,1912,107,-789,-521,-266,-54,172,-262
0,2023-03-01T18:50:42.890875,1632409,1150,1912,107,-789,-521,-266,-54,172,-262
0,2023-03-01T18:50:42.896769,1632415,1150,1912,107,-789,-521,-266,-54,172,-262
0,2023-03-01T18:50:42.901715,1632420,1150,1912,107,-789,-521,-266,-54,172,-262
0,2023-03-01T18:50:42.906519,1632425,1153,1913,103,-804,-507,-266,-54,172,-262
0,2023-03-01T18:50:42.912659,1632431,1153,1913,103,-804,-507,-266,-54,172,-262
0,2023-03-01T18:50:42.918408,1632438,1153,1913,103,-804,-507,-266,-54,172,-262
0,2023-03-01T18:50:42.923257,1632442,1151,1913,104,-787,-513,-266,-54,172,-262
0,2023-03-01T18:50:42.929396,1632448,1151,1913,104,-787,-513,-266,-54,172,-262
0,2023-03-01T18:50:42.934631,1632453,1151,1913,104,-787,-513,-266,-54,172,-262
0,2023-03-01T18:50:42.939803,1632458,1151,1913,104,-787,-513,-266,-54,172,-262
0,2023-03-01T18:50:42.944902,1632463,1153,1911,109,-795,-508,-264,-51,169,-261
0,2023-03-01T18:50:42.950452,1632470,1153,1911,109,-795,-508,-264,-51,169,-261
0,2023-03-01T18:50:42.956379,1632475,1153,1911,109,-795,-508,-264,-51,169,-261
0,2023-03-01T18:50:42.961307,1632480,1153,1911,109,-795,-508,-264,-51,169,-261
0,2023-03-01T18:50:42.966599,1632485,1155,1915,108,-803,-506,-274,-51,169,-261
0,2023-03-01T18:50:42.972790,1632491,1155,1915,108,-803,-506,-274,-51,169,-261
0,2023-03-01T18:50:42.978145,1632497,1155,1915,108,-803,-506,-274,-51,169,-261
0,2023-03-01T18:50:42.983083,1632502,1153,1916,106,-784,-514,-268,-51,169,-261
0,2023-03-01T18:50:42.988618,1632507,1153,1916,106,-784,-514,-268,-51,169,-261
0,2023-03-01T18:50:42.994445,1632514,1153,1916,106,-784,-514,-268,-51,169,-261
0,2023-03-01T18:50:42.999383,1632519,1153,1916,106,-784,-514,-268,-51,169,-261
0,2023-03-01T18:50:43.004833,1632523,1156,1916,97,-787,-500,-262,-51,169,-261
0,2023-03-01T18:50:43.010887,1632530,1156,1916,97,-787,-500,-262,-51,169,-261
0,2023-03-01T18:50:43.016783,1632536,1156,1916,97,-787,-500,-262,-51,169,-261
0,2023-03-01T18:50:43.021486,1632540,1156,1916,97,-787,-500,-262,-51,169,-261
0,2023-03-01T18:50:43.026540,1632545,1153,1913,100,-789,-511,-265,-51,169,-261
0,2023-03-01T18:50:43.032401,1632551,1153,1913,100,-789,-511,-265,-51,169,-261
0,2023-03-01T18:50:43.038542,1632558,1153,1913,100,-789,-511,-265,-51,169,-261
0,2023-03-01T18:50:43.043484,1632563,1151,1911,103,-792,-508,-250,-51,169,-261
0,2023-03-01T18:50:43.048795,1632568,1151,1911,103,-792,-508,-250,-51,169,-261
0,2023-03-01T18:50:43.053571,1632572,1151,1911,103,-792,-508,-250,-51,169,-261
0,2023-03-01T18:50:43.058539,1632577,1151,1911,103,-792,-508,-250,-51,169,-261
0,2023-03-01T18:50:43.063886,1632582,1152,1912,107,-791,-513,-261,-51,169,-261
0,2023-03-01T18:50:43.070014,1632589,1152,1912,107,-791,-513,-261,-51,169,-261
0,2023-03-01T18:50:43.075794,1632594,1152,1912,107,-791,-513,-261,-51,169,-261
0,2023-03-01T18:50:43.080898,1632600,1152,1912,107,-791,-513,-261,-51,169,-261
0,2023-03-01T18:50:43.085980,1632605,1151,1917,102,-793,-525,-265,-55,167,-263
0,2023-03-01T18:50:43.092470,1632611,1151,1917,102,-793,-525,-265,-55,167,-263
0,2023-03-01T18:50:43.097282,1632616,1151,1917,102,-793,-525,-265,-55,167,-263
0,2023-03-01T18:50:43.102107,1632621,1151,1917,102,-793,-525,-265,-55,167,-263
0,2023-03-01T18:50:43.106913,1632626,1154,1913,103,-792,-504,-265,-55,167,-263
0,2023-03-01T18:50:43.112822,1632631,1154,1913,103,-792,-504,-265,-55,167,-263
0,2023-03-01T18:50:43.117542,1632636,1154,1913,103,-792,-504,-265,-55,167,-263
0,2023-03-01T18:50:43.122288,1632642,1154,1913,103,-792,-504,-265,-55,167,-263
0,2023-03-01T18:50:43.126913,1632646,1156,1919,97,-796,-514,-266,-55,167,-263
0,2023-03-01T18:50:43.133234,1632652,1156,1919,97,-796,-514,-266,-55,167,-263
0,2023-03-01T18:50:43.138174,1632657,1156,1919,97,-796,-514,-266,-55,167,-263
0,2023-03-01T18:50:43.143460,1632662,1156,1915,101,-790,-503,-261,-55,167,-263
0,2023-03-01T18:50:43.149196,1632668,1156,1915,101,-790,-503,-261,-55,167,-263
0,2023-03-01T18:50:43.155427,1632674,1156,1915,101,-790,-503,-261,-55,167,-263
0,2023-03-01T18:50:43.160036,1632678,1156,1915,101,-790,-503,-261,-55,167,-263
0,2023-03-01T18:50:43.164805,1632684,1156,1916,101,-780,-505,-268,-55,167,-263
0,2023-03-01T18:50:43.171024,1632690,1156,1916,101,-780,-505,-268,-55,167,-263
0,2023-03-01T18:50:43.175922,1632695,1156,1916,101,-780,-505,-268,-55,167,-263
0,2023-03-01T18:50:43.180544,1632700,1156,1916,101,-780,-505,-268,-55,167,-263
0,2023-03-01T18:50:43.184930,1632704,1154,1913,96,-788,-502,-255,-55,167,-263
0,2023-03-01T18:50:43.190255,1632709,1154,1913,96,-788,-502,-255,-55,167,-263
0,2023-03-01T18:50:43.194903,1632714,1154,1913,96,-788,-502,-255,-55,167,-263
0,2023-03-01T18:50:43.199971,1632718,1154,1913,96,-788,-502,-255,-55,167,-263
0,2023-03-01T18:50:43.204731,1632723,1153,1917,96,-807,-508,-265,-58,168,-266
0,2023-03-01T18:50:43.210921,1632730,1153,1917,96,-807,-508,-265,-58,168,-266
0,2023-03-01T18:50:43.215679,1632735,1153,1917,96,-807,-508,-265,-58,168,-266
0,2023-03-01T18:50:43.220652,1632740,1153,1917,96,-807,-508,-265,-58,168,-266
0,2023-03-01T18:50:43.225623,1632745,1153,1916,98,-796,-510,-268,-58,168,-266
0,2023-03-01T18:50:43.231934,1632751,1153,1916,98,-796,-510,-268,-58,168,-266
0,2023-03-01T18:50:43.236621,1632755,1153,1916,98,-796,-510,-268,-58,168,-266
0,2023-03-01T18:50:43.241655,1632760,1153,1916,98,-796,-510,-268,-58,168,-266
0,2023-03-01T18:50:43.246293,1632765,1158,1919,95,-798,-501,-262,-58,168,-266
0,2023-03-01T18:50:43.252310,1632772,1158,1919,95,-798,-501,-262,-58,168,-266
0,2023-03-01T18:50:43.257566,1632777,1158,1919,95,-798,-501,-262,-58,168,-266
0,2023-03-01T18:50:43.263163,1632782,1153,1915,89,-789,-507,-264,-58,168,-266
0,2023-03-01T18:50:43.268252,1632787,1153,1915,89,-789,-507,-264,-58,168,-266
0,2023-03-01T18:50:43.274417,1632793,1153,1915,89,-789,-507,-264,-58,168,-266
0,2023-03-01T18:50:43.279019,1632797,1153,1915,89,-789,-507,-264,-58,168,-266
0,2023-03-01T18:50:43.283961,1632802,1156,1914,90,-795,-509,-262,-58,168,-266
0,2023-03-01T18:50:43.289963,1632808,1156,1914,90,-795,-509,-262,-58,168,-266
0,2023-03-01T18:50:43.296113,1632815,1156,1914,90,-795,-509,-262,-58,168,-266
0,2023-03-01T18:50:43.301155,1632820,1156,1914,90,-795,-509,-262,-58,168,-266
0,2023-03-01T18:50:43.306158,1632825,1157,1917,89,-793,-508,-269,-58,168,-266
0,2023-03-01T18:50:43.312259,1632831,1157,1917,89,-793,-508,-269,-58,168,-266
0,2023-03-01T18:50:43.317134,1632836,1157,1917,89,-793,-508,-269,-58,168,-266
0,2023-03-01T18:50:43.322600,1632841,1157,1917,89,-793,-508,-269,-58,168,-266
0,2023-03-01T18:50:43.327797,1632846,1157,1913,88,-794,-513,-264,-58,168,-266
0,2023-03-01T18:50:43.334165,1632852,1157,1913,88,-794,-513,-264,-58,168,-266
0,2023-03-01T18:50:43.339454,1632858,1157,1913,88,-794,-513,-264,-58,168,-266
0,2023-03-01T18:50:43.344636,1632863,1157,1921,93,-789,-503,-260,-56,174,-266
0,2023-03-01T18:50:43.351124,1632869,1157,1921,93,-789,-503,-260,-56,174,-266
0,2023-03-01T18:50:43.357471,1632876,1157,1921,93,-789,-503,-260,-56,174,-266
0,2023-03-01T18:50:43.362548,1632881,1157,1921,93,-789,-503,-260,-56,174,-266
0,2023-03-01T18:50:43.367767,1632886,1157,1913,84,-776,-509,-266,-56,174,-266
0,2023-03-01T18:50:43.374262,1632893,1157,1913,84,-776,-509,-266,-56,174,-266
0,2023-03-01T18:50:43.379379,1632899,1157,1913,84,-776,-509,-266,-56,174,-266
0,2023-03-01T18:50:43.384783,1632904,1157,1920,79,-787,-500,-269,-56,174,-266
0,2023-03-01T18:50:43.390149,1632909,1157,1920,79,-787,-500,-269,-56,174,-266
0,2023-03-01T18:50:43.396242,1632915,1157,1920,79,-787,-500,-269,-56,174,-266
0,2023-03-01T18:50:43.401285,1632920,1157,1920,79,-787,-500,-269,-56,174,-266
0,2023-03-01T18:50:43.406109,1632925,1156,1917,86,-773,-503,-263,-56,174,-266
0,2023-03-01T18:50:43.411985,1632931,1156,1917,86,-773,-503,-263,-56,174,-266
0,2023-03-01T18:50:43.416986,1632935,1156,1917,86,-773,-503,-263,-56,174,-266
0,2023-03-01T18:50:43.422160,1632941,1156,1917,86,-773,-503,-263,-56,174,-266
0,2023-03-01T18:50:43.427151,1632946,1158,1918,87,-792,-513,-266,-56,174,-266
0,2023-03-01T18:50:43.432894,1632952,1158,1918,87,-792,-513,-266,-56,174,-266
0,2023-03-01T18:50:43.437319,1632956,1158,1918,87,-792,-513,-266,-56,174,-266
0,2023-03-01T18:50:43.442442,1632961,1158,1918,87,-792,-513,-266,-56,174,-266
0,2023-03-01T18:50:43.447481,1632966,1157,1916,84,-785,-508,-272,-56,174,-266
0,2023-03-01T18:50:43.454835,1632973,1157,1916,84,-785,-508,-272,-56,174,-266
0,2023-03-01T18:50:43.459537,1632978,1157,1916,84,-785,-508,-272,-56,174,-266
0,2023-03-01T18:50:43.464643,1632984,1160,1918,77,-793,-516,-265,-59,179,-261
0,2023-03-01T18:50:43.470470,1632990,1160,1918,77,-793,-516,-265,-59,179,-261
0,2023-03-01T18:50:43.476914,1632996,1160,1918,77,-793,-516,-265,-59,179,-261
0,2023-03-01T18:50:43.481737,1633001,1160,1918,77,-793,-516,-265,-59,179,-261
0,2023-03-01T18:50:43.486378,1633005,1159,1922,83,-792,-509,-269,-59,179,-261
0,2023-03-01T18:50:43.492270,1633011,1159,1922,83,-792,-509,-269,-59,179,-261
0,2023-03-01T18:50:43.497239,1633016,1159,1922,83,-792,-509,-269,-59,179,-261
0,2023-03-01T18:50:43.502084,1633021,1159,1922,83,-792,-509,-269,-59,179,-261
0,2023-03-01T18:50:43.506989,1633026,1157,1915,83,-788,-514,-254,-59,179,-261
0,2023-03-01T18:50:43.512968,1633032,1157,1915,83,-788,-514,-254,-59,179,-261
0,2023-03-01T18:50:43.518408,1633037,1157,1915,83,-788,-514,-254,-59,179,-261
0,2023-03-01T18:50:43.523475,1633042,1161,1918,79,-787,-500,-267,-59,179,-261
0,2023-03-01T18:50:43.529012,1633048,1161,1918,79,-787,-500,-267,-59,179,-261
0,2023-03-01T18:50:43.535496,1633054,1161,1918,79,-787,-500,-267,-59,179,-261
0,2023-03-01T18:50:43.540220,1633059,1161,1918,79,-787,-500,-267,-59,179,-261
0,2023-03-01T18:50:43.545496,1633064,1159,1919,75,-759,-508,-269,-59,179,-261
0,2023-03-01T18:50:43.550089,1633069,1159,1919,75,-759,-508,-269,-59,179,-261
0,2023-03-01T18:50:43.555751,1633075,1159,1919,75,-759,-508,-269,-59,179,-261
0,2023-03-01T18:50:43.560644,1633080,1159,1919,75,-759,-508,-269,-59,179,-261
0,2023-03-01T18:50:43.565401,1633084,1160,1919,73,-763,-508,-265,-59,179,-261
0,2023-03-01T18:50:43.572250,1633090,1160,1919,73,-763,-508,-265,-59,179,-261
0,2023-03-01T18:50:43.577170,1633095,1160,1919,73,-763,-508,-265,-59,179,-261
0,2023-03-01T18:50:43.582354,1633101,1160,1919,73,-763,-508,-265,-59,179,-261
0,2023-03-01T18:50:43.587763,1633106,1161,1918,74,-775,-505,-266,-67,173,-271
0,2023-03-01T18:50:43.594340,1633114,1161,1918,74,-775,-505,-266,-67,173,-271
0,2023-03-01T18:50:43.599242,1633118,1161,1918,74,-775,-505,-266,-67,173,-271
0,2023-03-01T18:50:43.604205,1633123,1161,1919,69,-783,-510,-260,-67,173,-271
0,2023-03-01T18:50:43.609526,1633129,1161,1919,69,-783,-510,-260,-67,173,-271
0,2023-03-01T18:50:43.615606,1633134,1161,1919,69,-783,-510,-260,-67,173,-271
0,2023-03-01T18:50:43.620529,1633139,1161,1919,69,-783,-510,-260,-67,173,-271
0,2023-03-01T18:50:43.625335,1633144,1164,1922,73,-791,-485,-272,-67,173,-271
0,2023-03-01T18:50:43.631363,1633150,1164,1922,73,-791,-485,-272,-67,173,-271
0,2023-03-01T18:50:43.637156,1633156,1164,1922,73,-791,-485,-272,-67,173,-271
0,2023-03-01T18:50:43.642181,1633161,1164,1922,73,-791,-485,-272,-67,173,-271
0,2023-03-01T18:50:43.647117,1633166,1157,1917,66,-791,-517,-256,-67,173,-271
0,2023-03-01T18:50:43.652413,1633171,1157,1917,66,-791,-517,-256,-67,173,-271
0,2023-03-01T18:50:43.657145,1633176,1157,1917,66,-791,-517,-256,-67,173,-271
0,2023-03-01T18:50:43.662117,1633181,1157,1917,66,-791,-517,-256,-67,173,-271
0,2023-03-01T18:50:43.666958,1633186,1158,1918,77,-785,-509,-266,-67,173,-271
0,2023-03-01T18:50:43.672549,1633191,1158,1918,77,-785,-509,-266,-67,173,-271
0,2023-03-01T18:50:43.677486,1633197,1158,1918,77,-785,-509,-266,-67,173,-271
0,2023-03-01T18:50:43.682361,1633201,1158,1918,77,-785,-509,-266,-67,173,-271
0,2023-03-01T18:50:43.687373,1633206,1160,1917,62,-774,-508,-258,-67,173,-271
0,2023-03-01T18:50:43.694509,1633213,1160,1917,62,-774,-508,-258,-67,173,-271
0,2023-03-01T18:50:43.699535,1633218,1160,1917,62,-774,-508,-258,-67,173,-271
0,2023-03-01T18:50:43.704042,1633223,1159,1919,66,-770,-493,-263,-67,173,-271
0,2023-03-01T18:50:43.709778,1633228,1159,1919,66,-770,-493,-263,-67,173,-271
0,2023-03-01T18:50:43.715487,1633234,1159,1919,66,-770,-493,-263,-67,173,-271
0,2023-03-01T18:50:43.720445,1633240,1159,1919,66,-770,-493,-263,-67,173,-271
0,2023-03-01T18:50:43.725735,1633245,1161,1921,70,-775,-502,-261,-67,165,-275
0,2023-03-01T18:50:43.731478,1633251,1161,1921,70,-775,-502,-261,-67,165,-275
0,2023-03-01T18:50:43.736104,1633255,1161,1921,70,-775,-502,-261,-67,165,-275
0,2023-03-01T18:50:43.740801,1633260,1161,1921,70,-775,-502,-261,-67,165,-275
0,2023-03-01T18:50:43.745869,1633265,1159,1921,67,-772,-504,-262,-67,165,-275
0,2023-03-01T18:50:43.752114,1633271,1159,1921,67,-772,-504,-262,-67,165,-275
0,2023-03-01T18:50:43.756743,1633275,1159,1921,67,-772,-504,-262,-67,165,-275
0,2023-03-01T18:50:43.761446,1633281,1159,1921,67,-772,-504,-262,-67,165,-275
0,2023-03-01T18:50:43.766370,1633285,1159,1919,69,-793,-496,-265,-67,165,-275
0,2023-03-01T18:50:43.771319,1633290,1159,1919,69,-793,-496,-265,-67,165,-275
0,2023-03-01T18:50:43.776852,1633296,1159,1919,69,-793,-496,-265,-67,165,-275
0,2023-03-01T18:50:43.781596,1633300,1159,1919,69,-793,-496,-265,-67,165,-275
0,2023-03-01T18:50:43.786336,1633305,1162,1920,66,-791,-502,-270,-67,165,-275
0,2023-03-01T18:50:43.792888,1633311,1162,1920,66,-791,-502,-270,-67,165,-275
0,2023-03-01T18:50:43.797978,1633316,1162,1920,66,-791,-502,-270,-67,165,-275
0,2023-03-01T18:50:43.803156,1633321,1162,1920,66,-791,-502,-270,-67,165,-275
0,2023-03-01T18:50:43.808899,1633327,1159,1918,64,-777,-504,-262,-67,165,-275
0,2023-03-01T18:50:43.815571,1633335,1159,1918,64,-777,-504,-262,-67,165,-275
0,2023-03-01T18:50:43.820607,1633340,1159,1918,64,-777,-504,-262,-67,165,-275
0,2023-03-01T18:50:43.825341,1633344,1162,1921,67,-772,-502,-259,-67,165,-275
0,2023-03-01T18:50:43.831461,1633350,1162,1921,67,-772,-502,-259,-67,165,-275
0,2023-03-01T18:50:43.836953,1633355,1162,1921,67,-772,-502,-259,-67,165,-275
0,2023-03-01T18:50:43.841793,1633360,1162,1921,67,-772,-502,-259,-67,165,-275
0,2023-03-01T18:50:43.846515,1633366,1158,1921,66,-762,-507,-257,-53,173,-267
0,2023-03-01T18:50:43.852975,1633372,1158,1921,66,-762,-507,-257,-53,173,-267
0,2023-03-01T18:50:43.859087,1633378,1158,1921,66,-762,-507,-257,-53,173,-267
0,2023-03-01T18:50:43.864317,1633383,1161,1923,67,-772,-493,-264,-53,173,-267
0,2023-03-01T18:50:43.869861,1633389,1161,1923,67,-772,-493,-264,-53,173,-267
0,2023-03-01T18:50:43.876154,1633395,1161,1923,67,-772,-493,-264,-53,173,-267
0,2023-03-01T18:50:43.881141,1633400,1161,1923,67,-772,-493,-264,-53,173,-267
0,2023-03-01T18:50:43.886599,1633405,1163,1917,57,-769,-497,-257,-53,173,-267
0,2023-03-01T18:50:43.892948,1633412,1163,1917,57,-769,-497,-257,-53,173,-267
0,2023-03-01T18:50:43.897750,1633417,1163,1917,57,-769,-497,-257,-53,173,-267
0,2023-03-01T18:50:43.902370,1633421,1163,1917,57,-769,-497,-257,-53,173,-267
0,2023-03-01T18:50:43.907925,1633426,1162,1922,60,-785,-488,-258,-53,173,-267
0,2023-03-01T18:50:43.913956,1633433,1162,1922,60,-785,-488,-258,-53,173,-267
0,2023-03-01T18:50:43.918777,1633437,1162,1922,60,-785,-488,-258,-53,173,-267
0,2023-03-01T18:50:43.923982,1633442,1157,1923,57,-777,-494,-268,-53,173,-267
0,2023-03-01T18:50:43.929205,1633448,1157,1923,57,-777,-494,-268,-53,173,-267
0,2023-03-01T18:50:43.935132,1633454,1157,1923,57,-777,-494,-268,-53,173,-267
0,2023-03-01T18:50:43.939734,1633459,1157,1923,57,-777,-494,-268,-53,173,-267
0,2023-03-01T18:50:43.945152,1633464,1159,1918,58,-773,-500,-259,-53,173,-267
0,2023-03-01T18:50:43.951363,1633470,1159,1918,58,-773,-500,-259,-53,173,-267
0,2023-03-01T18:50:43.956842,1633476,1159,1918,58,-773,-500,-259,-53,173,-267
0,2023-03-01T18:50:43.961945,1633480,1159,1918,58,-773,-500,-259,-53,173,-267
0,2023-03-01T18:50:43.967158,1633485,1164,1922,57,-780,-495,-265,-53,173,-267
0,2023-03-01T18:50:43.973540,1633492,1164,1922,57,-780,-495,-265,-53,173,-267
0,2023-03-01T18:50:43.979049,1633498,1164,1922,57,-780,-495,-265,-53,173,-267
0,2023-03-01T18:50:43.984099,1633503,1161,1919,58,-762,-509,-249,-50,166,-260
0,2023-03-01T18:50:43.989686,1633509,1161,1919,58,-762,-509,-249,-50,166,-260
0,2023-03-01T18:50:43.995258,1633514,1161,1919,58,-762,-509,-249,-50,166,-260
0,2023-03-01T18:50:44.000227,1633519,1161,1919,58,-762,-509,-249,-50,166,-260
0,2023-03-01T18:50:44.005096,1633524,1165,1921,57,-778,-496,-261,-50,166,-260
0,2023-03-01T18:50:44.011211,1633529,1165,1921,57,-778,-496,-261,-50,166,-260
0,2023-03-01T18:50:44.016429,1633536,1165,1921,57,-778,-496,-261,-50,166,-260
0,2023-03-01T18:50:44.021235,1633540,1165,1921,57,-778,-496,-261,-50,166,-260
0,2023-03-01T18:50:44.026179,1633545,1162,1923,54,-766,-502,-264,-50,166,-260
0,2023-03-01T18:50:44.032312,1633551,1162,1923,54,-766,-502,-264,-50,166,-260
0,2023-03-01T18:50:44.037147,1633556,1162,1923,54,-766,-502,-264,-50,166,-260
0,2023-03-01T18:50:44.041751,1633561,1162,1923,54,-766,-502,-264,-50,166,-260
0,2023-03-01T18:50:44.046515,1633565,1165,1921,44,-781,-492,-264,-50,166,-260
0,2023-03-01T18:50:44.052873,1633571,1165,1921,44,-781,-492,-264,-50,166,-260
0,2023-03-01T18:50:44.058744,1633577,1165,1921,44,-781,-492,-264,-50,166,-260
0,2023-03-01T18:50:44.063779,1633583,1165,1921,44,-781,-492,-264,-50,166,-260
0,2023-03-01T18:50:44.068623,1633588,1162,1923,49,-778,-504,-266,-50,166,-260
0,2023-03-01T18:50:44.075007,1633594,1162,1923,49,-778,-504,-266,-50,166,-260
0,2023-03-01T18:50:44.079971,1633599,1162,1923,49,-778,-504,-266,-50,166,-260
0,2023-03-01T18:50:44.085099,1633604,1160,1923,42,-785,-503,-265,-50,166,-260
0,2023-03-01T18:50:44.090997,1633610,1160,1923,42,-785,-503,-265,-50,166,-260
0,2023-03-01T18:50:44.095690,1633614,1160,1923,42,-785,-503,-265,-50,166,-260
0,2023-03-01T18:50:44.100427,1633619,1160,1923,42,-785,-503,-265,-50,166,-260
0,2023-03-01T18:50:44.105252,1633625,1166,1923,51,-774,-498,-265,-67,171,-271
0,2023-03-01T18:50:44.111496,1633631,1166,1923,51,-774,-498,-265,-67,171,-271
0,2023-03-01T18:50:44.116462,1633636,1166,1923,51,-774,-498,-265,-67,171,-271
0,2023-03-01T18:50:44.121648,1633640,1166,1923,51,-774,-498,-265,-67,171,-271
0,2023-03-01T18:50:44.127538,1633646,1161,1924,53,-769,-508,-266,-67,171,-271
0,2023-03-01T18:50:44.133252,1633652,1161,1924,53,-769,-508,-266,-67,171,-271
0,2023-03-01T18:50:44.138149,1633657,1161,1924,53,-769,-508,-266,-67,171,-271
0,2023-03-01T18:50:44.143075,1633662,1161,1924,53,-769,-508,-266,-67,171,-271
0,2023-03-01T18:50:44.147793,1633667,1160,1935,43,-769,-488,-256,-67,171,-271
0,2023-03-01T18:50:44.153701,1633673,1160,1935,43,-769,-488,-256,-67,171,-271
0,2023-03-01T18:50:44.158571,1633678,1160,1935,43,-769,-488,-256,-67,171,-271
0,2023-03-01T18:50:44.164101,1633682,1160,1935,43,-769,-488,-256,-67,171,-271
0,2023-03-01T18:50:44.168659,1633688,1168,1925,37,-764,-493,-256,-67,171,-271
0,2023-03-01T18:50:44.174727,1633693,1168,1925,37,-764,-493,-256,-67,171,-271
0,2023-03-01T18:50:44.179346,1633698,1168,1925,37,-764,-493,-256,-67,171,-271
0,2023-03-01T18:50:44.184240,1633703,1162,1919,41,-788,-491,-253,-67,171,-271
0,2023-03-01T18:50:44.189525,1633709,1162,1919,41,-788,-491,-253,-67,171,-271
0,2023-03-01T18:50:44.195593,1633715,1162,1919,41,-788,-491,-253,-67,171,-271
0,2023-03-01T18:50:44.200219,1633720,1162,1919,41,-788,-491,-253,-67,171,-271
0,2023-03-01T18:50:44.205091,1633724,1163,1925,42,-790,-505,-266,-67,171,-271
0,2023-03-01T18:50:44.210484,1633729,1163,1925,42,-790,-505,-266,-67,171,-271
0,2023-03-01T18:50:44.215260,1633734,1163,1925,42,-790,-505,-266,-67,171,-271
0,2023-03-01T18:50:44.220588,1633739,1163,1925,42,-790,-505,-266,-67,171,-271
0,2023-03-01T18:50:44.225477,1633744,1163,1925,38,-787,-503,-265,-54,166,-274
0,2023-03-01T18:50:44.231962,1633750,1163,1925,38,-787,-503,-265,-54,166,-274
0,2023-03-01T18:50:44.237355,1633757,1163,1925,38,-787,-503,-265,-54,166,-274
0,2023-03-01T18:50:44.242437,1633761,1163,1925,38,-787,-503,-265,-54,166,-274
0,2023-03-01T18:50:44.247932,1633766,1164,1925,48,-781,-488,-265,-54,166,-274
0,2023-03-01T18:50:44.254116,1633773,1164,1925,48,-781,-488,-265,-54,166,-274
0,2023-03-01T18:50:44.258964,1633778,1164,1925,48,-781,-488,-265,-54,166,-274
0,2023-03-01T18:50:44.264457,1633783,1164,1925,48,-781,-488,-265,-54,166,-274
0,2023-03-01T18:50:44.269452,1633788,1166,1923,43,-782,-508,-253,-54,166,-274
0,2023-03-01T18:50:44.276307,1633796,1166,1923,43,-782,-508,-253,-54,166,-274
0,2023-03-01T18:50:44.281059,1633800,1166,1923,43,-782,-508,-253,-54,166,-274
0,2023-03-01T18:50:44.286364,1633805,1167,1922,39,-773,-494,-258,-54,166,-274
0,2023-03-01T18:50:44.292723,1633812,1167,1922,39,-773,-494,-258,-54,166,-274
0,2023-03-01T18:50:44.298430,1633817,1167,1922,39,-773,-494,-258,-54,166,-274
0,2023-03-01T18:50:44.303827,1633822,1167,1922,39,-773,-494,-258,-54,166,-274
0,2023-03-01T18:50:44.308621,1633827,1165,1919,36,-772,-515,-262,-54,166,-274
0,2023-03-01T18:50:44.315219,1633833,1165,1919,36,-772,-515,-262,-54,166,-274
0,2023-03-01T18:50:44.320530,1633840,1165,1919,36,-772,-515,-262,-54,166,-274
0,2023-03-01T18:50:44.325630,1633845,1166,1923,37,-773,-497,-269,-54,166,-274
0,2023-03-01T18:50:44.332103,1633851,1166,1923,37,-773,-497,-269,-54,166,-274
0,2023-03-01T18:50:44.337825,1633856,1166,1923,37,-773,-497,-269,-54,166,-274
0,2023-03-01T18:50:44.342601,1633861,1166,1923,37,-773,-497,-269,-54,166,-274
0,2023-03-01T18:50:44.347500,1633866,1167,1925,35,-780,-489,-265,-54,166,-274
0,2023-03-01T18:50:44.353480,1633872,1167,1925,35,-780,-489,-265,-54,166,-274
0,2023-03-01T18:50:44.360441,1633880,1167,1925,35,-780,-489,-265,-54,166,-274
0,2023-03-01T18:50:44.366053,1633885,1164,1925,36,-771,-492,-256,-50,168,-270
0,2023-03-01T18:50:44.372528,1633891,1164,1925,36,-771,-492,-256,-50,168,-270
0,2023-03-01T18:50:44.377818,1633896,1164,1925,36,-771,-492,-256,-50,168,-270
0,2023-03-01T18:50:44.382808,1633901,1164,1925,36,-771,-492,-256,-50,168,-270
0,2023-03-01T18:50:44.389193,1633907,1168,1928,34,-790,-493,-262,-50,168,-270
0,2023-03-01T18:50:44.395298,1633914,1168,1928,34,-790,-493,-262,-50,168,-270
0,2023-03-01T18:50:44.400375,1633920,1168,1928,34,-790,-493,-262,-50,168,-270
0,2023-03-01T18:50:44.405679,1633925,1170,1927,33,-785,-499,-265,-50,168,-270
0,2023-03-01T18:50:44.411891,1633931,1170,1927,33,-785,-499,-265,-50,168,-270
0,2023-03-01T18:50:44.417296,1633936,1170,1927,33,-785,-499,-265,-50,168,-270
0,2023-03-01T18:50:44.422259,1633941,1170,1927,33,-785,-499,-265,-50,168,-270
0,2023-03-01T18:50:44.426910,1633946,1170,1927,33,-785,-499,-265,-50,168,-270
0,2023-03-01T18:50:44.433118,1633951,1170,1927,33,-785,-499,-265,-50,168,-270
0,2023-03-01T18:50:44.438494,1633957,1170,1927,33,-785,-499,-265,-50,168,-270
0,2023-03-01T18:50:44.443505,1633963,1170,1927,33,-785,-499,-265,-50,168,-270
0,2023-03-01T18:50:44.448285,1633968,1169,1923,25,-780,-508,-270,-50,168,-270
0,2023-03-01T18:50:44.454894,1633974,1169,1923,25,-780,-508,-270,-50,168,-270
0,2023-03-01T18:50:44.460057,1633979,1169,1923,25,-780,-508,-270,-50,168,-270
0,2023-03-01T18:50:44.464747,1633984,1166,1921,29,-778,-500,-260,-50,168,-270
0,2023-03-01T18:50:44.470329,1633989,1166,1921,29,-778,-500,-260,-50,168,-270
0,2023-03-01T18:50:44.476162,1633995,1166,1921,29,-778,-500,-260,-50,168,-270
0,2023-03-01T18:50:44.481550,1634000,1166,1921,29,-778,-500,-260,-50,168,-270
0,2023-03-01T18:50:44.486282,1634006,1168,1925,29,-788,-496,-266,-59,169,-265
0,2023-03-01T18:50:44.492661,1634012,1168,1925,29,-788,-496,-266,-59,169,-265
0,2023-03-01T18:50:44.498076,1634017,1168,1925,29,-788,-496,-266,-59,169,-265
0,2023-03-01T18:50:44.503043,1634022,1168,1925,29,-788,-496,-266,-59,169,-265
0,2023-03-01T18:50:44.507740,1634027,1166,1926,30,-774,-496,-258,-59,169,-265
0,2023-03-01T18:50:44.513858,1634032,1166,1926,30,-774,-496,-258,-59,169,-265
0,2023-03-01T18:50:44.519031,1634037,1166,1926,30,-774,-496,-258,-59,169,-265
0,2023-03-01T18:50:44.523908,1634042,1166,1926,30,-774,-496,-258,-59,169,-265
0,2023-03-01T18:50:44.528354,1634048,1173,1928,29,-791,-490,-263,-59,169,-265
0,2023-03-01T18:50:44.534135,1634053,1173,1928,29,-791,-490,-263,-59,169,-265
0,2023-03-01T18:50:44.539056,1634058,1173,1928,29,-791,-490,-263,-59,169,-265
0,2023-03-01T18:50:44.543840,1634063,1173,1928,29,-791,-490,-263,-59,169,-265
0,2023-03-01T18:50:44.548725,1634068,1165,1924,25,-780,-507,-260,-59,169,-265
0,2023-03-01T18:50:44.555360,1634074,1165,1924,25,-780,-507,-260,-59,169,-265
0,2023-03-01T18:50:44.559977,1634079,1165,1924,25,-780,-507,-260,-59,169,-265
0,2023-03-01T18:50:44.564549,1634083,1172,1925,20,-792,-506,-259,-59,169,-265
0,2023-03-01T18:50:44.569909,1634088,1172,1925,20,-792,-506,-259,-59,169,-265
0,2023-03-01T18:50:44.575384,1634095,1172,1925,20,-792,-506,-259,-59,169,-265
0,2023-03-01T18:50:44.580510,1634100,1172,1925,20,-792,-506,-259,-59,169,-265
0,2023-03-01T18:50:44.586041,1634105,1172,1924,25,-789,-494,-268,-59,169,-265
0,2023-03-01T18:50:44.591781,1634111,1172,1924,25,-789,-494,-268,-59,169,-265
0,2023-03-01T18:50:44.596571,1634115,1172,1924,25,-789,-494,-268,-59,169,-265
0,2023-03-01T18:50:44.601665,1634120,1172,1924,25,-789,-494,-268,-59,169,-265
0,2023-03-01T18:50:44.606561,1634125,1166,1920,19,-782,-504,-260,-59,169,-265
0,2023-03-01T18:50:44.612982,1634131,1166,1920,19,-782,-504,-260,-59,169,-265
0,2023-03-01T18:50:44.618276,1634138,1166,1920,19,-782,-504,-260,-59,169,-265
0,2023-03-01T18:50:44.623522,1634143,1166,1920,19,-782,-504,-260,-59,169,-265
0,2023-03-01T18:50:44.628519,1634147,1171,1928,28,-798,-501,-273,-59,157,-269
0,2023-03-01T18:50:44.635608,1634154,1171,1928,28,-798,-501,-273,-59,157,-269
0,2023-03-01T18:50:44.640327,1634159,1171,1928,28,-798,-501,-273,-59,157,-269
0,2023-03-01T18:50:44.645200,1634164,1166,1927,19,-778,-513,-264,-59,157,-269
0,2023-03-01T18:50:44.651180,1634170,1166,1927,19,-778,-513,-264,-59,157,-269
0,2023-03-01T18:50:44.655936,1634174,1166,1927,19,-778,-513,-264,-59,157,-269
0,2023-03-01T18:50:44.660857,1634180,1166,1927,19,-778,-513,-264,-59,157,-269
0,2023-03-01T18:50:44.665507,1634185,1169,1928,17,-796,-490,-262,-59,157,-269
0,2023-03-01T18:50:44.671258,1634190,1169,1928,17,-796,-490,-262,-59,157,-269
0,2023-03-01T18:50:44.675899,1634195,1169,1928,17,-796,-490,-262,-59,157,-269
0,2023-03-01T18:50:44.680811,1634200,1169,1928,17,-796,-490,-262,-59,157,-269
0,2023-03-01T18:50:44.686099,1634204,1170,1928,17,-789,-501,-265,-59,157,-269
0,2023-03-01T18:50:44.691890,1634210,1170,1928,17,-789,-501,-265,-59,157,-269
0,2023-03-01T18:50:44.696674,1634215,1170,1928,17,-789,-501,-265,-59,157,-269
0,2023-03-01T18:50:44.701771,1634221,1170,1928,17,-789,-501,-265,-59,157,-269
0,2023-03-01T18:50:44.706574,1634226,1166,1926,16,-790,-492,-265,-59,157,-269
0,2023-03-01T18:50:44.712892,1634232,1166,1926,16,-790,-492,-265,-59,157,-269
0,2023-03-01T18:50:44.718472,1634237,1166,1926,16,-790,-492,-265,-59,157,-269
0,2023-03-01T18:50:44.723406,1634242,1166,1926,16,-790,-492,-265,-59,157,-269
0,2023-03-01T18:50:44.728179,1634247,1171,1926,20,-771,-483,-271,-59,157,-269
0,2023-03-01T18:50:44.734373,1634253,1171,1926,20,-771,-483,-271,-59,157,-269
0,2023-03-01T18:50:44.739062,1634258,1171,1926,20,-771,-483,-271,-59,157,-269
0,2023-03-01T18:50:44.743417,1634263,1171,1926,20,-771,-483,-271,-59,157,-269
0,2023-03-01T18:50:44.749171,1634267,1170,1929,11,-777,-510,-263,-61,173,-271
0,2023-03-01T18:50:44.755048,1634274,1170,1929,11,-777,-510,-263,-61,173,-271
0,2023-03-01T18:50:44.759711,1634279,1170,1929,11,-777,-510,-263,-61,173,-271
0,2023-03-01T18:50:44.764165,1634283,1170,1929,11,-777,-510,-263,-61,173,-271
0,2023-03-01T18:50:44.769078,1634288,1172,1933,18,-794,-505,-268,-61,173,-271
0,2023-03-01T18:50:44.775012,1634294,1172,1933,18,-794,-505,-268,-61,173,-271
0,2023-03-01T18:50:44.780105,1634298,1172,1933,18,-794,-505,-268,-61,173,-271
0,2023-03-01T18:50:44.785099,1634304,1169,1924,10,-788,-508,-265,-61,173,-271
0,2023-03-01T18:50:44.790248,1634310,1169,1924,10,-788,-508,-265,-61,173,-271
0,2023-03-01T18:50:44.796260,1634315,1169,1924,10,-788,-508,-265,-61,173,-271
0,2023-03-01T18:50:44.801305,1634320,1169,1924,10,-788,-508,-265,-61,173,-271
0,2023-03-01T18:50:44.806370,1634325,1171,1924,17,-797,-501,-264,-61,173,-271
0,2023-03-01T18:50:44.812481,1634331,1171,1924,17,-797,-501,-264,-61,173,-271
0,2023-03-01T18:50:44.817792,1634336,1171,1924,17,-797,-501,-264,-61,173,-271
0,2023-03-01T18:50:44.822558,1634341,1171,1924,17,-797,-501,-264,-61,173,-271
0,2023-03-01T18:50:44.827695,1634347,1169,1928,9,-789,-510,-263,-61,173,-271
0,2023-03-01T18:50:44.833941,1634353,1169,1928,9,-789,-510,-263,-61,173,-271
0,2023-03-01T18:50:44.840066,1634359,1169,1928,9,-789,-510,-263,-61,173,-271
0,2023-03-01T18:50:44.845401,1634364,1172,1927,12,-789,-498,-266,-61,173,-271
0,2023-03-01T18:50:44.851916,1634371,1172,1927,12,-789,-498,-266,-61,173,-271
0,2023-03-01T18:50:44.857711,1634376,1172,1927,12,-789,-498,-266,-61,173,-271
0,2023-03-01T18:50:44.862510,1634381,1172,1927,12,-789,-498,-266,-61,173,-271
0,2023-03-01T18:50:44.867860,1634386,1172,1930,13,-790,-492,-269,-61,173,-271
0,2023-03-01T18:50:44.873937,1634393,1172,1930,13,-790,-492,-269,-61,173,-271
0,2023-03-01T18:50:44.879944,1634399,1172,1930,13,-790,-492,-269,-61,173,-271
0,2023-03-01T18:50:44.885278,1634404,1172,1930,13,-790,-492,-269,-61,173,-271
0,2023-03-01T18:50:44.891617,1634410,1168,1930,12,-786,-500,-264,-53,175,-265
0,2023-03-01T18:50:44.898261,1634417,1168,1930,12,-786,-500,-264,-53,175,-265
0,2023-03-01T18:50:44.903761,1634422,1168,1930,12,-786,-500,-264,-53,175,-265
0,2023-03-01T18:50:44.908998,1634427,1172,1927,9,-786,-498,-268,-53,175,-265
0,2023-03-01T18:50:44.915527,1634435,1172,1927,9,-786,-498,-268,-53,175,-265
0,2023-03-01T18:50:44.921222,1634440,1172,1927,9,-786,-498,-268,-53,175,-265
0,2023-03-01T18:50:44.926414,1634446,1173,1926,2,-782,-510,-268,-53,175,-265
0,2023-03-01T18:50:44.931174,1634450,1173,1926,2,-782,-510,-268,-53,175,-265
0,2023-03-01T18:50:44.936361,1634455,1173,1926,2,-782,-510,-268,-53,175,-265
0,2023-03-01T18:50:44.941325,1634460,1173,1926,2,-782,-510,-268,-53,175,-265
0,2023-03-01T18:50:44.946468,1634465,1170,1930,5,-790,-504,-267,-53,175,-265
0,2023-03-01T18:50:44.952554,1634471,1170,1930,5,-790,-504,-267,-53,175,-265
0,2023-03-01T18:50:44.958228,1634477,1170,1930,5,-790,-504,-267,-53,175,-265
0,2023-03-01T18:50:44.963236,1634482,1170,1930,5,-790,-504,-267,-53,175,-265
0,2023-03-01T18:50:44.968010,1634487,1174,1929,7,-790,-505,-267,-53,175,-265
0,2023-03-01T18:50:44.973704,1634493,1174,1929,7,-790,-505,-267,-53,175,-265
0,2023-03-01T18:50:44.979609,1634498,1174,1929,7,-790,-505,-267,-53,175,-265
0,2023-03-01T18:50:44.984756,1634503,1174,1929,7,-790,-505,-267,-53,175,-265
0,2023-03-01T18:50:44.990046,1634509,1171,1926,7,-787,-517,-263,-53,175,-265
0,2023-03-01T18:50:44.997563,1634515,1171,1926,7,-787,-517,-263,-53,175,-265
0,2023-03-01T18:50:45.002638,1634522,1171,1926,7,-787,-517,-263,-53,175,-265
0,2023-03-01T18:50:45.007425,1634527,1173,1932,12,-802,-499,-268,-59,169,-261
0,2023-03-01T18:50:45.013468,1634533,1173,1932,12,-802,-499,-268,-59,169,-261
0,2023-03-01T18:50:45.018253,1634537,1173,1932,12,-802,-499,-268,-59,169,-261
0,2023-03-01T18:50:45.023142,1634542,1173,1932,12,-802,-499,-268,-59,169,-261
0,2023-03-01T18:50:45.028241,1634547,1168,1927,1,-789,-517,-266,-59,169,-261
0,2023-03-01T18:50:45.035349,1634554,1168,1927,1,-789,-517,-266,-59,169,-261
0,2023-03-01T18:50:45.040730,1634560,1168,1927,1,-789,-517,-266,-59,169,-261
0,2023-03-01T18:50:45.045951,1634565,1177,1930,6,-798,-492,-274,-59,169,-261
0,2023-03-01T18:50:45.051970,1634571,1177,1930,6,-798,-492,-274,-59,169,-261
0,2023-03-01T18:50:45.058157,1634577,1177,1930,6,-798,-492,-274,-59,169,-261
0,2023-03-01T18:50:45.062880,1634582,1177,1930,6,-798,-492,-274,-59,169,-261
0,2023-03-01T18:50:45.067231,1634586,1171,1930,-1,-790,-507,-273,-59,169,-261
0,2023-03-01T18:50:45.073425,1634592,1171,1930,-1,-790,-507,-273,-59,169,-261
0,2023-03-01T18:50:45.079193,1634598,1171,1930,-1,-790,-507,-273,-59,169,-261
0,2023-03-01T18:50:45.084222,1634604,1171,1930,-1,-790,-507,-273,-59,169,-261
0,2023-03-01T18:50:45.089453,1634609,1170,1927,-11,-792,-503,-274,-59,169,-261
0,2023-03-01T18:50:45.095552,1634614,1170,1927,-11,-792,-503,-274,-59,169,-261
0,2023-03-01T18:50:45.100347,1634619,1170,1927,-11,-792,-503,-274,-59,169,-261
0,2023-03-01T18:50:45.106999,1634626,1173,1929,-2,-795,-499,-280,-59,169,-261
0,2023-03-01T18:50:45.113248,1634632,1173,1929,-2,-795,-499,-280,-59,169,-261
0,2023-03-01T18:50:45.118179,1634637,1173,1929,-2,-795,-499,-280,-59,169,-261
0,2023-03-01T18:50:45.122843,1634641,1173,1929,-2,-795,-499,-280,-59,169,-261
0,2023-03-01T18:50:45.127500,1634647,1173,1929,-2,-795,-499,-280,-60,174,-278
0,2023-03-01T18:50:45.133181,1634652,1173,1929,-2,-795,-499,-280,-60,174,-278
0,2023-03-01T18:50:45.137812,1634657,1173,1929,-2,-795,-499,-280,-60,174,-278
0,2023-03-01T18:50:45.142922,1634662,1173,1929,-2,-795,-499,-280,-60,174,-278
0,2023-03-01T18:50:45.147559,1634667,1177,1929,-2,-809,-505,-273,-60,174,-278
0,2023-03-01T18:50:45.153630,1634672,1177,1929,-2,-809,-505,-273,-60,174,-278
0,2023-03-01T18:50:45.158669,1634677,1177,1929,-2,-809,-505,-273,-60,174,-278
0,2023-03-01T18:50:45.163907,1634682,1177,1929,-2,-809,-505,-273,-60,174,-278
0,2023-03-01T18:50:45.168840,1634688,1173,1931,-4,-784,-512,-278,-60,174,-278
0,2023-03-01T18:50:45.175432,1634695,1173,1931,-4,-784,-512,-278,-60,174,-278
0,2023-03-01T18:50:45.180374,1634699,1173,1931,-4,-784,-512,-278,-60,174,-278
0,2023-03-01T18:50:45.185194,1634704,1174,1927,-8,-791,-498,-277,-60,174,-278
0,2023-03-01T18:50:45.191433,1634710,1174,1927,-8,-791,-498,-277,-60,174,-278
0,2023-03-01T18:50:45.196172,1634715,1174,1927,-8,-791,-498,-277,-60,174,-278
0,2023-03-01T18:50:45.201323,1634720,1174,1927,-8,-791,-498,-277,-60,174,-278
0,2023-03-01T18:50:45.206675,1634725,1174,1928,-7,-792,-510,-271,-60,174,-278
0,2023-03-01T18:50:45.214225,1634732,1174,1928,-7,-792,-510,-271,-60,174,-278
0,2023-03-01T18:50:45.219181,1634738,1174,1928,-7,-792,-510,-271,-60,174,-278
0,2023-03-01T18:50:45.224052,1634743,1174,1928,-7,-792,-510,-271,-60,174,-278
0,2023-03-01T18:50:45.228706,1634748,1169,1932,-12,-794,-505,-268,-60,174,-278
0,2023-03-01T18:50:45.234921,1634754,1169,1932,-12,-794,-505,-268,-60,174,-278
0,2023-03-01T18:50:45.239442,1634758,1169,1932,-12,-794,-505,-268,-60,174,-278
0,2023-03-01T18:50:45.244523,1634763,1169,1932,-12,-794,-505,-268,-60,174,-278
0,2023-03-01T18:50:45.249067,1634768,1173,1928,-10,-794,-499,-273,-60,174,-278
0,2023-03-01T18:50:45.255247,1634775,1173,1928,-10,-794,-499,-273,-60,174,-278
0,2023-03-01T18:50:45.259987,1634779,1173,1928,-10,-794,-499,-273,-60,174,-278
0,2023-03-01T18:50:45.265157,1634784,1173,1928,-10,-794,-499,-273,-60,174,-278
0,2023-03-01T18:50:45.270128,1634789,1175,1929,-11,-794,-508,-270,-60,172,-274
0,2023-03-01T18:50:45.276441,1634795,1175,1929,-11,-794,-508,-270,-60,172,-274
0,2023-03-01T18:50:45.281333,1634800,1175,1929,-11,-794,-508,-270,-60,172,-274
0,2023-03-01T18:50:45.286184,1634805,1178,1932,-4,-798,-489,-285,-60,172,-274
0,2023-03-01T18:50:45.291941,1634810,1178,1932,-4,-798,-489,-285,-60,172,-274
0,2023-03-01T18:50:45.297594,1634817,1178,1932,-4,-798,-489,-285,-60,172,-274
0,2023-03-01T18:50:45.302549,1634822,1178,1932,-4,-798,-489,-285,-60,172,-274
0,2023-03-01T18:50:45.307791,1634827,1176,1928,-12,-786,-516,-271,-60,172,-274
0,2023-03-01T18:50:45.313819,1634833,1176,1928,-12,-786,-516,-271,-60,172,-274
0,2023-03-01T18:50:45.318580,1634838,1176,1928,-12,-786,-516,-271,-60,172,-274
0,2023-03-01T18:50:45.323723,1634842,1176,1928,-12,-786,-516,-271,-60,172,-274
0,2023-03-01T18:50:45.328650,1634847,1175,1934,-15,-811,-500,-276,-60,172,-274
0,2023-03-01T18:50:45.334617,1634853,1175,1934,-15,-811,-500,-276,-60,172,-274
0,2023-03-01T18:50:45.340345,1634860,1175,1934,-15,-811,-500,-276,-60,172,-274
0,2023-03-01T18:50:45.345237,1634865,1175,1934,-15,-811,-500,-276,-60,172,-274
0,2023-03-01T18:50:45.350380,1634869,1175,1930,-10,-791,-524,-279,-60,172,-274
0,2023-03-01T18:50:45.356556,1634875,1175,1930,-10,-791,-524,-279,-60,172,-274
0,2023-03-01T18:50:45.361515,1634880,1175,1930,-10,-791,-524,-279,-60,172,-274
0,2023-03-01T18:50:45.366318,1634885,1175,1930,-13,-802,-517,-270,-60,172,-274
0,2023-03-01T18:50:45.372298,1634891,1175,1930,-13,-802,-517,-270,-60,172,-274
0,2023-03-01T18:50:45.378115,1634897,1175,1930,-13,-802,-517,-270,-60,172,-274
0,2023-03-01T18:50:45.384629,1634903,1175,1930,-13,-802,-517,-270,-60,172,-274
0,2023-03-01T18:50:45.389652,1634909,1177,1930,-16,-805,-508,-267,-56,164,-268
0,2023-03-01T18:50:45.396523,1634916,1177,1930,-16,-805,-508,-267,-56,164,-268
0,2023-03-01T18:50:45.401465,1634920,1177,1930,-16,-805,-508,-267,-56,164,-268
0,2023-03-01T18:50:45.406647,1634925,1174,1931,-8,-794,-511,-269,-56,164,-268
0,2023-03-01T18:50:45.412825,1634932,1174,1931,-8,-794,-511,-269,-56,164,-268
0,2023-03-01T18:50:45.417575,1634936,1174,1931,-8,-794,-511,-269,-56,164,-268
0,2023-03-01T18:50:45.422395,1634941,1174,1931,-8,-794,-511,-269,-56,164,-268
0,2023-03-01T18:50:45.427364,1634947,1175,1928,-15,-799,-509,-275,-56,164,-268
0,2023-03-01T18:50:45.433272,1634952,1175,1928,-15,-799,-509,-275,-56,164,-268
0,2023-03-01T18:50:45.439659,1634959,1175,1928,-15,-799,-509,-275,-56,164,-268
0,2023-03-01T18:50:45.444638,1634963,1175,1928,-15,-799,-509,-275,-56,164,-268
0,2023-03-01T18:50:45.449170,1634968,1173,1932,-21,-797,-522,-279,-56,164,-268
0,2023-03-01T18:50:45.455934,1634974,1173,1932,-21,-797,-522,-279,-56,164,-268
0,2023-03-01T18:50:45.460390,1634979,1173,1932,-21,-797,-522,-279,-56,164,-268
0,2023-03-01T18:50:45.465595,1634984,1173,1932,-21,-797,-522,-279,-56,164,-268
0,2023-03-01T18:50:45.471382,1634991,1175,1935,-23,-802,-502,-278,-56,164,-268
0,2023-03-01T18:50:45.477222,1634996,1175,1935,-23,-802,-502,-278,-56,164,-268
0,2023-03-01T18:50:45.482225,1635001,1175,1935,-23,-802,-502,-278,-56,164,-268
0,2023-03-01T18:50:45.487168,1635006,1176,1930,-21,-797,-503,-275,-56,164,-268
0,2023-03-01T18:50:45.493141,1635012,1176,1930,-21,-797,-503,-275,-56,164,-268
0,2023-03-01T18:50:45.497929,1635017,1176,1930,-21,-797,-503,-275,-56,164,-268
0,2023-03-01T18:50:45.502779,1635021,1176,1930,-21,-797,-503,-275,-56,164,-268
0,2023-03-01T18:50:45.507631,1635026,1177,1930,-27,-796,-502,-279,-56,164,-268
0,2023-03-01T18:50:45.513373,1635033,1177,1930,-27,-796,-502,-279,-56,164,-268
0,2023-03-01T18:50:45.518997,1635038,1177,1930,-27,-796,-502,-279,-56,164,-268
0,2023-03-01T18:50:45.524080,1635043,1177,1930,-27,-796,-502,-279,-56,164,-268
0,2023-03-01T18:50:45.528972,1635048,1178,1933,-25,-804,-506,-288,-59,167,-269
0,2023-03-01T18:50:45.535074,1635054,1178,1933,-25,-804,-506,-288,-59,167,-269
0,2023-03-01T18:50:45.539939,1635059,1178,1933,-25,-804,-506,-288,-59,167,-269
0,2023-03-01T18:50:45.544532,1635063,1178,1933,-25,-804,-506,-288,-59,167,-269
0,2023-03-01T18:50:45.549508,1635068,1176,1931,-24,-800,-515,-274,-59,167,-269
0,2023-03-01T18:50:45.555518,1635075,1176,1931,-24,-800,-515,-274,-59,167,-269
0,2023-03-01T18:50:45.560608,1635080,1176,1931,-24,-800,-515,-274,-59,167,-269
0,2023-03-01T18:50:45.565285,1635084,1176,1931,-24,-800,-515,-274,-59,167,-269
0,2023-03-01T18:50:45.570540,1635090,1181,1937,-22,-799,-512,-278,-59,167,-269
0,2023-03-01T18:50:45.576487,1635095,1181,1937,-22,-799,-512,-278,-59,167,-269
0,2023-03-01T18:50:45.581561,1635100,1181,1937,-22,-799,-512,-278,-59,167,-269
0,2023-03-01T18:50:45.586428,1635105,1181,1937,-22,-799,-512,-278,-59,167,-269
0,2023-03-01T18:50:45.591715,1635110,1181,1937,-22,-799,-512,-278,-59,167,-269
0,2023-03-01T18:50:45.597695,1635117,1181,1937,-22,-799,-512,-278,-59,167,-269
0,2023-03-01T18:50:45.602472,1635122,1181,1937,-22,-799,-512,-278,-59,167,-269
0,2023-03-01T18:50:45.607488,1635127,1175,1933,-33,-802,-504,-278,-59,167,-269
0,2023-03-01T18:50:45.613111,1635132,1175,1933,-33,-802,-504,-278,-59,167,-269
0,2023-03-01T18:50:45.617887,1635137,1175,1933,-33,-802,-504,-278,-59,167,-269
0,2023-03-01T18:50:45.622482,1635141,1175,1933,-33,-802,-504,-278,-59,167,-269
0,2023-03-01T18:50:45.627345,1635146,1177,1932,-36,-802,-510,-279,-59,167,-269
0,2023-03-01T18:50:45.633545,1635152,1177,1932,-36,-802,-510,-279,-59,167,-269
0,2023-03-01T18:50:45.639019,1635159,1177,1932,-36,-802,-510,-279,-59,167,-269
0,2023-03-01T18:50:45.643738,1635163,1177,1932,-36,-802,-510,-279,-59,167,-269
0,2023-03-01T18:50:45.648497,1635168,1180,1936,-27,-791,-520,-272,-52,164,-272
0,2023-03-01T18:50:45.654843,1635174,1180,1936,-27,-791,-520,-272,-52,164,-272
0,2023-03-01T18:50:45.660613,1635180,1180,1936,-27,-791,-520,-272,-52,164,-272
0,2023-03-01T18:50:45.665632,1635185,1180,1936,-27,-791,-520,-272,-52,164,-272
0,2023-03-01T18:50:45.671235,1635190,1177,1934,-29,-800,-513,-271,-52,164,-272
0,2023-03-01T18:50:45.677598,1635196,1177,1934,-29,-800,-513,-271,-52,164,-272
0,2023-03-01T18:50:45.682930,1635202,1177,1934,-29,-800,-513,-271,-52,164,-272
0,2023-03-01T18:50:45.687690,1635207,1177,1933,-31,-806,-519,-273,-52,164,-272
0,2023-03-01T18:50:45.693238,1635212,1177,1933,-31,-806,-519,-273,-52,164,-272
0,2023-03-01T18:50:45.698078,1635217,1177,1933,-31,-806,-519,-273,-52,164,-272
0,2023-03-01T18:50:45.702980,1635222,1177,1933,-31,-806,-519,-273,-52,164,-272
0,2023-03-01T18:50:45.707841,1635226,1177,1933,-36,-803,-513,-279,-52,164,-272
0,2023-03-01T18:50:45.713914,1635233,1177,1933,-36,-803,-513,-279,-52,164,-272
0,2023-03-01T18:50:45.718575,1635237,1177,1933,-36,-803,-513,-279,-52,164,-272
0,2023-03-01T18:50:45.723445,1635243,1177,1933,-36,-803,-513,-279,-52,164,-272
0,2023-03-01T18:50:45.728468,1635248,1176,1934,-32,-803,-513,-271,-52,164,-272
0,2023-03-01T18:50:45.734854,1635254,1176,1934,-32,-803,-513,-271,-52,164,-272
0,2023-03-01T18:50:45.740428,1635260,1176,1934,-32,-803,-513,-271,-52,164,-272
0,2023-03-01T18:50:45.745152,1635264,1176,1934,-32,-803,-513,-271,-52,164,-272
0,2023-03-01T18:50:45.750278,1635269,1177,1928,-34,-808,-508,-268,-52,164,-272
0,2023-03-01T18:50:45.756454,1635275,1177,1928,-34,-808,-508,-268,-52,164,-272
0,2023-03-01T18:50:45.761756,1635280,1177,1928,-34,-808,-508,-268,-52,164,-272
0,2023-03-01T18:50:45.767253,1635286,1177,1933,-34,-810,-514,-286,-52,164,-272
0,2023-03-01T18:50:45.773475,1635293,1177,1933,-34,-810,-514,-286,-52,164,-272
0,2023-03-01T18:50:45.778306,1635297,1177,1933,-34,-810,-514,-286,-52,164,-272
0,2023-03-01T18:50:45.783194,1635302,1177,1933,-34,-810,-514,-286,-52,164,-272
0,2023-03-01T18:50:45.788090,1635307,1179,1934,-39,-797,-513,-283,-52,172,-272
0,2023-03-01T18:50:45.794760,1635313,1179,1934,-39,-797,-513,-283,-52,172,-272
0,2023-03-01T18:50:45.800200,1635319,1179,1934,-39,-797,-513,-283,-52,172,-272
0,2023-03-01T18:50:45.804774,1635323,1179,1934,-39,-797,-513,-283,-52,172,-272
0,2023-03-01T18:50:45.810021,1635329,1181,1935,-34,-814,-501,-275,-52,172,-272
0,2023-03-01T18:50:45.816724,1635336,1181,1935,-34,-814,-501,-275,-52,172,-272
0,2023-03-01T18:50:45.821256,1635341,1181,1935,-34,-814,-501,-275,-52,172,-272
0,2023-03-01T18:50:45.826163,1635345,1177,1936,-31,-801,-511,-273,-52,172,-272
0,2023-03-01T18:50:45.832574,1635351,1177,1936,-31,-801,-511,-273,-52,172,-272
0,2023-03-01T18:50:45.838208,1635357,1177,1936,-31,-801,-511,-273,-52,172,-272
0,2023-03-01T18:50:45.842841,1635362,1177,1936,-31,-801,-511,-273,-52,172,-272
0,2023-03-01T18:50:45.847776,1635366,1180,1937,-41,-812,-507,-281,-52,172,-272
0,2023-03-01T18:50:45.853960,1635373,1180,1937,-41,-812,-507,-281,-52,172,-272
0,2023-03-01T18:50:45.859553,1635379,1180,1937,-41,-812,-507,-281,-52,172,-272
0,2023-03-01T18:50:45.864932,1635384,1180,1937,-41,-812,-507,-281,-52,172,-272
0,2023-03-01T18:50:45.869953,1635389,1178,1933,-40,-802,-516,-288,-52,172,-272
0,2023-03-01T18:50:45.877254,1635396,1178,1933,-40,-802,-516,-288,-52,172,-272
0,2023-03-01T18:50:45.882434,1635401,1178,1933,-40,-802,-516,-288,-52,172,-272
0,2023-03-01T18:50:45.887231,1635406,1180,1930,-40,-807,-510,-279,-52,172,-272
0,2023-03-01T18:50:45.893528,1635412,1180,1930,-40,-807,-510,-279,-52,172,-272
0,2023-03-01T18:50:45.898546,1635418,1180,1930,-40,-807,-510,-279,-52,172,-272
0,2023-03-01T18:50:45.903558,1635423,1180,1930,-40,-807,-510,-279,-52,172,-272
0,2023-03-01T18:50:45.908836,1635428,1180,1937,-44,-812,-514,-278,-66,168,-274
0,2023-03-01T18:50:45.914840,1635434,1180,1937,-44,-812,-514,-278,-66,168,-274
0,2023-03-01T18:50:45.919475,1635438,1180,1937,-44,-812,-514,-278,-66,168,-274
0,2023-03-01T18:50:45.924480,1635443,1180,1937,-44,-812,-514,-278,-66,168,-274
0,2023-03-01T18:50:45.930095,1635448,1179,1933,-44,-808,-514,-275,-66,168,-274
0,2023-03-01T18:50:45.936453,1635456,1179,1933,-44,-808,-514,-275,-66,168,-274
0,2023-03-01T18:50:45.941536,1635461,1179,1933,-44,-808,-514,-275,-66,168,-274
0,2023-03-01T18:50:45.946733,1635466,1179,1935,-42,-811,-502,-275,-66,168,-274
0,2023-03-01T18:50:45.952675,1635472,1179,1935,-42,-811,-502,-275,-66,168,-274
0,2023-03-01T18:50:45.958536,1635477,1179,1935,-42,-811,-502,-275,-66,168,-274
0,2023-03-01T18:50:45.963641,1635482,1179,1935,-42,-811,-502,-275,-66,168,-274
0,2023-03-01T18:50:45.968449,1635487,1181,1934,-43,-798,-509,-269,-66,168,-274
0,2023-03-01T18:50:45.974683,1635493,1181,1934,-43,-798,-509,-269,-66,168,-274
0,2023-03-01T18:50:45.979552,1635499,1181,1934,-43,-798,-509,-269,-66,168,-274
0,2023-03-01T18:50:45.984619,1635504,1181,1934,-43,-798,-509,-269,-66,168,-274
0,2023-03-01T18:50:45.990017,1635509,1181,1935,-44,-813,-510,-273,-66,168,-274
0,2023-03-01T18:50:45.997967,1635517,1181,1935,-44,-813,-510,-273,-66,168,-274
0,2023-03-01T18:50:46.002613,1635522,1181,1935,-44,-813,-510,-273,-66,168,-274
0,2023-03-01T18:50:46.007915,1635526,1179,1933,-42,-805,-524,-279,-66,168,-274
0,2023-03-01T18:50:46.014144,1635533,1179,1933,-42,-805,-524,-279,-66,168,-274
0,2023-03-01T18:50:46.019099,1635538,1179,1933,-42,-805,-524,-279,-66,168,-274
0,2023-03-01T18:50:46.024362,1635543,1179,1933,-42,-805,-524,-279,-66,168,-274
0,2023-03-01T18:50:46.029814,1635549,1179,1933,-45,-808,-503,-271,-50,166,-274
0,2023-03-01T18:50:46.035939,1635555,1179,1933,-45,-808,-503,-271,-50,166,-274
0,2023-03-01T18:50:46.040448,1635560,1179,1933,-45,-808,-503,-271,-50,166,-274
0,2023-03-01T18:50:46.045480,1635564,1179,1933,-45,-808,-503,-271,-50,166,-274
0,2023-03-01T18:50:46.050458,1635569,1184,1934,-46,-811,-500,-271,-50,166,-274
0,2023-03-01T18:50:46.056795,1635575,1184,1934,-46,-811,-500,-271,-50,166,-274
0,2023-03-01T18:50:46.061798,1635580,1184,1934,-46,-811,-500,-271,-50,166,-274
0,2023-03-01T18:50:46.067066,1635586,1182,1934,-50,-806,-516,-279,-50,166,-274
0,2023-03-01T18:50:46.073637,1635593,1182,1934,-50,-806,-516,-279,-50,166,-274
0,2023-03-01T18:50:46.079359,1635598,1182,1934,-50,-806,-516,-279,-50,166,-274
0,2023-03-01T18:50:46.084372,1635604,1182,1934,-50,-806,-516,-279,-50,166,-274
0,2023-03-01T18:50:46.089124,1635608,1183,1936,-49,-810,-500,-279,-50,166,-274
0,2023-03-01T18:50:46.094646,1635613,1183,1936,-49,-810,-500,-279,-50,166,-274
0,2023-03-01T18:50:46.100536,1635619,1183,1936,-49,-810,-500,-279,-50,166,-274
0,2023-03-01T18:50:46.105607,1635624,1183,1936,-49,-810,-500,-279,-50,166,-274
0,2023-03-01T18:50:46.111006,1635631,1182,1936,-56,-807,-515,-281,-50,166,-274
0,2023-03-01T18:50:46.116763,1635636,1182,1936,-56,-807,-515,-281,-50,166,-274
0,2023-03-01T18:50:46.122017,1635641,1182,1936,-56,-807,-515,-281,-50,166,-274
0,2023-03-01T18:50:46.126753,1635646,1186,1934,-55,-808,-507,-285,-50,166,-274
0,2023-03-01T18:50:46.132216,1635651,1186,1934,-55,-808,-507,-285,-50,166,-274
0,2023-03-01T18:50:46.137734,1635657,1186,1934,-55,-808,-507,-285,-50,166,-274
0,2023-03-01T18:50:46.142475,1635661,1186,1934,-55,-808,-507,-285,-50,166,-274
0,2023-03-01T18:50:46.147492,1635666,1179,1934,-55,-799,-518,-286,-50,166,-274
0,2023-03-01T18:50:46.153499,1635673,1179,1934,-55,-799,-518,-286,-50,166,-274
0,2023-03-01T18:50:46.159178,1635678,1179,1934,-55,-799,-518,-286,-50,166,-274
0,2023-03-01T18:50:46.164268,1635683,1179,1934,-55,-799,-518,-286,-50,166,-274
0,2023-03-01T18:50:46.169312,1635688,1174,1932,-49,-797,-508,-271,-60,172,-282
0,2023-03-01T18:50:46.175272,1635694,1174,1932,-49,-797,-508,-271,-60,172,-282
0,2023-03-01T18:50:46.181084,1635700,1174,1932,-49,-797,-508,-271,-60,172,-282
0,2023-03-01T18:50:46.185765,1635705,1174,1932,-49,-797,-508,-271,-60,172,-282
0,2023-03-01T18:50:46.191071,1635710,1188,1937,-65,-807,-500,-277,-60,172,-282
0,2023-03-01T18:50:46.197487,1635717,1188,1937,-65,-807,-500,-277,-60,172,-282
0,2023-03-01T18:50:46.202124,1635721,1188,1937,-65,-807,-500,-277,-60,172,-282
0,2023-03-01T18:50:46.206742,1635726,1183,1936,-55,-816,-520,-275,-60,172,-282
0,2023-03-01T18:50:46.213106,1635732,1183,1936,-55,-816,-520,-275,-60,172,-282
0,2023-03-01T18:50:46.218482,1635738,1183,1936,-55,-816,-520,-275,-60,172,-282
0,2023-03-01T18:50:46.223421,1635742,1183,1936,-55,-816,-520,-275,-60,172,-282
0,2023-03-01T18:50:46.228682,1635747,1184,1937,-57,-807,-505,-279,-60,172,-282
0,2023-03-01T18:50:46.234780,1635753,1184,1937,-57,-807,-505,-279,-60,172,-282
0,2023-03-01T18:50:46.241270,1635760,1184,1937,-57,-807,-505,-279,-60,172,-282
0,2023-03-01T18:50:46.245977,1635765,1184,1937,-57,-807,-505,-279,-60,172,-282
0,2023-03-01T18:50:46.251082,1635770,1182,1936,-53,-802,-512,-271,-60,172,-282
0,2023-03-01T18:50:46.257139,1635776,1182,1936,-53,-802,-512,-271,-60,172,-282
0,2023-03-01T18:50:46.262034,1635781,1182,1936,-53,-802,-512,-271,-60,172,-282
0,2023-03-01T18:50:46.267055,1635786,1181,1935,-60,-809,-512,-284,-60,172,-282
0,2023-03-01T18:50:46.273570,1635792,1181,1935,-60,-809,-512,-284,-60,172,-282
0,2023-03-01T18:50:46.279253,1635799,1181,1935,-60,-809,-512,-284,-60,172,-282
0,2023-03-01T18:50:46.284278,1635804,1181,1935,-60,-809,-512,-284,-60,172,-282
0,2023-03-01T18:50:46.289168,1635808,1181,1935,-53,-810,-516,-285,-62,168,-270
0,2023-03-01T18:50:46.295186,1635814,1181,1935,-53,-810,-516,-285,-62,168,-270
0,2023-03-01T18:50:46.300680,1635820,1181,1935,-53,-810,-516,-285,-62,168,-270
0,2023-03-01T18:50:46.305445,1635824,1181,1935,-53,-810,-516,-285,-62,168,-270
0,2023-03-01T18:50:46.310641,1635830,1177,1933,-54,-809,-507,-271,-62,168,-270
0,2023-03-01T18:50:46.317430,1635835,1177,1933,-54,-809,-507,-271,-62,168,-270
0,2023-03-01T18:50:46.323093,1635842,1177,1933,-54,-809,-507,-271,-62,168,-270
0,2023-03-01T18:50:46.328108,1635847,1181,1935,-57,-810,-515,-281,-62,168,-270
0,2023-03-01T18:50:46.334117,1635853,1181,1935,-57,-810,-515,-281,-62,168,-270
0,2023-03-01T18:50:46.339448,1635859,1181,1935,-57,-810,-515,-281,-62,168,-270
0,2023-03-01T18:50:46.344662,1635863,1181,1935,-57,-810,-515,-281,-62,168,-270
0,2023-03-01T18:50:46.349580,1635868,1181,1936,-67,-811,-524,-282,-62,168,-270
0,2023-03-01T18:50:46.355807,1635874,1181,1936,-67,-811,-524,-282,-62,168,-270
0,2023-03-01T18:50:46.361205,1635880,1181,1936,-67,-811,-524,-282,-62,168,-270
0,2023-03-01T18:50:46.366277,1635886,1181,1936,-67,-811,-524,-282,-62,168,-270
0,2023-03-01T18:50:46.371833,1635891,1187,1937,-67,-812,-498,-282,-62,168,-270
0,2023-03-01T18:50:46.377801,1635897,1187,1937,-67,-812,-498,-282,-62,168,-270
0,2023-03-01T18:50:46.382953,1635902,1187,1937,-67,-812,-498,-282,-62,168,-270
0,2023-03-01T18:50:46.388077,1635907,1184,1937,-62,-815,-506,-280,-62,168,-270
0,2023-03-01T18:50:46.394079,1635913,1184,1937,-62,-815,-506,-280,-62,168,-270
0,2023-03-01T18:50:46.399584,1635918,1184,1937,-62,-815,-506,-280,-62,168,-270
0,2023-03-01T18:50:46.404763,1635923,1184,1937,-62,-815,-506,-280,-62,168,-270
0,2023-03-01T18:50:46.409856,1635929,1180,1935,-61,-807,-508,-285,-62,168,-270
0,2023-03-01T18:50:46.418174,1635937,1180,1935,-61,-807,-508,-285,-62,168,-270
0,2023-03-01T18:50:46.422849,1635942,1180,1935,-61,-807,-508,-285,-62,168,-270
0,2023-03-01T18:50:46.428494,1635947,1183,1934,-64,-803,-502,-281,-46,166,-284
0,2023-03-01T18:50:46.434927,1635953,1183,1934,-64,-803,-502,-281,-46,166,-284
0,2023-03-01T18:50:46.440874,1635959,1183,1934,-64,-803,-502,-281,-46,166,-284
0,2023-03-01T18:50:46.445891,1635964,1183,1934,-64,-803,-502,-281,-46,166,-284
0,2023-03-01T18:50:46.451049,1635971,1183,1935,-69,-794,-504,-278,-46,166,-284
0,2023-03-01T18:50:46.457350,1635976,1183,1935,-69,-794,-504,-278,-46,166,-284
0,2023-03-01T18:50:46.462479,1635982,1183,1935,-69,-794,-504,-278,-46,166,-284
0,2023-03-01T18:50:46.467477,1635986,1186,1937,-70,-801,-496,-286,-46,166,-284
0,2023-03-01T18:50:46.473223,1635992,1186,1937,-70,-801,-496,-286,-46,166,-284
0,2023-03-01T18:50:46.478164,1635997,1186,1937,-70,-801,-496,-286,-46,166,-284
0,2023-03-01T18:50:46.482945,1636002,1186,1937,-70,-801,-496,-286,-46,166,-284
0,2023-03-01T18:50:46.487891,1636006,1181,1937,-75,-790,-508,-275,-46,166,-284
0,2023-03-01T18:50:46.494538,1636014,1181,1937,-75,-790,-508,-275,-46,166,-284
0,2023-03-01T18:50:46.499576,1636019,1181,1937,-75,-790,-508,-275,-46,166,-284
0,2023-03-01T18:50:46.504349,1636024,1181,1937,-75,-790,-508,-275,-46,166,-284
0,2023-03-01T18:50:46.509299,1636028,1185,1936,-71,-813,-506,-284,-46,166,-284
0,2023-03-01T18:50:46.515278,1636034,1185,1936,-71,-813,-506,-284,-46,166,-284
0,2023-03-01T18:50:46.520291,1636039,1185,1936,-71,-813,-506,-284,-46,166,-284
0,2023-03-01T18:50:46.525059,1636044,1185,1936,-71,-813,-506,-284,-46,166,-284
0,2023-03-01T18:50:46.530131,1636049,1183,1937,-71,-820,-508,-281,-46,166,-284
0,2023-03-01T18:50:46.536432,1636056,1183,1937,-71,-820,-508,-281,-46,166,-284
0,2023-03-01T18:50:46.541476,1636061,1183,1937,-71,-820,-508,-281,-46,166,-284
0,2023-03-01T18:50:46.546579,1636065,1183,1937,-71,-820,-508,-281,-46,166,-284
0,2023-03-01T18:50:46.552392,1636072,1183,1937,-70,-815,-503,-279,-61,171,-281
0,2023-03-01T18:50:46.558720,1636078,1183,1937,-70,-815,-503,-279,-61,171,-281
0,2023-03-01T18:50:46.563270,1636082,1183,1937,-70,-815,-503,-279,-61,171,-281
0,2023-03-01T18:50:46.568136,1636087,1186,1937,-68,-808,-508,-292,-61,171,-281
0,2023-03-01T18:50:46.574193,1636093,1186,1937,-68,-808,-508,-292,-61,171,-281
0,2023-03-01T18:50:46.579670,1636099,1186,1937,-68,-808,-508,-292,-61,171,-281
0,2023-03-01T18:50:46.584226,1636104,1186,1937,-68,-808,-508,-292,-61,171,-281
0,2023-03-01T18:50:46.588920,1636108,1183,1937,-74,-808,-517,-285,-61,171,-281
0,2023-03-01T18:50:46.594649,1636114,1183,1937,-74,-808,-517,-285,-61,171,-281
0,2023-03-01T18:50:46.599420,1636118,1183,1937,-74,-808,-517,-285,-61,171,-281
0,2023-03-01T18:50:46.604186,1636123,1183,1937,-74,-808,-517,-285,-61,171,-281
0,2023-03-01T18:50:46.609219,1636128,1186,1938,-71,-799,-492,-291,-61,171,-281
0,2023-03-01T18:50:46.615470,1636134,1186,1938,-71,-799,-492,-291,-61,171,-281
0,2023-03-01T18:50:46.620157,1636140,1186,1938,-71,-799,-492,-291,-61,171,-281
0,2023-03-01T18:50:46.624733,1636144,1186,1938,-71,-799,-492,-291,-61,171,-281
0,2023-03-01T18:50:46.629418,1636149,1185,1937,-75,-789,-498,-284,-61,171,-281
0,2023-03-01T18:50:46.634877,1636154,1185,1937,-75,-789,-498,-284,-61,171,-281
0,2023-03-01T18:50:46.639735,1636159,1185,1937,-75,-789,-498,-284,-61,171,-281
0,2023-03-01T18:50:46.644406,1636164,1185,1937,-75,-789,-498,-284,-61,171,-281
0,2023-03-01T18:50:46.649213,1636168,1184,1935,-80,-803,-505,-273,-61,171,-281
0,2023-03-01T18:50:46.656162,1636175,1184,1935,-80,-803,-505,-273,-61,171,-281
0,2023-03-01T18:50:46.660764,1636179,1184,1935,-80,-803,-505,-273,-61,171,-281
0,2023-03-01T18:50:46.666643,1636185,1184,1935,-80,-803,-505,-273,-61,171,-281
0,2023-03-01T18:50:46.671918,1636191,1183,1935,-80,-806,-495,-276,-56,162,-282
0,2023-03-01T18:50:46.677595,1636197,1183,1935,-80,-806,-495,-276,-56,162,-282
0,2023-03-01T18:50:46.682202,1636201,1183,1935,-80,-806,-495,-276,-56,162,-282
0,2023-03-01T18:50:46.687112,1636206,1185,1939,-74,-798,-503,-273,-56,162,-282
0,2023-03-01T18:50:46.693193,1636212,1185,1939,-74,-798,-503,-273,-56,162,-282
0,2023-03-01T18:50:46.698719,1636217,1185,1939,-74,-798,-503,-273,-56,162,-282
0,2023-03-01T18:50:46.703426,1636222,1185,1939,-74,-798,-503,-273,-56,162,-282
0,2023-03-01T18:50:46.708243,1636228,1190,1939,-73,-806,-496,-281,-56,162,-282
0,2023-03-01T18:50:46.714026,1636233,1190,1939,-73,-806,-496,-281,-56,162,-282
0,2023-03-01T18:50:46.718751,1636238,1190,1939,-73,-806,-496,-281,-56,162,-282
0,2023-03-01T18:50:46.723433,1636243,1190,1939,-73,-806,-496,-281,-56,162,-282
0,2023-03-01T18:50:46.728029,1636247,1185,1936,-86,-802,-520,-274,-56,162,-282
0,2023-03-01T18:50:46.733820,1636253,1185,1936,-86,-802,-520,-274,-56,162,-282
0,2023-03-01T18:50:46.738534,1636257,1185,1936,-86,-802,-520,-274,-56,162,-282
0,2023-03-01T18:50:46.743103,1636262,1185,1936,-86,-802,-520,-274,-56,162,-282
0,2023-03-01T18:50:46.747875,1636267,1184,1939,-81,-803,-503,-286,-56,162,-282
0,2023-03-01T18:50:46.754188,1636274,1184,1939,-81,-803,-503,-286,-56,162,-282
0,2023-03-01T18:50:46.758853,1636278,1184,1939,-81,-803,-503,-286,-56,162,-282
0,2023-03-01T18:50:46.764097,1636283,1184,1939,-81,-803,-503,-286,-56,162,-282
0,2023-03-01T18:50:46.768961,1636288,1183,1935,-88,-801,-508,-284,-56,162,-282
0,2023-03-01T18:50:46.774692,1636294,1183,1935,-88,-801,-508,-284,-56,162,-282
0,2023-03-01T18:50:46.780436,1636299,1183,1935,-88,-801,-508,-284,-56,162,-282
0,2023-03-01T18:50:46.785108,1636304,1183,1935,-88,-801,-508,-284,-56,162,-282
0,2023-03-01T18:50:46.789995,1636308,1180,1939,-90,-810,-503,-279,-56,162,-282
0,2023-03-01T18:50:46.796479,1636316,1180,1939,-90,-810,-503,-279,-56,162,-282
0,2023-03-01T18:50:46.802164,1636321,1180,1939,-90,-810,-503,-279,-56,162,-282
0,2023-03-01T18:50:46.807189,1636326,1180,1939,-90,-810,-503,-279,-56,162,-282
0,2023-03-01T18:50:46.812517,1636332,1186,1937,-84,-799,-500,-288,-52,154,-272
0,2023-03-01T18:50:46.818145,1636337,1186,1937,-84,-799,-500,-288,-52,154,-272
0,2023-03-01T18:50:46.822735,1636341,1186,1937,-84,-799,-500,-288,-52,154,-272
0,2023-03-01T18:50:46.827808,1636346,1190,1941,-82,-800,-501,-286,-52,154,-272
0,2023-03-01T18:50:46.833343,1636353,1190,1941,-82,-800,-501,-286,-52,154,-272
0,2023-03-01T18:50:46.838165,1636357,1190,1941,-82,-800,-501,-286,-52,154,-272
0,2023-03-01T18:50:46.842675,1636362,1190,1941,-82,-800,-501,-286,-52,154,-272
0,2023-03-01T18:50:46.847556,1636367,1189,1937,-83,-792,-499,-286,-52,154,-272
0,2023-03-01T18:50:46.853379,1636372,1189,1937,-83,-792,-499,-286,-52,154,-272
0,2023-03-01T18:50:46.858185,1636377,1189,1937,-83,-792,-499,-286,-52,154,-272
0,2023-03-01T18:50:46.863339,1636382,1189,1937,-83,-792,-499,-286,-52,154,-272
0,2023-03-01T18:50:46.868030,1636387,1185,1939,-83,-799,-514,-284,-52,154,-272
0,2023-03-01T18:50:46.873959,1636392,1185,1939,-83,-799,-514,-284,-52,154,-272
0,2023-03-01T18:50:46.879580,1636399,1185,1939,-83,-799,-514,-284,-52,154,-272
0,2023-03-01T18:50:46.884472,1636404,1185,1939,-83,-799,-514,-284,-52,154,-272
0,2023-03-01T18:50:46.889390,1636409,1186,1935,-89,-795,-497,-289,-52,154,-272
0,2023-03-01T18:50:46.895345,1636414,1186,1935,-89,-795,-497,-289,-52,154,-272
0,2023-03-01T18:50:46.901086,1636420,1186,1935,-89,-795,-497,-289,-52,154,-272
0,2023-03-01T18:50:46.906245,1636425,1186,1935,-89,-795,-497,-289,-52,154,-272
0,2023-03-01T18:50:46.911276,1636430,1188,1941,-88,-795,-506,-283,-52,154,-272
0,2023-03-01T18:50:46.917447,1636436,1188,1941,-88,-795,-506,-283,-52,154,-272
0,2023-03-01T18:50:46.923055,1636442,1188,1941,-88,-795,-506,-283,-52,154,-272
0,2023-03-01T18:50:46.928267,1636447,1186,1939,-94,-802,-510,-279,-54,164,-274
0,2023-03-01T18:50:46.934474,1636454,1186,1939,-94,-802,-510,-279,-54,164,-274
0,2023-03-01T18:50:46.939488,1636458,1186,1939,-94,-802,-510,-279,-54,164,-274
0,2023-03-01T18:50:46.944467,1636463,1186,1939,-94,-802,-510,-279,-54,164,-274
0,2023-03-01T18:50:46.949460,1636468,1189,1943,-86,-798,-487,-283,-54,164,-274
0,2023-03-01T18:50:46.955440,1636474,1189,1943,-86,-798,-487,-283,-54,164,-274
0,2023-03-01T18:50:46.960403,1636480,1189,1943,-86,-798,-487,-283,-54,164,-274
0,2023-03-01T18:50:46.965540,1636485,1189,1943,-86,-798,-487,-283,-54,164,-274
0,2023-03-01T18:50:46.970445,1636490,1185,1937,-95,-802,-510,-280,-54,164,-274
0,2023-03-01T18:50:46.977329,1636496,1185,1937,-95,-802,-510,-280,-54,164,-274
0,2023-03-01T18:50:46.982603,1636502,1185,1937,-95,-802,-510,-280,-54,164,-274
0,2023-03-01T18:50:46.987578,1636506,1190,1943,-95,-822,-505,-285,-54,164,-274
0,2023-03-01T18:50:46.993304,1636512,1190,1943,-95,-822,-505,-285,-54,164,-274
0,2023-03-01T18:50:46.998545,1636517,1190,1943,-95,-822,-505,-285,-54,164,-274
0,2023-03-01T18:50:47.003495,1636523,1190,1943,-95,-822,-505,-285,-54,164,-274
0,2023-03-01T18:50:47.008086,1636528,1187,1943,-92,-808,-500,-281,-54,164,-274
0,2023-03-01T18:50:47.013675,1636533,1187,1943,-92,-808,-500,-281,-54,164,-274
0,2023-03-01T18:50:47.019109,1636538,1187,1943,-92,-808,-500,-281,-54,164,-274
0,2023-03-01T18:50:47.024343,1636543,1187,1943,-92,-808,-500,-281,-54,164,-274
0,2023-03-01T18:50:47.029382,1636548,1188,1933,-98,-799,-496,-279,-54,164,-274
0,2023-03-01T18:50:47.035830,1636554,1188,1933,-98,-799,-496,-279,-54,164,-274
0,2023-03-01T18:50:47.040423,1636559,1188,1933,-98,-799,-496,-279,-54,164,-274
0,2023-03-01T18:50:47.045528,1636564,1188,1933,-98,-799,-496,-279,-54,164,-274
0,2023-03-01T18:50:47.050369,1636570,1188,1938,-97,-805,-490,-282,-54,164,-274
0,2023-03-01T18:50:47.056189,1636575,1188,1938,-97,-805,-490,-282,-54,164,-274
0,2023-03-01T18:50:47.061065,1636580,1188,1938,-97,-805,-490,-282,-54,164,-274
0,2023-03-01T18:50:47.066178,1636585,1188,1938,-97,-805,-490,-282,-54,164,-274
0,2023-03-01T18:50:47.071961,1636591,1186,1939,-92,-802,-502,-286,-57,161,-275
0,2023-03-01T18:50:47.078214,1636597,1186,1939,-92,-802,-502,-286,-57,161,-275
0,2023-03-01T18:50:47.083019,1636602,1186,1939,-92,-802,-502,-286,-57,161,-275
0,2023-03-01T18:50:47.088129,1636608,1188,1938,-97,-814,-500,-283,-57,161,-275
0,2023-03-01T18:50:47.095220,1636615,1188,1938,-97,-814,-500,-283,-57,161,-275
0,2023-03-01T18:50:47.101176,1636620,1188,1938,-97,-814,-500,-283,-57,161,-275
0,2023-03-01T18:50:47.105974,1636625,1188,1938,-97,-814,-500,-283,-57,161,-275
0,2023-03-01T18:50:47.111358,1636630,1189,1938,-99,-787,-494,-291,-57,161,-275
0,2023-03-01T18:50:47.117303,1636636,1189,1938,-99,-787,-494,-291,-57,161,-275
0,2023-03-01T18:50:47.122489,1636641,1189,1938,-99,-787,-494,-291,-57,161,-275
0,2023-03-01T18:50:47.127708,1636646,1189,1940,-99,-807,-500,-283,-57,161,-275
0,2023-03-01T18:50:47.133913,1636653,1189,1940,-99,-807,-500,-283,-57,161,-275
0,2023-03-01T18:50:47.138519,1636658,1189,1940,-99,-807,-500,-283,-57,161,-275
0,2023-03-01T18:50:47.143505,1636663,1189,1940,-99,-807,-500,-283,-57,161,-275
0,2023-03-01T18:50:47.148029,1636667,1189,1942,-102,-803,-505,-287,-57,161,-275
0,2023-03-01T18:50:47.154038,1636673,1189,1942,-102,-803,-505,-287,-57,161,-275
0,2023-03-01T18:50:47.159696,1636678,1189,1942,-102,-803,-505,-287,-57,161,-275
0,2023-03-01T18:50:47.165079,1636683,1189,1942,-102,-803,-505,-287,-57,161,-275
0,2023-03-01T18:50:47.170179,1636689,1188,1939,-103,-802,-501,-279,-57,161,-275
0,2023-03-01T18:50:47.175916,1636695,1188,1939,-103,-802,-501,-279,-57,161,-275
0,2023-03-01T18:50:47.180784,1636700,1188,1939,-103,-802,-501,-279,-57,161,-275
0,2023-03-01T18:50:47.185880,1636705,1188,1939,-103,-802,-501,-279,-57,161,-275
