imu,server_time,arduino_time,ax,ay,az,gx,gy,gz,mx,my,mz
0,2023-03-09T13:52:52.107844,2071472,-416,616,1529,-642,-427,-921,78,166,-84
0,2023-03-09T13:52:52.112661,2071476,-416,616,1529,-642,-427,-921,78,166,-84
0,2023-03-09T13:52:52.117904,2071481,-415,622,1521,-641,-434,-929,78,166,-84
0,2023-03-09T13:52:52.122748,2071486,-415,622,1521,-641,-434,-929,78,166,-84
0,2023-03-09T13:52:52.127138,2071490,-415,622,1521,-641,-434,-929,78,166,-84
0,2023-03-09T13:52:52.131614,2071495,-415,622,1521,-641,-434,-929,78,166,-84
0,2023-03-09T13:52:52.136047,2071499,-417,617,1526,-618,-431,-929,78,166,-84
0,2023-03-09T13:52:52.141316,2071505,-417,617,1526,-618,-431,-929,78,166,-84
0,2023-03-09T13:52:52.145770,2071510,-417,617,1526,-618,-431,-929,78,166,-84
0,2023-03-09T13:52:52.151084,2071515,-417,617,1526,-618,-431,-929,78,166,-84
0,2023-03-09T13:52:52.155740,2071519,-420,620,1525,-620,-422,-920,78,166,-84
0,2023-03-09T13:52:52.160830,2071524,-420,620,1525,-620,-422,-920,78,166,-84
0,2023-03-09T13:52:52.165403,2071529,-420,620,1525,-620,-422,-920,78,166,-84
0,2023-03-09T13:52:52.169969,2071533,-420,620,1525,-620,-422,-920,78,166,-84
0,2023-03-09T13:52:52.174299,2071538,-420,620,1525,-620,-422,-920,78,166,-84
0,2023-03-09T13:52:52.179362,2071543,-423,625,1526,-629,-426,-907,78,166,-84
0,2023-03-09T13:52:52.184256,2071547,-423,625,1526,-629,-426,-907,78,166,-84
0,2023-03-09T13:52:52.188584,2071553,-423,625,1526,-629,-426,-907,78,166,-84
0,2023-03-09T13:52:52.193019,2071557,-423,625,1526,-629,-426,-907,78,166,-84
0,2023-03-09T13:52:52.198014,2071562,-425,621,1531,-628,-432,-928,78,164,-82
0,2023-03-09T13:52:52.202959,2071567,-425,621,1531,-628,-432,-928,78,164,-82
0,2023-03-09T13:52:52.207403,2071571,-425,621,1531,-628,-432,-928,78,164,-82
0,2023-03-09T13:52:52.211742,2071575,-425,621,1531,-628,-432,-928,78,164,-82
0,2023-03-09T13:52:52.216160,2071580,-417,623,1524,-628,-438,-937,78,164,-82
0,2023-03-09T13:52:52.221156,2071584,-417,623,1524,-628,-438,-937,78,164,-82
0,2023-03-09T13:52:52.225745,2071589,-417,623,1524,-628,-438,-937,78,164,-82
0,2023-03-09T13:52:52.230559,2071595,-417,623,1524,-628,-438,-937,78,164,-82
0,2023-03-09T13:52:52.234905,2071599,-417,623,1524,-628,-438,-937,78,164,-82
0,2023-03-09T13:52:52.239804,2071604,-420,622,1516,-624,-438,-935,78,164,-82
0,2023-03-09T13:52:52.244783,2071609,-420,622,1516,-624,-438,-935,78,164,-82
0,2023-03-09T13:52:52.249521,2071613,-420,622,1516,-624,-438,-935,78,164,-82
0,2023-03-09T13:52:52.254028,2071617,-420,622,1516,-624,-438,-935,78,164,-82
0,2023-03-09T13:52:52.259240,2071622,-426,627,1519,-613,-445,-949,78,164,-82
0,2023-03-09T13:52:52.264371,2071628,-426,627,1519,-613,-445,-949,78,164,-82
0,2023-03-09T13:52:52.268877,2071632,-426,627,1519,-613,-445,-949,78,164,-82
0,2023-03-09T13:52:52.273309,2071636,-426,627,1519,-613,-445,-949,78,164,-82
0,2023-03-09T13:52:52.278142,2071642,-427,629,1521,-606,-442,-977,78,164,-82
0,2023-03-09T13:52:52.283144,2071647,-427,629,1521,-606,-442,-977,78,164,-82
0,2023-03-09T13:52:52.287597,2071651,-427,629,1521,-606,-442,-977,78,164,-82
0,2023-03-09T13:52:52.292065,2071656,-427,629,1521,-606,-442,-977,78,164,-82
0,2023-03-09T13:52:52.296582,2071660,-431,628,1517,-601,-450,-982,78,164,-82
0,2023-03-09T13:52:52.301536,2071665,-431,628,1517,-601,-450,-982,78,164,-82
0,2023-03-09T13:52:52.306112,2071669,-431,628,1517,-601,-450,-982,78,164,-82
0,2023-03-09T13:52:52.311236,2071674,-431,628,1517,-601,-450,-982,78,164,-82
0,2023-03-09T13:52:52.315346,2071678,-429,628,1513,-619,-452,-971,78,164,-82
0,2023-03-09T13:52:52.320536,2071684,-429,628,1513,-619,-452,-971,78,164,-82
0,2023-03-09T13:52:52.325217,2071689,-429,628,1513,-619,-452,-971,78,164,-82
0,2023-03-09T13:52:52.330469,2071694,-429,628,1513,-619,-452,-971,78,164,-82
0,2023-03-09T13:52:52.334929,2071699,-429,628,1513,-619,-452,-971,78,164,-82
0,2023-03-09T13:52:52.340002,2071703,-433,630,1517,-612,-454,-973,81,171,-85
0,2023-03-09T13:52:52.345289,2071709,-433,630,1517,-612,-454,-973,81,171,-85
0,2023-03-09T13:52:52.349807,2071713,-433,630,1517,-612,-454,-973,81,171,-85
0,2023-03-09T13:52:52.354190,2071717,-433,630,1517,-612,-454,-973,81,171,-85
0,2023-03-09T13:52:52.359291,2071723,-430,628,1515,-614,-455,-955,81,171,-85
0,2023-03-09T13:52:52.364184,2071728,-430,628,1515,-614,-455,-955,81,171,-85
0,2023-03-09T13:52:52.368675,2071732,-430,628,1515,-614,-455,-955,81,171,-85
0,2023-03-09T13:52:52.373297,2071737,-430,628,1515,-614,-455,-955,81,171,-85
0,2023-03-09T13:52:52.378336,2071742,-435,634,1520,-627,-445,-936,81,171,-85
0,2023-03-09T13:52:52.382954,2071747,-435,634,1520,-627,-445,-936,81,171,-85
0,2023-03-09T13:52:52.387414,2071751,-435,634,1520,-627,-445,-936,81,171,-85
0,2023-03-09T13:52:52.391652,2071755,-435,634,1520,-627,-445,-936,81,171,-85
0,2023-03-09T13:52:52.396334,2071759,-436,632,1509,-626,-449,-947,81,171,-85
0,2023-03-09T13:52:52.401944,2071766,-436,632,1509,-626,-449,-947,81,171,-85
0,2023-03-09T13:52:52.406872,2071770,-436,632,1509,-626,-449,-947,81,171,-85
0,2023-03-09T13:52:52.411502,2071775,-436,632,1509,-626,-449,-947,81,171,-85
0,2023-03-09T13:52:52.416055,2071780,-434,634,1512,-621,-455,-948,81,171,-85
0,2023-03-09T13:52:52.420888,2071784,-434,634,1512,-621,-455,-948,81,171,-85
0,2023-03-09T13:52:52.425280,2071789,-434,634,1512,-621,-455,-948,81,171,-85
0,2023-03-09T13:52:52.429935,2071793,-434,634,1512,-621,-455,-948,81,171,-85
0,2023-03-09T13:52:52.434466,2071798,-434,634,1512,-621,-455,-948,81,171,-85
0,2023-03-09T13:52:52.439455,2071803,-434,634,1512,-621,-455,-948,81,171,-85
0,2023-03-09T13:52:52.443891,2071808,-434,634,1512,-621,-455,-948,81,171,-85
0,2023-03-09T13:52:52.448319,2071812,-434,634,1512,-621,-455,-948,81,171,-85
0,2023-03-09T13:52:52.453024,2071817,-434,634,1512,-621,-455,-948,81,171,-85
0,2023-03-09T13:52:52.457701,2071821,-443,635,1515,-614,-448,-938,68,170,-86
0,2023-03-09T13:52:52.462544,2071826,-443,635,1515,-614,-448,-938,68,170,-86
0,2023-03-09T13:52:52.467028,2071831,-443,635,1515,-614,-448,-938,68,170,-86
0,2023-03-09T13:52:52.471428,2071835,-443,635,1515,-614,-448,-938,68,170,-86
0,2023-03-09T13:52:52.475911,2071839,-443,635,1515,-614,-448,-938,68,170,-86
0,2023-03-09T13:52:52.480702,2071844,-443,635,1515,-614,-448,-938,68,170,-86
0,2023-03-09T13:52:52.485162,2071848,-443,635,1515,-614,-448,-938,68,170,-86
0,2023-03-09T13:52:52.489537,2071853,-443,635,1515,-614,-448,-938,68,170,-86
0,2023-03-09T13:52:52.493947,2071858,-443,635,1515,-614,-448,-938,68,170,-86
0,2023-03-09T13:52:52.498880,2071863,-442,642,1511,-620,-444,-936,68,170,-86
0,2023-03-09T13:52:52.503913,2071868,-442,642,1511,-620,-444,-936,68,170,-86
0,2023-03-09T13:52:52.508421,2071872,-442,642,1511,-620,-444,-936,68,170,-86
0,2023-03-09T13:52:52.512662,2071876,-442,642,1511,-620,-444,-936,68,170,-86
0,2023-03-09T13:52:52.517670,2071881,-446,638,1510,-631,-450,-919,68,170,-86
0,2023-03-09T13:52:52.522446,2071886,-446,638,1510,-631,-450,-919,68,170,-86
0,2023-03-09T13:52:52.526767,2071890,-446,638,1510,-631,-450,-919,68,170,-86
0,2023-03-09T13:52:52.531837,2071896,-446,638,1510,-631,-450,-919,68,170,-86
0,2023-03-09T13:52:52.536430,2071900,-442,640,1510,-637,-442,-902,68,170,-86
0,2023-03-09T13:52:52.541342,2071905,-442,640,1510,-637,-442,-902,68,170,-86
0,2023-03-09T13:52:52.545726,2071910,-442,640,1510,-637,-442,-902,68,170,-86
0,2023-03-09T13:52:52.550012,2071914,-442,640,1510,-637,-442,-902,68,170,-86
0,2023-03-09T13:52:52.554370,2071918,-442,640,1510,-637,-442,-902,68,170,-86
0,2023-03-09T13:52:52.558859,2071922,-450,642,1503,-645,-439,-880,68,170,-86
0,2023-03-09T13:52:52.563498,2071927,-450,642,1503,-645,-439,-880,68,170,-86
0,2023-03-09T13:52:52.568408,2071931,-450,642,1503,-645,-439,-880,68,170,-86
0,2023-03-09T13:52:52.572871,2071937,-450,642,1503,-645,-439,-880,68,170,-86
0,2023-03-09T13:52:52.577790,2071942,-452,647,1509,-649,-438,-860,68,170,-86
0,2023-03-09T13:52:52.582750,2071947,-452,647,1509,-649,-438,-860,68,170,-86
0,2023-03-09T13:52:52.587387,2071951,-452,647,1509,-649,-438,-860,68,170,-86
0,2023-03-09T13:52:52.592208,2071956,-452,647,1509,-649,-438,-860,68,170,-86
0,2023-03-09T13:52:52.596652,2071960,-450,645,1514,-651,-446,-880,77,165,-89
0,2023-03-09T13:52:52.602310,2071966,-450,645,1514,-651,-446,-880,77,165,-89
0,2023-03-09T13:52:52.606789,2071970,-450,645,1514,-651,-446,-880,77,165,-89
0,2023-03-09T13:52:52.611932,2071975,-450,645,1514,-651,-446,-880,77,165,-89
0,2023-03-09T13:52:52.616540,2071980,-450,645,1514,-651,-446,-880,77,165,-89
0,2023-03-09T13:52:52.621422,2071985,-450,645,1514,-651,-446,-880,77,165,-89
0,2023-03-09T13:52:52.626253,2071990,-450,645,1514,-651,-446,-880,77,165,-89
0,2023-03-09T13:52:52.630631,2071994,-450,645,1514,-651,-446,-880,77,165,-89
0,2023-03-09T13:52:52.635023,2071999,-450,645,1514,-651,-446,-880,77,165,-89
0,2023-03-09T13:52:52.639843,2072003,-449,648,1503,-628,-445,-899,77,165,-89
0,2023-03-09T13:52:52.644792,2072008,-449,648,1503,-628,-445,-899,77,165,-89
0,2023-03-09T13:52:52.649148,2072012,-449,648,1503,-628,-445,-899,77,165,-89
0,2023-03-09T13:52:52.653335,2072017,-449,648,1503,-628,-445,-899,77,165,-89
0,2023-03-09T13:52:52.658487,2072022,-452,645,1505,-615,-440,-922,77,165,-89
0,2023-03-09T13:52:52.663487,2072027,-452,645,1505,-615,-440,-922,77,165,-89
0,2023-03-09T13:52:52.667848,2072032,-452,645,1505,-615,-440,-922,77,165,-89
0,2023-03-09T13:52:52.672272,2072036,-452,645,1505,-615,-440,-922,77,165,-89
0,2023-03-09T13:52:52.676828,2072040,-457,649,1506,-608,-437,-930,77,165,-89
0,2023-03-09T13:52:52.682380,2072046,-457,649,1506,-608,-437,-930,77,165,-89
0,2023-03-09T13:52:52.687037,2072050,-457,649,1506,-608,-437,-930,77,165,-89
0,2023-03-09T13:52:52.691475,2072055,-457,649,1506,-608,-437,-930,77,165,-89
0,2023-03-09T13:52:52.696012,2072059,-459,654,1499,-615,-436,-933,77,165,-89
0,2023-03-09T13:52:52.700927,2072065,-459,654,1499,-615,-436,-933,77,165,-89
0,2023-03-09T13:52:52.705357,2072069,-459,654,1499,-615,-436,-933,77,165,-89
0,2023-03-09T13:52:52.709965,2072074,-459,654,1499,-615,-436,-933,77,165,-89
0,2023-03-09T13:52:52.714634,2072078,-459,654,1499,-615,-436,-933,77,165,-89
0,2023-03-09T13:52:52.719579,2072083,-460,652,1498,-617,-447,-925,70,176,-82
0,2023-03-09T13:52:52.724453,2072088,-460,652,1498,-617,-447,-925,70,176,-82
0,2023-03-09T13:52:52.728654,2072092,-460,652,1498,-617,-447,-925,70,176,-82
0,2023-03-09T13:52:52.733242,2072096,-460,652,1498,-617,-447,-925,70,176,-82
0,2023-03-09T13:52:52.738540,2072102,-455,654,1503,-630,-445,-904,70,176,-82
0,2023-03-09T13:52:52.743494,2072108,-455,654,1503,-630,-445,-904,70,176,-82
0,2023-03-09T13:52:52.747968,2072112,-455,654,1503,-630,-445,-904,70,176,-82
0,2023-03-09T13:52:52.752556,2072116,-455,654,1503,-630,-445,-904,70,176,-82
0,2023-03-09T13:52:52.757197,2072121,-456,657,1505,-626,-443,-904,70,176,-82
0,2023-03-09T13:52:52.762474,2072126,-456,657,1505,-626,-443,-904,70,176,-82
0,2023-03-09T13:52:52.766893,2072130,-456,657,1505,-626,-443,-904,70,176,-82
0,2023-03-09T13:52:52.771579,2072135,-456,657,1505,-626,-443,-904,70,176,-82
0,2023-03-09T13:52:52.776021,2072139,-462,656,1505,-628,-443,-920,70,176,-82
0,2023-03-09T13:52:52.781683,2072145,-462,656,1505,-628,-443,-920,70,176,-82
0,2023-03-09T13:52:52.786193,2072150,-462,656,1505,-628,-443,-920,70,176,-82
0,2023-03-09T13:52:52.790766,2072155,-462,656,1505,-628,-443,-920,70,176,-82
0,2023-03-09T13:52:52.795445,2072159,-462,656,1505,-628,-443,-920,70,176,-82
0,2023-03-09T13:52:52.800272,2072164,-462,657,1498,-611,-439,-940,70,176,-82
0,2023-03-09T13:52:52.805333,2072169,-462,657,1498,-611,-439,-940,70,176,-82
0,2023-03-09T13:52:52.809727,2072173,-462,657,1498,-611,-439,-940,70,176,-82
0,2023-03-09T13:52:52.814398,2072178,-462,657,1498,-611,-439,-940,70,176,-82
0,2023-03-09T13:52:52.819025,2072182,-466,655,1496,-604,-454,-949,70,176,-82
0,2023-03-09T13:52:52.824310,2072187,-466,655,1496,-604,-454,-949,70,176,-82
0,2023-03-09T13:52:52.828750,2072193,-466,655,1496,-604,-454,-949,70,176,-82
0,2023-03-09T13:52:52.833297,2072197,-466,655,1496,-604,-454,-949,70,176,-82
0,2023-03-09T13:52:52.838369,2072202,-467,658,1487,-594,-445,-940,65,171,-93
0,2023-03-09T13:52:52.843276,2072207,-467,658,1487,-594,-445,-940,65,171,-93
0,2023-03-09T13:52:52.847608,2072211,-467,658,1487,-594,-445,-940,65,171,-93
0,2023-03-09T13:52:52.851740,2072215,-467,658,1487,-594,-445,-940,65,171,-93
0,2023-03-09T13:52:52.856240,2072220,-468,663,1498,-604,-460,-939,65,171,-93
0,2023-03-09T13:52:52.861645,2072225,-468,663,1498,-604,-460,-939,65,171,-93
0,2023-03-09T13:52:52.866068,2072229,-468,663,1498,-604,-460,-939,65,171,-93
0,2023-03-09T13:52:52.870428,2072235,-468,663,1498,-604,-460,-939,65,171,-93
0,2023-03-09T13:52:52.874949,2072239,-468,663,1498,-604,-460,-939,65,171,-93
0,2023-03-09T13:52:52.879244,2072243,-471,662,1500,-602,-458,-948,65,171,-93
0,2023-03-09T13:52:52.884378,2072248,-471,662,1500,-602,-458,-948,65,171,-93
0,2023-03-09T13:52:52.889030,2072253,-471,662,1500,-602,-458,-948,65,171,-93
0,2023-03-09T13:52:52.893326,2072257,-471,662,1500,-602,-458,-948,65,171,-93
0,2023-03-09T13:52:52.898284,2072262,-473,662,1495,-616,-458,-940,65,171,-93
0,2023-03-09T13:52:52.903189,2072267,-473,662,1495,-616,-458,-940,65,171,-93
0,2023-03-09T13:52:52.907635,2072271,-473,662,1495,-616,-458,-940,65,171,-93
0,2023-03-09T13:52:52.912395,2072276,-473,662,1495,-616,-458,-940,65,171,-93
0,2023-03-09T13:52:52.916810,2072281,-468,661,1492,-604,-447,-942,65,171,-93
0,2023-03-09T13:52:52.922399,2072286,-468,661,1492,-604,-447,-942,65,171,-93
0,2023-03-09T13:52:52.926894,2072291,-468,661,1492,-604,-447,-942,65,171,-93
0,2023-03-09T13:52:52.931378,2072295,-468,661,1492,-604,-447,-942,65,171,-93
0,2023-03-09T13:52:52.935844,2072299,-468,661,1492,-604,-447,-942,65,171,-93
0,2023-03-09T13:52:52.940657,2072304,-474,663,1489,-592,-447,-952,65,171,-93
0,2023-03-09T13:52:52.945563,2072309,-474,663,1489,-592,-447,-952,65,171,-93
0,2023-03-09T13:52:52.949889,2072313,-474,663,1489,-592,-447,-952,65,171,-93
0,2023-03-09T13:52:52.954292,2072317,-474,663,1489,-592,-447,-952,65,171,-93
0,2023-03-09T13:52:52.959232,2072323,-472,665,1493,-585,-442,-949,65,171,-93
0,2023-03-09T13:52:52.964679,2072328,-472,665,1493,-585,-442,-949,65,171,-93
0,2023-03-09T13:52:52.968980,2072333,-472,665,1493,-585,-442,-949,65,171,-93
0,2023-03-09T13:52:52.973359,2072337,-472,665,1493,-585,-442,-949,65,171,-93
0,2023-03-09T13:52:52.978378,2072342,-482,668,1498,-577,-436,-935,73,169,-83
0,2023-03-09T13:52:52.983243,2072347,-482,668,1498,-577,-436,-935,73,169,-83
0,2023-03-09T13:52:52.987666,2072351,-482,668,1498,-577,-436,-935,73,169,-83
0,2023-03-09T13:52:52.992049,2072355,-482,668,1498,-577,-436,-935,73,169,-83
0,2023-03-09T13:52:52.996564,2072360,-482,672,1492,-585,-455,-949,73,169,-83
0,2023-03-09T13:52:53.001576,2072366,-482,672,1492,-585,-455,-949,73,169,-83
0,2023-03-09T13:52:53.006063,2072370,-482,672,1492,-585,-455,-949,73,169,-83
0,2023-03-09T13:52:53.010453,2072374,-482,672,1492,-585,-455,-949,73,169,-83
0,2023-03-09T13:52:53.014887,2072379,-482,672,1492,-585,-455,-949,73,169,-83
0,2023-03-09T13:52:53.020505,2072383,-479,674,1486,-596,-453,-949,73,169,-83
0,2023-03-09T13:52:53.025581,2072389,-479,674,1486,-596,-453,-949,73,169,-83
0,2023-03-09T13:52:53.029980,2072393,-479,674,1486,-596,-453,-949,73,169,-83
0,2023-03-09T13:52:53.034576,2072398,-479,674,1486,-596,-453,-949,73,169,-83
0,2023-03-09T13:52:53.039785,2072403,-480,672,1485,-598,-448,-931,73,169,-83
0,2023-03-09T13:52:53.045006,2072409,-480,672,1485,-598,-448,-931,73,169,-83
0,2023-03-09T13:52:53.049349,2072413,-480,672,1485,-598,-448,-931,73,169,-83
0,2023-03-09T13:52:53.054119,2072418,-480,672,1485,-598,-448,-931,73,169,-83
0,2023-03-09T13:52:53.058899,2072423,-485,676,1486,-588,-444,-927,73,169,-83
0,2023-03-09T13:52:53.063526,2072427,-485,676,1486,-588,-444,-927,73,169,-83
0,2023-03-09T13:52:53.068112,2072432,-485,676,1486,-588,-444,-927,73,169,-83
0,2023-03-09T13:52:53.072379,2072436,-485,676,1486,-588,-444,-927,73,169,-83
0,2023-03-09T13:52:53.076591,2072440,-484,669,1491,-587,-447,-954,73,169,-83
0,2023-03-09T13:52:53.081932,2072445,-484,669,1491,-587,-447,-954,73,169,-83
0,2023-03-09T13:52:53.086565,2072450,-484,669,1491,-587,-447,-954,73,169,-83
0,2023-03-09T13:52:53.091401,2072455,-484,669,1491,-587,-447,-954,73,169,-83
0,2023-03-09T13:52:53.095935,2072460,-484,669,1491,-587,-447,-954,73,169,-83
0,2023-03-09T13:52:53.100930,2072465,-490,677,1487,-589,-451,-948,69,177,-81
0,2023-03-09T13:52:53.105920,2072469,-490,677,1487,-589,-451,-948,69,177,-81
0,2023-03-09T13:52:53.110436,2072474,-490,677,1487,-589,-451,-948,69,177,-81
0,2023-03-09T13:52:53.115107,2072478,-490,677,1487,-589,-451,-948,69,177,-81
0,2023-03-09T13:52:53.120172,2072483,-485,678,1488,-582,-440,-958,69,177,-81
0,2023-03-09T13:52:53.124927,2072488,-485,678,1488,-582,-440,-958,69,177,-81
0,2023-03-09T13:52:53.129322,2072494,-485,678,1488,-582,-440,-958,69,177,-81
0,2023-03-09T13:52:53.133829,2072498,-485,678,1488,-582,-440,-958,69,177,-81
0,2023-03-09T13:52:53.138956,2072503,-490,675,1488,-564,-447,-971,69,177,-81
0,2023-03-09T13:52:53.144291,2072508,-490,675,1488,-564,-447,-971,69,177,-81
0,2023-03-09T13:52:53.149252,2072513,-490,675,1488,-564,-447,-971,69,177,-81
0,2023-03-09T13:52:53.153762,2072517,-490,675,1488,-564,-447,-971,69,177,-81
0,2023-03-09T13:52:53.159640,2072522,-489,681,1488,-574,-451,-973,69,177,-81
0,2023-03-09T13:52:53.164577,2072528,-489,681,1488,-574,-451,-973,69,177,-81
0,2023-03-09T13:52:53.169729,2072534,-489,681,1488,-574,-451,-973,69,177,-81
0,2023-03-09T13:52:53.174198,2072538,-489,681,1488,-574,-451,-973,69,177,-81
0,2023-03-09T13:52:53.179151,2072543,-493,682,1480,-585,-449,-967,69,177,-81
0,2023-03-09T13:52:53.184213,2072548,-493,682,1480,-585,-449,-967,69,177,-81
0,2023-03-09T13:52:53.188487,2072552,-493,682,1480,-585,-449,-967,69,177,-81
0,2023-03-09T13:52:53.192969,2072557,-493,682,1480,-585,-449,-967,69,177,-81
0,2023-03-09T13:52:53.197324,2072561,-500,680,1489,-578,-459,-964,69,177,-81
0,2023-03-09T13:52:53.202161,2072565,-500,680,1489,-578,-459,-964,69,177,-81
0,2023-03-09T13:52:53.206579,2072570,-500,680,1489,-578,-459,-964,69,177,-81
0,2023-03-09T13:52:53.211070,2072574,-500,680,1489,-578,-459,-964,69,177,-81
0,2023-03-09T13:52:53.215410,2072579,-500,680,1489,-578,-459,-964,69,177,-81
0,2023-03-09T13:52:53.220235,2072584,-493,679,1479,-579,-459,-968,69,177,-81
0,2023-03-09T13:52:53.225255,2072589,-493,679,1479,-579,-459,-968,69,177,-81
0,2023-03-09T13:52:53.229521,2072593,-493,679,1479,-579,-459,-968,69,177,-81
0,2023-03-09T13:52:53.233806,2072597,-493,679,1479,-579,-459,-968,69,177,-81
0,2023-03-09T13:52:53.238786,2072602,-497,680,1479,-571,-465,-979,68,172,-84
0,2023-03-09T13:52:53.243975,2072607,-497,680,1479,-571,-465,-979,68,172,-84
0,2023-03-09T13:52:53.248759,2072612,-497,680,1479,-571,-465,-979,68,172,-84
0,2023-03-09T13:52:53.253125,2072616,-497,680,1479,-571,-465,-979,68,172,-84
0,2023-03-09T13:52:53.257935,2072622,-498,688,1482,-571,-467,-978,68,172,-84
0,2023-03-09T13:52:53.263094,2072627,-498,688,1482,-571,-467,-978,68,172,-84
0,2023-03-09T13:52:53.267295,2072631,-498,688,1482,-571,-467,-978,68,172,-84
0,2023-03-09T13:52:53.272408,2072636,-498,688,1482,-571,-467,-978,68,172,-84
0,2023-03-09T13:52:53.277141,2072640,-497,683,1483,-569,-462,-991,68,172,-84
0,2023-03-09T13:52:53.282150,2072646,-497,683,1483,-569,-462,-991,68,172,-84
0,2023-03-09T13:52:53.286495,2072650,-497,683,1483,-569,-462,-991,68,172,-84
0,2023-03-09T13:52:53.291255,2072654,-497,683,1483,-569,-462,-991,68,172,-84
0,2023-03-09T13:52:53.296015,2072659,-497,683,1483,-569,-462,-991,68,172,-84
0,2023-03-09T13:52:53.301140,2072665,-497,683,1483,-569,-462,-991,68,172,-84
0,2023-03-09T13:52:53.305495,2072669,-497,683,1483,-569,-462,-991,68,172,-84
0,2023-03-09T13:52:53.310141,2072674,-497,683,1483,-569,-462,-991,68,172,-84
0,2023-03-09T13:52:53.314637,2072678,-497,683,1483,-569,-462,-991,68,172,-84
0,2023-03-09T13:52:53.319665,2072683,-503,690,1473,-582,-442,-923,68,172,-84
0,2023-03-09T13:52:53.324458,2072688,-503,690,1473,-582,-442,-923,68,172,-84
0,2023-03-09T13:52:53.329184,2072692,-503,690,1473,-582,-442,-923,68,172,-84
0,2023-03-09T13:52:53.333649,2072697,-503,690,1473,-582,-442,-923,68,172,-84
0,2023-03-09T13:52:53.338662,2072702,-508,685,1467,-591,-454,-918,68,172,-84
0,2023-03-09T13:52:53.343663,2072708,-508,685,1467,-591,-454,-918,68,172,-84
0,2023-03-09T13:52:53.348109,2072712,-508,685,1467,-591,-454,-918,68,172,-84
0,2023-03-09T13:52:53.352764,2072717,-508,685,1467,-591,-454,-918,68,172,-84
0,2023-03-09T13:52:53.357565,2072721,-505,694,1484,-595,-456,-910,63,179,-77
0,2023-03-09T13:52:53.362502,2072726,-505,694,1484,-595,-456,-910,63,179,-77
0,2023-03-09T13:52:53.367209,2072730,-505,694,1484,-595,-456,-910,63,179,-77
0,2023-03-09T13:52:53.371651,2072735,-505,694,1484,-595,-456,-910,63,179,-77
0,2023-03-09T13:52:53.376010,2072739,-505,694,1484,-595,-456,-910,63,179,-77
0,2023-03-09T13:52:53.381428,2072744,-507,694,1486,-595,-440,-897,63,179,-77
0,2023-03-09T13:52:53.386403,2072750,-507,694,1486,-595,-440,-897,63,179,-77
0,2023-03-09T13:52:53.391435,2072755,-507,694,1486,-595,-440,-897,63,179,-77
0,2023-03-09T13:52:53.395813,2072760,-507,694,1486,-595,-440,-897,63,179,-77
0,2023-03-09T13:52:53.401097,2072765,-509,690,1477,-587,-440,-904,63,179,-77
0,2023-03-09T13:52:53.406309,2072770,-509,690,1477,-587,-440,-904,63,179,-77
0,2023-03-09T13:52:53.410682,2072774,-509,690,1477,-587,-440,-904,63,179,-77
0,2023-03-09T13:52:53.415284,2072778,-509,690,1477,-587,-440,-904,63,179,-77
0,2023-03-09T13:52:53.420003,2072783,-507,692,1475,-583,-441,-931,63,179,-77
0,2023-03-09T13:52:53.424939,2072788,-507,692,1475,-583,-441,-931,63,179,-77
0,2023-03-09T13:52:53.429782,2072794,-507,692,1475,-583,-441,-931,63,179,-77
0,2023-03-09T13:52:53.434205,2072798,-507,692,1475,-583,-441,-931,63,179,-77
0,2023-03-09T13:52:53.438903,2072803,-509,691,1472,-573,-421,-931,63,179,-77
0,2023-03-09T13:52:53.443947,2072807,-509,691,1472,-573,-421,-931,63,179,-77
0,2023-03-09T13:52:53.448491,2072812,-509,691,1472,-573,-421,-931,63,179,-77
0,2023-03-09T13:52:53.452789,2072816,-509,691,1472,-573,-421,-931,63,179,-77
0,2023-03-09T13:52:53.457681,2072821,-519,699,1469,-575,-427,-922,63,179,-77
0,2023-03-09T13:52:53.462653,2072826,-519,699,1469,-575,-427,-922,63,179,-77
0,2023-03-09T13:52:53.467152,2072830,-519,699,1469,-575,-427,-922,63,179,-77
0,2023-03-09T13:52:53.471862,2072836,-519,699,1469,-575,-427,-922,63,179,-77
0,2023-03-09T13:52:53.476251,2072840,-519,699,1469,-575,-427,-922,63,179,-77
0,2023-03-09T13:52:53.480793,2072844,-519,700,1467,-574,-430,-914,63,179,-77
0,2023-03-09T13:52:53.485985,2072850,-519,700,1467,-574,-430,-914,63,179,-77
0,2023-03-09T13:52:53.490413,2072854,-519,700,1467,-574,-430,-914,63,179,-77
0,2023-03-09T13:52:53.494859,2072858,-519,700,1467,-574,-430,-914,63,179,-77
0,2023-03-09T13:52:53.499968,2072863,-519,702,1469,-582,-435,-899,68,182,-86
0,2023-03-09T13:52:53.504893,2072868,-519,702,1469,-582,-435,-899,68,182,-86
0,2023-03-09T13:52:53.509177,2072872,-519,702,1469,-582,-435,-899,68,182,-86
0,2023-03-09T13:52:53.513631,2072877,-519,702,1469,-582,-435,-899,68,182,-86
0,2023-03-09T13:52:53.518751,2072883,-513,699,1471,-586,-445,-906,68,182,-86
0,2023-03-09T13:52:53.523696,2072887,-513,699,1471,-586,-445,-906,68,182,-86
0,2023-03-09T13:52:53.528282,2072892,-513,699,1471,-586,-445,-906,68,182,-86
0,2023-03-09T13:52:53.532727,2072896,-513,699,1471,-586,-445,-906,68,182,-86
0,2023-03-09T13:52:53.537342,2072901,-512,699,1463,-599,-437,-899,68,182,-86
0,2023-03-09T13:52:53.542015,2072905,-512,699,1463,-599,-437,-899,68,182,-86
0,2023-03-09T13:52:53.546501,2072910,-512,699,1463,-599,-437,-899,68,182,-86
0,2023-03-09T13:52:53.550878,2072914,-512,699,1463,-599,-437,-899,68,182,-86
0,2023-03-09T13:52:53.555598,2072919,-512,699,1463,-599,-437,-899,68,182,-86
0,2023-03-09T13:52:53.560212,2072924,-520,698,1466,-587,-443,-908,68,182,-86
0,2023-03-09T13:52:53.565043,2072929,-520,698,1466,-587,-443,-908,68,182,-86
0,2023-03-09T13:52:53.569657,2072933,-520,698,1466,-587,-443,-908,68,182,-86
0,2023-03-09T13:52:53.573941,2072938,-520,698,1466,-587,-443,-908,68,182,-86
0,2023-03-09T13:52:53.578850,2072942,-526,705,1473,-580,-441,-914,68,182,-86
0,2023-03-09T13:52:53.583633,2072947,-526,705,1473,-580,-441,-914,68,182,-86
0,2023-03-09T13:52:53.588290,2072951,-526,705,1473,-580,-441,-914,68,182,-86
0,2023-03-09T13:52:53.592677,2072956,-526,705,1473,-580,-441,-914,68,182,-86
0,2023-03-09T13:52:53.596952,2072961,-526,703,1464,-572,-440,-912,68,182,-86
0,2023-03-09T13:52:53.601910,2072966,-526,703,1464,-572,-440,-912,68,182,-86
0,2023-03-09T13:52:53.606391,2072970,-526,703,1464,-572,-440,-912,68,182,-86
0,2023-03-09T13:52:53.611518,2072975,-526,703,1464,-572,-440,-912,68,182,-86
0,2023-03-09T13:52:53.615949,2072980,-526,703,1464,-572,-440,-912,68,182,-86
0,2023-03-09T13:52:53.620881,2072984,-529,704,1462,-568,-431,-897,67,187,-87
0,2023-03-09T13:52:53.626235,2072989,-529,704,1462,-568,-431,-897,67,187,-87
0,2023-03-09T13:52:53.631428,2072995,-529,704,1462,-568,-431,-897,67,187,-87
0,2023-03-09T13:52:53.635926,2072999,-529,704,1462,-568,-431,-897,67,187,-87
0,2023-03-09T13:52:53.641062,2073005,-524,708,1459,-588,-429,-888,67,187,-87
0,2023-03-09T13:52:53.646125,2073010,-524,708,1459,-588,-429,-888,67,187,-87
0,2023-03-09T13:52:53.650542,2073014,-524,708,1459,-588,-429,-888,67,187,-87
0,2023-03-09T13:52:53.654816,2073019,-524,708,1459,-588,-429,-888,67,187,-87
0,2023-03-09T13:52:53.659135,2073023,-529,706,1464,-586,-436,-890,67,187,-87
0,2023-03-09T13:52:53.664475,2073028,-529,706,1464,-586,-436,-890,67,187,-87
0,2023-03-09T13:52:53.668927,2073032,-529,706,1464,-586,-436,-890,67,187,-87
0,2023-03-09T13:52:53.673423,2073037,-529,706,1464,-586,-436,-890,67,187,-87
0,2023-03-09T13:52:53.678275,2073041,-530,712,1466,-590,-444,-890,67,187,-87
0,2023-03-09T13:52:53.683328,2073047,-530,712,1466,-590,-444,-890,67,187,-87
0,2023-03-09T13:52:53.687968,2073052,-530,712,1466,-590,-444,-890,67,187,-87
0,2023-03-09T13:52:53.692652,2073056,-530,712,1466,-590,-444,-890,67,187,-87
0,2023-03-09T13:52:53.697233,2073061,-525,710,1463,-580,-437,-905,67,187,-87
0,2023-03-09T13:52:53.702494,2073066,-525,710,1463,-580,-437,-905,67,187,-87
0,2023-03-09T13:52:53.706921,2073070,-525,710,1463,-580,-437,-905,67,187,-87
0,2023-03-09T13:52:53.711270,2073075,-525,710,1463,-580,-437,-905,67,187,-87
0,2023-03-09T13:52:53.716284,2073079,-525,710,1463,-580,-437,-905,67,187,-87
0,2023-03-09T13:52:53.721591,2073085,-530,707,1455,-572,-429,-907,67,187,-87
0,2023-03-09T13:52:53.726465,2073090,-530,707,1455,-572,-429,-907,67,187,-87
0,2023-03-09T13:52:53.730703,2073095,-530,707,1455,-572,-429,-907,67,187,-87
0,2023-03-09T13:52:53.735043,2073099,-530,707,1455,-572,-429,-907,67,187,-87
0,2023-03-09T13:52:53.740001,2073104,-536,714,1453,-571,-433,-906,63,181,-77
0,2023-03-09T13:52:53.744998,2073109,-536,714,1453,-571,-433,-906,63,181,-77
0,2023-03-09T13:52:53.749644,2073113,-536,714,1453,-571,-433,-906,63,181,-77
0,2023-03-09T13:52:53.754280,2073118,-536,714,1453,-571,-433,-906,63,181,-77
0,2023-03-09T13:52:53.759319,2073123,-533,714,1458,-558,-434,-907,63,181,-77
0,2023-03-09T13:52:53.764801,2073128,-533,714,1458,-558,-434,-907,63,181,-77
0,2023-03-09T13:52:53.769325,2073133,-533,714,1458,-558,-434,-907,63,181,-77
0,2023-03-09T13:52:53.774250,2073138,-533,714,1458,-558,-434,-907,63,181,-77
0,2023-03-09T13:52:53.779361,2073143,-541,720,1456,-571,-431,-894,63,181,-77
0,2023-03-09T13:52:53.784410,2073148,-541,720,1456,-571,-431,-894,63,181,-77
0,2023-03-09T13:52:53.788643,2073152,-541,720,1456,-571,-431,-894,63,181,-77
0,2023-03-09T13:52:53.794115,2073157,-541,720,1456,-571,-431,-894,63,181,-77
0,2023-03-09T13:52:53.799461,2073163,-539,717,1450,-587,-438,-896,63,181,-77
0,2023-03-09T13:52:53.804652,2073168,-539,717,1450,-587,-438,-896,63,181,-77
0,2023-03-09T13:52:53.809301,2073172,-539,717,1450,-587,-438,-896,63,181,-77
0,2023-03-09T13:52:53.813903,2073178,-539,717,1450,-587,-438,-896,63,181,-77
0,2023-03-09T13:52:53.818829,2073183,-537,717,1457,-587,-456,-904,63,181,-77
0,2023-03-09T13:52:53.823990,2073188,-537,717,1457,-587,-456,-904,63,181,-77
0,2023-03-09T13:52:53.828283,2073192,-537,717,1457,-587,-456,-904,63,181,-77
0,2023-03-09T13:52:53.832794,2073196,-537,717,1457,-587,-456,-904,63,181,-77
0,2023-03-09T13:52:53.837298,2073201,-537,717,1457,-587,-456,-904,63,181,-77
0,2023-03-09T13:52:53.842388,2073206,-534,714,1455,-573,-442,-914,63,181,-77
0,2023-03-09T13:52:53.847210,2073210,-534,714,1455,-573,-442,-914,63,181,-77
0,2023-03-09T13:52:53.851610,2073216,-534,714,1455,-573,-442,-914,63,181,-77
0,2023-03-09T13:52:53.856122,2073220,-534,714,1455,-573,-442,-914,63,181,-77
0,2023-03-09T13:52:53.861245,2073225,-537,720,1451,-561,-431,-923,63,181,-77
0,2023-03-09T13:52:53.866255,2073230,-537,720,1451,-561,-431,-923,63,181,-77
0,2023-03-09T13:52:53.870569,2073234,-537,720,1451,-561,-431,-923,63,181,-77
0,2023-03-09T13:52:53.874942,2073239,-537,720,1451,-561,-431,-923,63,181,-77
0,2023-03-09T13:52:53.879577,2073243,-547,721,1457,-552,-463,-949,57,189,-97
0,2023-03-09T13:52:53.884290,2073248,-547,721,1457,-552,-463,-949,57,189,-97
0,2023-03-09T13:52:53.888404,2073252,-547,721,1457,-552,-463,-949,57,189,-97
0,2023-03-09T13:52:53.893004,2073256,-547,721,1457,-552,-463,-949,57,189,-97
0,2023-03-09T13:52:53.898046,2073262,-549,724,1458,-536,-447,-962,57,189,-97
0,2023-03-09T13:52:53.902954,2073267,-549,724,1458,-536,-447,-962,57,189,-97
0,2023-03-09T13:52:53.907050,2073271,-549,724,1458,-536,-447,-962,57,189,-97
0,2023-03-09T13:52:53.911536,2073275,-549,724,1458,-536,-447,-962,57,189,-97
0,2023-03-09T13:52:53.916332,2073280,-549,724,1458,-536,-447,-962,57,189,-97
0,2023-03-09T13:52:53.921528,2073285,-549,725,1445,-552,-448,-951,57,189,-97
0,2023-03-09T13:52:53.926422,2073290,-549,725,1445,-552,-448,-951,57,189,-97
0,2023-03-09T13:52:53.931245,2073295,-549,725,1445,-552,-448,-951,57,189,-97
0,2023-03-09T13:52:53.935784,2073299,-549,725,1445,-552,-448,-951,57,189,-97
0,2023-03-09T13:52:53.940826,2073305,-554,729,1442,-565,-451,-936,57,189,-97
0,2023-03-09T13:52:53.945490,2073310,-554,729,1442,-565,-451,-936,57,189,-97
0,2023-03-09T13:52:53.950192,2073314,-554,729,1442,-565,-451,-936,57,189,-97
0,2023-03-09T13:52:53.954624,2073318,-554,729,1442,-565,-451,-936,57,189,-97
0,2023-03-09T13:52:53.959468,2073323,-547,726,1443,-578,-470,-938,57,189,-97
0,2023-03-09T13:52:53.964501,2073328,-547,726,1443,-578,-470,-938,57,189,-97
0,2023-03-09T13:52:53.969105,2073332,-547,726,1443,-578,-470,-938,57,189,-97
0,2023-03-09T13:52:53.973615,2073337,-547,726,1443,-578,-470,-938,57,189,-97
0,2023-03-09T13:52:53.978493,2073342,-551,724,1448,-576,-461,-924,57,189,-97
0,2023-03-09T13:52:53.983572,2073347,-551,724,1448,-576,-461,-924,57,189,-97
0,2023-03-09T13:52:53.988195,2073352,-551,724,1448,-576,-461,-924,57,189,-97
0,2023-03-09T13:52:53.992586,2073356,-551,724,1448,-576,-461,-924,57,189,-97
0,2023-03-09T13:52:53.997073,2073361,-551,724,1448,-576,-461,-924,57,189,-97
0,2023-03-09T13:52:54.001996,2073366,-554,729,1454,-577,-443,-889,63,169,-83
0,2023-03-09T13:52:54.007097,2073371,-554,729,1454,-577,-443,-889,63,169,-83
0,2023-03-09T13:52:54.011350,2073375,-554,729,1454,-577,-443,-889,63,169,-83
0,2023-03-09T13:52:54.015689,2073379,-554,729,1454,-577,-443,-889,63,169,-83
0,2023-03-09T13:52:54.020493,2073384,-556,735,1447,-584,-450,-889,63,169,-83
0,2023-03-09T13:52:54.025188,2073389,-556,735,1447,-584,-450,-889,63,169,-83
0,2023-03-09T13:52:54.029804,2073394,-556,735,1447,-584,-450,-889,63,169,-83
0,2023-03-09T13:52:54.034248,2073398,-556,735,1447,-584,-450,-889,63,169,-83
0,2023-03-09T13:52:54.039292,2073403,-556,729,1440,-561,-463,-914,63,169,-83
0,2023-03-09T13:52:54.044282,2073408,-556,729,1440,-561,-463,-914,63,169,-83
0,2023-03-09T13:52:54.048857,2073412,-556,729,1440,-561,-463,-914,63,169,-83
0,2023-03-09T13:52:54.054118,2073417,-556,729,1440,-561,-463,-914,63,169,-83
0,2023-03-09T13:52:54.058943,2073422,-556,736,1441,-583,-450,-899,63,169,-83
0,2023-03-09T13:52:54.064038,2073427,-556,736,1441,-583,-450,-899,63,169,-83
0,2023-03-09T13:52:54.068362,2073432,-556,736,1441,-583,-450,-899,63,169,-83
0,2023-03-09T13:52:54.072943,2073437,-556,736,1441,-583,-450,-899,63,169,-83
0,2023-03-09T13:52:54.077246,2073441,-556,736,1441,-583,-450,-899,63,169,-83
0,2023-03-09T13:52:54.082292,2073446,-560,733,1447,-569,-456,-905,63,169,-83
0,2023-03-09T13:52:54.087242,2073451,-560,733,1447,-569,-456,-905,63,169,-83
0,2023-03-09T13:52:54.091938,2073455,-560,733,1447,-569,-456,-905,63,169,-83
0,2023-03-09T13:52:54.096547,2073460,-560,733,1447,-569,-456,-905,63,169,-83
0,2023-03-09T13:52:54.101550,2073465,-558,733,1444,-569,-452,-907,63,169,-83
0,2023-03-09T13:52:54.106323,2073469,-558,733,1444,-569,-452,-907,63,169,-83
0,2023-03-09T13:52:54.111174,2073475,-558,733,1444,-569,-452,-907,63,169,-83
0,2023-03-09T13:52:54.115596,2073480,-558,733,1444,-569,-452,-907,63,169,-83
0,2023-03-09T13:52:54.120354,2073484,-560,736,1440,-578,-446,-910,63,169,-83
0,2023-03-09T13:52:54.125212,2073489,-560,736,1440,-578,-446,-910,63,169,-83
0,2023-03-09T13:52:54.129782,2073493,-560,736,1440,-578,-446,-910,63,169,-83
0,2023-03-09T13:52:54.134281,2073498,-560,736,1440,-578,-446,-910,63,169,-83
0,2023-03-09T13:52:54.138623,2073502,-564,734,1436,-571,-444,-897,58,184,-90
0,2023-03-09T13:52:54.143927,2073507,-564,734,1436,-571,-444,-897,58,184,-90
0,2023-03-09T13:52:54.148318,2073511,-564,734,1436,-571,-444,-897,58,184,-90
0,2023-03-09T13:52:54.153284,2073517,-564,734,1436,-571,-444,-897,58,184,-90
0,2023-03-09T13:52:54.158324,2073522,-563,740,1441,-580,-452,-893,58,184,-90
0,2023-03-09T13:52:54.163604,2073527,-563,740,1441,-580,-452,-893,58,184,-90
0,2023-03-09T13:52:54.167980,2073532,-563,740,1441,-580,-452,-893,58,184,-90
0,2023-03-09T13:52:54.172697,2073536,-563,740,1441,-580,-452,-893,58,184,-90
0,2023-03-09T13:52:54.177037,2073541,-563,740,1441,-580,-452,-893,58,184,-90
0,2023-03-09T13:52:54.182297,2073546,-565,738,1440,-579,-449,-878,58,184,-90
0,2023-03-09T13:52:54.187463,2073551,-565,738,1440,-579,-449,-878,58,184,-90
0,2023-03-09T13:52:54.191852,2073555,-565,738,1440,-579,-449,-878,58,184,-90
0,2023-03-09T13:52:54.196362,2073560,-565,738,1440,-579,-449,-878,58,184,-90
0,2023-03-09T13:52:54.201274,2073565,-573,741,1437,-581,-447,-864,58,184,-90
0,2023-03-09T13:52:54.205774,2073570,-573,741,1437,-581,-447,-864,58,184,-90
0,2023-03-09T13:52:54.210791,2073575,-573,741,1437,-581,-447,-864,58,184,-90
0,2023-03-09T13:52:54.215347,2073579,-573,741,1437,-581,-447,-864,58,184,-90
0,2023-03-09T13:52:54.220327,2073584,-566,743,1433,-595,-448,-861,58,184,-90
0,2023-03-09T13:52:54.225342,2073589,-566,743,1433,-595,-448,-861,58,184,-90
0,2023-03-09T13:52:54.229819,2073593,-566,743,1433,-595,-448,-861,58,184,-90
0,2023-03-09T13:52:54.234511,2073598,-566,743,1433,-595,-448,-861,58,184,-90
0,2023-03-09T13:52:54.239535,2073604,-571,740,1434,-596,-453,-865,58,184,-90
0,2023-03-09T13:52:54.244419,2073608,-571,740,1434,-596,-453,-865,58,184,-90
0,2023-03-09T13:52:54.249331,2073613,-571,740,1434,-596,-453,-865,58,184,-90
0,2023-03-09T13:52:54.253724,2073617,-571,740,1434,-596,-453,-865,58,184,-90
0,2023-03-09T13:52:54.258600,2073622,-571,744,1427,-586,-439,-877,56,186,-88
0,2023-03-09T13:52:54.263215,2073627,-571,744,1427,-586,-439,-877,56,186,-88
0,2023-03-09T13:52:54.267461,2073631,-571,744,1427,-586,-439,-877,56,186,-88
0,2023-03-09T13:52:54.272057,2073635,-571,744,1427,-586,-439,-877,56,186,-88
0,2023-03-09T13:52:54.276398,2073640,-571,744,1427,-586,-439,-877,56,186,-88
0,2023-03-09T13:52:54.281700,2073645,-571,746,1436,-578,-449,-876,56,186,-88
0,2023-03-09T13:52:54.286825,2073651,-571,746,1436,-578,-449,-876,56,186,-88
0,2023-03-09T13:52:54.291205,2073655,-571,746,1436,-578,-449,-876,56,186,-88
0,2023-03-09T13:52:54.295791,2073659,-571,746,1436,-578,-449,-876,56,186,-88
0,2023-03-09T13:52:54.300271,2073664,-577,748,1435,-569,-444,-894,56,186,-88
0,2023-03-09T13:52:54.305234,2073669,-577,748,1435,-569,-444,-894,56,186,-88
0,2023-03-09T13:52:54.309801,2073673,-577,748,1435,-569,-444,-894,56,186,-88
0,2023-03-09T13:52:54.314237,2073678,-577,748,1435,-569,-444,-894,56,186,-88
0,2023-03-09T13:52:54.318948,2073682,-576,748,1430,-560,-445,-907,56,186,-88
0,2023-03-09T13:52:54.324144,2073688,-576,748,1430,-560,-445,-907,56,186,-88
0,2023-03-09T13:52:54.328692,2073693,-576,748,1430,-560,-445,-907,56,186,-88
0,2023-03-09T13:52:54.333166,2073697,-576,748,1430,-560,-445,-907,56,186,-88
0,2023-03-09T13:52:54.338341,2073702,-579,747,1423,-549,-436,-897,56,186,-88
0,2023-03-09T13:52:54.343361,2073707,-579,747,1423,-549,-436,-897,56,186,-88
0,2023-03-09T13:52:54.347862,2073711,-579,747,1423,-549,-436,-897,56,186,-88
0,2023-03-09T13:52:54.352661,2073716,-579,747,1423,-549,-436,-897,56,186,-88
0,2023-03-09T13:52:54.357087,2073720,-579,747,1423,-549,-436,-897,56,186,-88
0,2023-03-09T13:52:54.361502,2073725,-580,748,1425,-562,-443,-891,56,186,-88
0,2023-03-09T13:52:54.366591,2073731,-580,748,1425,-562,-443,-891,56,186,-88
0,2023-03-09T13:52:54.370875,2073735,-580,748,1425,-562,-443,-891,56,186,-88
0,2023-03-09T13:52:54.375448,2073739,-580,748,1425,-562,-443,-891,56,186,-88
0,2023-03-09T13:52:54.380252,2073744,-581,752,1428,-560,-447,-887,56,186,-88
0,2023-03-09T13:52:54.384388,2073748,-581,752,1428,-560,-447,-887,56,186,-88
0,2023-03-09T13:52:54.388760,2073752,-581,752,1428,-560,-447,-887,56,186,-88
0,2023-03-09T13:52:54.393258,2073757,-581,752,1428,-560,-447,-887,56,186,-88
0,2023-03-09T13:52:54.398308,2073762,-588,752,1435,-558,-455,-892,62,186,-96
0,2023-03-09T13:52:54.403357,2073766,-588,752,1435,-558,-455,-892,62,186,-96
0,2023-03-09T13:52:54.407965,2073772,-588,752,1435,-558,-455,-892,62,186,-96
0,2023-03-09T13:52:54.412485,2073777,-588,752,1435,-558,-455,-892,62,186,-96
0,2023-03-09T13:52:54.417072,2073781,-588,752,1435,-558,-455,-892,62,186,-96
0,2023-03-09T13:52:54.421921,2073786,-582,753,1427,-557,-457,-898,62,186,-96
0,2023-03-09T13:52:54.426750,2073790,-582,753,1427,-557,-457,-898,62,186,-96
0,2023-03-09T13:52:54.431852,2073795,-582,753,1427,-557,-457,-898,62,186,-96
0,2023-03-09T13:52:54.436179,2073800,-582,753,1427,-557,-457,-898,62,186,-96
0,2023-03-09T13:52:54.441016,2073804,-581,753,1423,-559,-459,-905,62,186,-96
0,2023-03-09T13:52:54.445916,2073809,-581,753,1423,-559,-459,-905,62,186,-96
0,2023-03-09T13:52:54.450556,2073814,-581,753,1423,-559,-459,-905,62,186,-96
0,2023-03-09T13:52:54.455114,2073819,-581,753,1423,-559,-459,-905,62,186,-96
0,2023-03-09T13:52:54.460253,2073824,-586,755,1423,-543,-452,-912,62,186,-96
0,2023-03-09T13:52:54.465395,2073829,-586,755,1423,-543,-452,-912,62,186,-96
0,2023-03-09T13:52:54.469934,2073834,-586,755,1423,-543,-452,-912,62,186,-96
0,2023-03-09T13:52:54.474507,2073838,-586,755,1423,-543,-452,-912,62,186,-96
0,2023-03-09T13:52:54.479650,2073843,-590,761,1424,-548,-459,-923,62,186,-96
0,2023-03-09T13:52:54.484667,2073848,-590,761,1424,-548,-459,-923,62,186,-96
0,2023-03-09T13:52:54.488974,2073852,-590,761,1424,-548,-459,-923,62,186,-96
0,2023-03-09T13:52:54.493446,2073858,-590,761,1424,-548,-459,-923,62,186,-96
0,2023-03-09T13:52:54.498506,2073863,-596,761,1420,-538,-456,-921,62,186,-96
0,2023-03-09T13:52:54.503361,2073867,-596,761,1420,-538,-456,-921,62,186,-96
0,2023-03-09T13:52:54.507678,2073871,-596,761,1420,-538,-456,-921,62,186,-96
0,2023-03-09T13:52:54.512681,2073876,-596,761,1420,-538,-456,-921,62,186,-96
0,2023-03-09T13:52:54.517423,2073881,-596,761,1420,-538,-456,-921,62,186,-96
0,2023-03-09T13:52:54.522487,2073886,-592,761,1422,-541,-458,-926,55,189,-85
0,2023-03-09T13:52:54.527406,2073891,-592,761,1422,-541,-458,-926,55,189,-85
0,2023-03-09T13:52:54.532513,2073896,-592,761,1422,-541,-458,-926,55,189,-85
0,2023-03-09T13:52:54.536974,2073901,-592,761,1422,-541,-458,-926,55,189,-85
0,2023-03-09T13:52:54.541726,2073906,-592,758,1415,-549,-467,-914,55,189,-85
0,2023-03-09T13:52:54.546693,2073911,-592,758,1415,-549,-467,-914,55,189,-85
0,2023-03-09T13:52:54.551439,2073915,-592,758,1415,-549,-467,-914,55,189,-85
0,2023-03-09T13:52:54.555770,2073919,-592,758,1415,-549,-467,-914,55,189,-85
0,2023-03-09T13:52:54.560875,2073924,-593,758,1417,-562,-473,-905,55,189,-85
0,2023-03-09T13:52:54.567260,2073931,-593,758,1417,-562,-473,-905,55,189,-85
0,2023-03-09T13:52:54.572392,2073936,-593,758,1417,-562,-473,-905,55,189,-85
0,2023-03-09T13:52:54.576731,2073940,-593,758,1417,-562,-473,-905,55,189,-85
0,2023-03-09T13:52:54.581596,2073946,-596,765,1413,-554,-461,-905,55,189,-85
0,2023-03-09T13:52:54.586031,2073950,-596,765,1413,-554,-461,-905,55,189,-85
0,2023-03-09T13:52:54.590409,2073954,-596,765,1413,-554,-461,-905,55,189,-85
0,2023-03-09T13:52:54.594996,2073959,-596,765,1413,-554,-461,-905,55,189,-85
0,2023-03-09T13:52:54.599744,2073963,-588,762,1423,-543,-457,-926,55,189,-85
0,2023-03-09T13:52:54.604886,2073968,-588,762,1423,-543,-457,-926,55,189,-85
0,2023-03-09T13:52:54.609390,2073973,-588,762,1423,-543,-457,-926,55,189,-85
0,2023-03-09T13:52:54.614574,2073978,-588,762,1423,-543,-457,-926,55,189,-85
0,2023-03-09T13:52:54.619003,2073982,-599,763,1421,-534,-464,-934,55,189,-85
0,2023-03-09T13:52:54.623986,2073988,-599,763,1421,-534,-464,-934,55,189,-85
0,2023-03-09T13:52:54.628554,2073992,-599,763,1421,-534,-464,-934,55,189,-85
0,2023-03-09T13:52:54.632825,2073997,-599,763,1421,-534,-464,-934,55,189,-85
0,2023-03-09T13:52:54.637241,2074001,-599,763,1421,-534,-464,-934,55,189,-85
0,2023-03-09T13:52:54.642118,2074006,-599,766,1412,-549,-466,-931,60,190,-90
0,2023-03-09T13:52:54.646992,2074011,-599,766,1412,-549,-466,-931,60,190,-90
0,2023-03-09T13:52:54.651667,2074015,-599,766,1412,-549,-466,-931,60,190,-90
0,2023-03-09T13:52:54.655926,2074019,-599,766,1412,-549,-466,-931,60,190,-90
0,2023-03-09T13:52:54.660987,2074024,-602,766,1412,-541,-467,-935,60,190,-90
0,2023-03-09T13:52:54.666116,2074030,-602,766,1412,-541,-467,-935,60,190,-90
0,2023-03-09T13:52:54.671019,2074035,-602,766,1412,-541,-467,-935,60,190,-90
0,2023-03-09T13:52:54.675414,2074039,-602,766,1412,-541,-467,-935,60,190,-90
0,2023-03-09T13:52:54.679784,2074044,-603,769,1418,-533,-470,-935,60,190,-90
0,2023-03-09T13:52:54.684578,2074048,-603,769,1418,-533,-470,-935,60,190,-90
0,2023-03-09T13:52:54.689002,2074053,-603,769,1418,-533,-470,-935,60,190,-90
0,2023-03-09T13:52:54.693430,2074057,-603,769,1418,-533,-470,-935,60,190,-90
0,2023-03-09T13:52:54.698369,2074062,-603,769,1418,-533,-470,-935,60,190,-90
0,2023-03-09T13:52:54.702820,2074066,-605,773,1413,-555,-477,-924,60,190,-90
0,2023-03-09T13:52:54.707825,2074072,-605,773,1413,-555,-477,-924,60,190,-90
0,2023-03-09T13:52:54.712829,2074077,-605,773,1413,-555,-477,-924,60,190,-90
0,2023-03-09T13:52:54.717415,2074081,-605,773,1413,-555,-477,-924,60,190,-90
0,2023-03-09T13:52:54.722424,2074086,-610,774,1413,-554,-488,-932,60,190,-90
0,2023-03-09T13:52:54.727337,2074091,-610,774,1413,-554,-488,-932,60,190,-90
0,2023-03-09T13:52:54.732059,2074095,-610,774,1413,-554,-488,-932,60,190,-90
0,2023-03-09T13:52:54.736613,2074100,-610,774,1413,-554,-488,-932,60,190,-90
0,2023-03-09T13:52:54.741297,2074105,-604,771,1410,-539,-482,-950,60,190,-90
0,2023-03-09T13:52:54.746724,2074110,-604,771,1410,-539,-482,-950,60,190,-90
0,2023-03-09T13:52:54.751760,2074116,-604,771,1410,-539,-482,-950,60,190,-90
0,2023-03-09T13:52:54.756454,2074120,-604,771,1410,-539,-482,-950,60,190,-90
0,2023-03-09T13:52:54.761371,2074125,-604,765,1409,-543,-482,-949,60,190,-90
0,2023-03-09T13:52:54.766219,2074130,-604,765,1409,-543,-482,-949,60,190,-90
0,2023-03-09T13:52:54.770756,2074134,-604,765,1409,-543,-482,-949,60,190,-90
0,2023-03-09T13:52:54.775225,2074139,-604,765,1409,-543,-482,-949,60,190,-90
0,2023-03-09T13:52:54.780321,2074144,-614,772,1408,-538,-478,-940,55,191,-93
0,2023-03-09T13:52:54.785411,2074149,-614,772,1408,-538,-478,-940,55,191,-93
0,2023-03-09T13:52:54.789717,2074153,-614,772,1408,-538,-478,-940,55,191,-93
0,2023-03-09T13:52:54.794787,2074159,-614,772,1408,-538,-478,-940,55,191,-93
0,2023-03-09T13:52:54.799783,2074164,-611,777,1415,-537,-483,-949,55,191,-93
0,2023-03-09T13:52:54.804878,2074169,-611,777,1415,-537,-483,-949,55,191,-93
0,2023-03-09T13:52:54.809388,2074173,-611,777,1415,-537,-483,-949,55,191,-93
0,2023-03-09T13:52:54.813862,2074178,-611,777,1415,-537,-483,-949,55,191,-93
0,2023-03-09T13:52:54.818895,2074182,-617,775,1412,-538,-477,-929,55,191,-93
0,2023-03-09T13:52:54.824064,2074187,-617,775,1412,-538,-477,-929,55,191,-93
0,2023-03-09T13:52:54.828436,2074192,-617,775,1412,-538,-477,-929,55,191,-93
0,2023-03-09T13:52:54.832981,2074196,-617,775,1412,-538,-477,-929,55,191,-93
0,2023-03-09T13:52:54.837679,2074202,-617,775,1412,-538,-477,-929,55,191,-93
0,2023-03-09T13:52:54.842708,2074207,-614,778,1402,-553,-488,-932,55,191,-93
0,2023-03-09T13:52:54.847670,2074211,-614,778,1402,-553,-488,-932,55,191,-93
0,2023-03-09T13:52:54.852453,2074216,-614,778,1402,-553,-488,-932,55,191,-93
0,2023-03-09T13:52:54.856739,2074220,-614,778,1402,-553,-488,-932,55,191,-93
0,2023-03-09T13:52:54.861893,2074225,-614,778,1398,-551,-494,-933,55,191,-93
0,2023-03-09T13:52:54.866322,2074230,-614,778,1398,-551,-494,-933,55,191,-93
0,2023-03-09T13:52:54.870863,2074234,-614,778,1398,-551,-494,-933,55,191,-93
0,2023-03-09T13:52:54.875243,2074238,-614,778,1398,-551,-494,-933,55,191,-93
0,2023-03-09T13:52:54.879762,2074244,-617,777,1400,-547,-497,-944,55,191,-93
0,2023-03-09T13:52:54.884736,2074249,-617,777,1400,-547,-497,-944,55,191,-93
0,2023-03-09T13:52:54.889321,2074253,-617,777,1400,-547,-497,-944,55,191,-93
0,2023-03-09T13:52:54.894370,2074258,-617,777,1400,-547,-497,-944,55,191,-93
0,2023-03-09T13:52:54.899735,2074263,-614,777,1404,-539,-481,-936,55,191,-91
0,2023-03-09T13:52:54.904670,2074268,-614,777,1404,-539,-481,-936,55,191,-91
0,2023-03-09T13:52:54.909333,2074272,-614,777,1404,-539,-481,-936,55,191,-91
0,2023-03-09T13:52:54.913694,2074277,-614,777,1404,-539,-481,-936,55,191,-91
0,2023-03-09T13:52:54.918467,2074283,-614,777,1404,-539,-481,-936,55,191,-91
0,2023-03-09T13:52:54.922955,2074287,-619,781,1399,-543,-473,-924,55,191,-91
0,2023-03-09T13:52:54.927876,2074292,-619,781,1399,-543,-473,-924,55,191,-91
0,2023-03-09T13:52:54.932354,2074296,-619,781,1399,-543,-473,-924,55,191,-91
0,2023-03-09T13:52:54.936897,2074301,-619,781,1399,-543,-473,-924,55,191,-91
0,2023-03-09T13:52:54.941992,2074305,-626,784,1390,-551,-472,-894,55,191,-91
0,2023-03-09T13:52:54.947150,2074311,-626,784,1390,-551,-472,-894,55,191,-91
0,2023-03-09T13:52:54.951715,2074315,-626,784,1390,-551,-472,-894,55,191,-91
0,2023-03-09T13:52:54.956359,2074320,-626,784,1390,-551,-472,-894,55,191,-91
0,2023-03-09T13:52:54.961666,2074326,-624,787,1390,-563,-481,-888,55,191,-91
0,2023-03-09T13:52:54.966431,2074330,-624,787,1390,-563,-481,-888,55,191,-91
0,2023-03-09T13:52:54.971382,2074335,-624,787,1390,-563,-481,-888,55,191,-91
0,2023-03-09T13:52:54.975862,2074340,-624,787,1390,-563,-481,-888,55,191,-91
0,2023-03-09T13:52:54.980714,2074345,-629,785,1395,-573,-484,-881,55,191,-91
0,2023-03-09T13:52:54.985718,2074349,-629,785,1395,-573,-484,-881,55,191,-91
0,2023-03-09T13:52:54.990443,2074354,-629,785,1395,-573,-484,-881,55,191,-91
0,2023-03-09T13:52:54.995415,2074359,-629,785,1395,-573,-484,-881,55,191,-91
0,2023-03-09T13:52:55.000158,2074363,-624,790,1397,-570,-489,-887,55,191,-91
0,2023-03-09T13:52:55.004773,2074369,-624,790,1397,-570,-489,-887,55,191,-91
0,2023-03-09T13:52:55.009356,2074373,-624,790,1397,-570,-489,-887,55,191,-91
0,2023-03-09T13:52:55.013907,2074378,-624,790,1397,-570,-489,-887,55,191,-91
0,2023-03-09T13:52:55.018296,2074382,-624,790,1397,-570,-489,-887,55,191,-91
0,2023-03-09T13:52:55.022784,2074387,-618,783,1395,-569,-480,-895,55,191,-91
0,2023-03-09T13:52:55.027777,2074391,-618,783,1395,-569,-480,-895,55,191,-91
0,2023-03-09T13:52:55.032299,2074396,-618,783,1395,-569,-480,-895,55,191,-91
0,2023-03-09T13:52:55.036654,2074400,-618,783,1395,-569,-480,-895,55,191,-91
0,2023-03-09T13:52:55.041537,2074405,-624,783,1398,-571,-484,-891,47,187,-93
0,2023-03-09T13:52:55.046807,2074411,-624,783,1398,-571,-484,-891,47,187,-93
0,2023-03-09T13:52:55.051425,2074415,-624,783,1398,-571,-484,-891,47,187,-93
0,2023-03-09T13:52:55.055922,2074420,-624,783,1398,-571,-484,-891,47,187,-93
0,2023-03-09T13:52:55.060842,2074425,-631,786,1390,-554,-466,-895,47,187,-93
0,2023-03-09T13:52:55.065614,2074429,-631,786,1390,-554,-466,-895,47,187,-93
0,2023-03-09T13:52:55.070048,2074434,-631,786,1390,-554,-466,-895,47,187,-93
0,2023-03-09T13:52:55.074631,2074438,-631,786,1390,-554,-466,-895,47,187,-93
0,2023-03-09T13:52:55.079261,2074443,-638,790,1387,-550,-477,-888,47,187,-93
0,2023-03-09T13:52:55.084246,2074448,-638,790,1387,-550,-477,-888,47,187,-93
0,2023-03-09T13:52:55.089222,2074452,-638,790,1387,-550,-477,-888,47,187,-93
0,2023-03-09T13:52:55.094372,2074458,-638,790,1387,-550,-477,-888,47,187,-93
0,2023-03-09T13:52:55.099298,2074463,-636,793,1385,-562,-477,-874,47,187,-93
0,2023-03-09T13:52:55.104408,2074468,-636,793,1385,-562,-477,-874,47,187,-93
0,2023-03-09T13:52:55.108952,2074473,-636,793,1385,-562,-477,-874,47,187,-93
0,2023-03-09T13:52:55.113752,2074477,-636,793,1385,-562,-477,-874,47,187,-93
0,2023-03-09T13:52:55.118949,2074482,-636,793,1385,-562,-477,-874,47,187,-93
0,2023-03-09T13:52:55.123616,2074487,-632,794,1389,-584,-496,-871,47,187,-93
0,2023-03-09T13:52:55.128550,2074492,-632,794,1389,-584,-496,-871,47,187,-93
0,2023-03-09T13:52:55.133273,2074497,-632,794,1389,-584,-496,-871,47,187,-93
0,2023-03-09T13:52:55.137610,2074502,-632,794,1389,-584,-496,-871,47,187,-93
0,2023-03-09T13:52:55.142917,2074507,-632,789,1386,-584,-492,-868,47,187,-93
0,2023-03-09T13:52:55.147810,2074512,-632,789,1386,-584,-492,-868,47,187,-93
0,2023-03-09T13:52:55.152249,2074516,-632,789,1386,-584,-492,-868,47,187,-93
0,2023-03-09T13:52:55.156606,2074520,-632,789,1386,-584,-492,-868,47,187,-93
0,2023-03-09T13:52:55.161325,2074525,-636,795,1393,-573,-480,-863,49,197,-89
0,2023-03-09T13:52:55.166425,2074529,-636,795,1393,-573,-480,-863,49,197,-89
0,2023-03-09T13:52:55.170705,2074534,-636,795,1393,-573,-480,-863,49,197,-89
0,2023-03-09T13:52:55.175262,2074539,-636,795,1393,-573,-480,-863,49,197,-89
0,2023-03-09T13:52:55.180283,2074544,-639,796,1387,-572,-477,-876,49,197,-89
0,2023-03-09T13:52:55.185225,2074549,-639,796,1387,-572,-477,-876,49,197,-89
0,2023-03-09T13:52:55.189826,2074554,-639,796,1387,-572,-477,-876,49,197,-89
0,2023-03-09T13:52:55.194559,2074558,-639,796,1387,-572,-477,-876,49,197,-89
0,2023-03-09T13:52:55.200433,2074564,-642,793,1395,-561,-483,-881,49,197,-89
0,2023-03-09T13:52:55.205821,2074569,-642,793,1395,-561,-483,-881,49,197,-89
0,2023-03-09T13:52:55.210474,2074574,-642,793,1395,-561,-483,-881,49,197,-89
0,2023-03-09T13:52:55.215260,2074578,-642,793,1395,-561,-483,-881,49,197,-89
0,2023-03-09T13:52:55.220038,2074584,-638,797,1379,-565,-480,-885,49,197,-89
0,2023-03-09T13:52:55.225238,2074589,-638,797,1379,-565,-480,-885,49,197,-89
0,2023-03-09T13:52:55.229591,2074593,-638,797,1379,-565,-480,-885,49,197,-89
0,2023-03-09T13:52:55.234199,2074598,-638,797,1379,-565,-480,-885,49,197,-89
0,2023-03-09T13:52:55.239361,2074603,-642,799,1379,-562,-481,-874,49,197,-89
0,2023-03-09T13:52:55.244360,2074608,-642,799,1379,-562,-481,-874,49,197,-89
0,2023-03-09T13:52:55.248714,2074612,-642,799,1379,-562,-481,-874,49,197,-89
0,2023-03-09T13:52:55.253181,2074617,-642,799,1379,-562,-481,-874,49,197,-89
0,2023-03-09T13:52:55.257548,2074621,-642,799,1379,-562,-481,-874,49,197,-89
0,2023-03-09T13:52:55.262788,2074627,-642,802,1379,-575,-479,-861,49,197,-89
0,2023-03-09T13:52:55.267754,2074632,-642,802,1379,-575,-479,-861,49,197,-89
0,2023-03-09T13:52:55.273162,2074637,-642,802,1379,-575,-479,-861,49,197,-89
0,2023-03-09T13:52:55.277680,2074642,-642,802,1379,-575,-479,-861,49,197,-89
0,2023-03-09T13:52:55.282786,2074646,-648,803,1379,-576,-485,-870,49,197,-89
0,2023-03-09T13:52:55.287884,2074651,-648,803,1379,-576,-485,-870,49,197,-89
0,2023-03-09T13:52:55.292295,2074656,-648,803,1379,-576,-485,-870,49,197,-89
0,2023-03-09T13:52:55.296817,2074660,-648,803,1379,-576,-485,-870,49,197,-89
0,2023-03-09T13:52:55.301398,2074665,-644,801,1387,-563,-479,-877,49,197,-89
0,2023-03-09T13:52:55.306331,2074671,-644,801,1387,-563,-479,-877,49,197,-89
0,2023-03-09T13:52:55.311001,2074675,-644,801,1387,-563,-479,-877,49,197,-89
0,2023-03-09T13:52:55.315426,2074679,-644,801,1387,-563,-479,-877,49,197,-89
0,2023-03-09T13:52:55.320351,2074684,-644,805,1384,-564,-472,-877,49,197,-89
0,2023-03-09T13:52:55.325502,2074689,-644,805,1384,-564,-472,-877,49,197,-89
0,2023-03-09T13:52:55.330004,2074694,-644,805,1384,-564,-472,-877,49,197,-89
0,2023-03-09T13:52:55.334657,2074698,-644,805,1384,-564,-472,-877,49,197,-89
0,2023-03-09T13:52:55.339554,2074703,-650,801,1376,-559,-476,-875,49,197,-89
0,2023-03-09T13:52:55.344676,2074708,-650,801,1376,-559,-476,-875,49,197,-89
0,2023-03-09T13:52:55.349181,2074713,-650,801,1376,-559,-476,-875,49,197,-89
0,2023-03-09T13:52:55.353769,2074718,-650,801,1376,-559,-476,-875,49,197,-89
0,2023-03-09T13:52:55.358304,2074722,-650,801,1376,-559,-476,-875,49,197,-89
0,2023-03-09T13:52:55.362696,2074727,-647,803,1374,-537,-473,-886,49,197,-89
0,2023-03-09T13:52:55.367078,2074731,-647,803,1374,-537,-473,-886,49,197,-89
0,2023-03-09T13:52:55.371645,2074735,-647,803,1374,-537,-473,-886,49,197,-89
0,2023-03-09T13:52:55.376059,2074740,-647,803,1374,-537,-473,-886,49,197,-89
0,2023-03-09T13:52:55.381237,2074745,-651,809,1374,-543,-469,-874,49,197,-89
0,2023-03-09T13:52:55.386188,2074749,-651,809,1374,-543,-469,-874,49,197,-89
0,2023-03-09T13:52:55.390615,2074755,-651,809,1374,-543,-469,-874,49,197,-89
0,2023-03-09T13:52:55.395004,2074759,-651,809,1374,-543,-469,-874,49,197,-89
0,2023-03-09T13:52:55.399661,2074763,-658,810,1370,-564,-479,-863,49,197,-89
0,2023-03-09T13:52:55.404601,2074768,-658,810,1370,-564,-479,-863,49,197,-89
0,2023-03-09T13:52:55.409061,2074773,-658,810,1370,-564,-479,-863,49,197,-89
0,2023-03-09T13:52:55.413650,2074777,-658,810,1370,-564,-479,-863,49,197,-89
0,2023-03-09T13:52:55.418764,2074782,-658,810,1370,-564,-479,-863,49,197,-89
0,2023-03-09T13:52:55.423237,2074786,-655,811,1379,-567,-482,-874,41,189,-91
0,2023-03-09T13:52:55.428128,2074791,-655,811,1379,-567,-482,-874,41,189,-91
0,2023-03-09T13:52:55.432679,2074797,-655,811,1379,-567,-482,-874,41,189,-91
0,2023-03-09T13:52:55.437298,2074801,-655,811,1379,-567,-482,-874,41,189,-91
0,2023-03-09T13:52:55.442244,2074806,-651,807,1371,-566,-496,-872,41,189,-91
0,2023-03-09T13:52:55.447219,2074811,-651,807,1371,-566,-496,-872,41,189,-91
0,2023-03-09T13:52:55.451646,2074815,-651,807,1371,-566,-496,-872,41,189,-91
0,2023-03-09T13:52:55.456054,2074820,-651,807,1371,-566,-496,-872,41,189,-91
0,2023-03-09T13:52:55.460611,2074824,-655,810,1374,-560,-493,-876,41,189,-91
0,2023-03-09T13:52:55.465660,2074829,-655,810,1374,-560,-493,-876,41,189,-91
0,2023-03-09T13:52:55.470114,2074833,-655,810,1374,-560,-493,-876,41,189,-91
0,2023-03-09T13:52:55.474461,2074839,-655,810,1374,-560,-493,-876,41,189,-91
0,2023-03-09T13:52:55.479492,2074843,-655,810,1374,-560,-493,-876,41,189,-91
0,2023-03-09T13:52:55.483920,2074848,-655,808,1368,-548,-495,-907,41,189,-91
0,2023-03-09T13:52:55.488743,2074853,-655,808,1368,-548,-495,-907,41,189,-91
0,2023-03-09T13:52:55.493332,2074857,-655,808,1368,-548,-495,-907,41,189,-91
0,2023-03-09T13:52:55.497848,2074861,-655,808,1368,-548,-495,-907,41,189,-91
0,2023-03-09T13:52:55.502934,2074866,-663,811,1372,-530,-498,-927,41,189,-91
0,2023-03-09T13:52:55.507819,2074871,-663,811,1372,-530,-498,-927,41,189,-91
0,2023-03-09T13:52:55.512343,2074876,-663,811,1372,-530,-498,-927,41,189,-91
0,2023-03-09T13:52:55.516622,2074881,-663,811,1372,-530,-498,-927,41,189,-91
0,2023-03-09T13:52:55.521558,2074886,-664,818,1368,-534,-497,-924,41,189,-91
0,2023-03-09T13:52:55.526441,2074890,-664,818,1368,-534,-497,-924,41,189,-91
0,2023-03-09T13:52:55.530598,2074894,-664,818,1368,-534,-497,-924,41,189,-91
0,2023-03-09T13:52:55.535257,2074899,-664,818,1368,-534,-497,-924,41,189,-91
0,2023-03-09T13:52:55.540902,2074904,-666,815,1366,-544,-495,-910,42,190,-96
0,2023-03-09T13:52:55.545736,2074909,-666,815,1366,-544,-495,-910,42,190,-96
0,2023-03-09T13:52:55.550052,2074914,-666,815,1366,-544,-495,-910,42,190,-96
0,2023-03-09T13:52:55.554554,2074918,-666,815,1366,-544,-495,-910,42,190,-96
0,2023-03-09T13:52:55.559453,2074924,-670,818,1371,-551,-506,-902,42,190,-96
0,2023-03-09T13:52:55.564237,2074928,-670,818,1371,-551,-506,-902,42,190,-96
0,2023-03-09T13:52:55.568788,2074933,-670,818,1371,-551,-506,-902,42,190,-96
0,2023-03-09T13:52:55.573147,2074937,-670,818,1371,-551,-506,-902,42,190,-96
0,2023-03-09T13:52:55.577977,2074942,-670,818,1371,-551,-506,-902,42,190,-96
0,2023-03-09T13:52:55.582878,2074947,-661,815,1370,-549,-503,-903,42,190,-96
0,2023-03-09T13:52:55.587662,2074951,-661,815,1370,-549,-503,-903,42,190,-96
0,2023-03-09T13:52:55.592458,2074955,-661,815,1370,-549,-503,-903,42,190,-96
0,2023-03-09T13:52:55.596987,2074960,-661,815,1370,-549,-503,-903,42,190,-96
0,2023-03-09T13:52:55.601513,2074966,-662,814,1369,-567,-502,-888,42,190,-96
0,2023-03-09T13:52:55.605870,2074970,-662,814,1369,-567,-502,-888,42,190,-96
0,2023-03-09T13:52:55.610519,2074974,-662,814,1369,-567,-502,-888,42,190,-96
0,2023-03-09T13:52:55.615303,2074979,-662,814,1369,-567,-502,-888,42,190,-96
0,2023-03-09T13:52:55.621260,2074985,-671,821,1363,-571,-501,-872,42,190,-96
0,2023-03-09T13:52:55.625716,2074989,-671,821,1363,-571,-501,-872,42,190,-96
0,2023-03-09T13:52:55.630171,2074994,-671,821,1363,-571,-501,-872,42,190,-96
0,2023-03-09T13:52:55.634667,2074998,-671,821,1363,-571,-501,-872,42,190,-96
0,2023-03-09T13:52:55.639501,2075003,-667,821,1360,-563,-500,-884,42,190,-96
0,2023-03-09T13:52:55.644113,2075008,-667,821,1360,-563,-500,-884,42,190,-96
0,2023-03-09T13:52:55.648714,2075013,-667,821,1360,-563,-500,-884,42,190,-96
0,2023-03-09T13:52:55.653250,2075017,-667,821,1360,-563,-500,-884,42,190,-96
0,2023-03-09T13:52:55.657622,2075022,-667,821,1360,-563,-500,-884,42,190,-96
0,2023-03-09T13:52:55.662927,2075027,-669,816,1355,-548,-501,-893,42,190,-96
0,2023-03-09T13:52:55.667571,2075031,-669,816,1355,-548,-501,-893,42,190,-96
0,2023-03-09T13:52:55.672279,2075036,-669,816,1355,-548,-501,-893,42,190,-96
0,2023-03-09T13:52:55.676731,2075040,-669,816,1355,-548,-501,-893,42,190,-96
0,2023-03-09T13:52:55.681487,2075045,-670,823,1369,-542,-499,-890,43,197,-99
0,2023-03-09T13:52:55.686262,2075049,-670,823,1369,-542,-499,-890,43,197,-99
0,2023-03-09T13:52:55.690765,2075055,-670,823,1369,-542,-499,-890,43,197,-99
0,2023-03-09T13:52:55.695994,2075060,-670,823,1369,-542,-499,-890,43,197,-99
0,2023-03-09T13:52:55.700594,2075064,-675,827,1361,-562,-492,-875,43,197,-99
0,2023-03-09T13:52:55.705348,2075069,-675,827,1361,-562,-492,-875,43,197,-99
0,2023-03-09T13:52:55.709864,2075074,-675,827,1361,-562,-492,-875,43,197,-99
0,2023-03-09T13:52:55.714505,2075078,-675,827,1361,-562,-492,-875,43,197,-99
0,2023-03-09T13:52:55.719458,2075083,-675,827,1361,-562,-492,-875,43,197,-99
0,2023-03-09T13:52:55.723851,2075087,-673,819,1361,-555,-497,-877,43,197,-99
0,2023-03-09T13:52:55.728865,2075092,-673,819,1361,-555,-497,-877,43,197,-99
0,2023-03-09T13:52:55.733417,2075097,-673,819,1361,-555,-497,-877,43,197,-99
0,2023-03-09T13:52:55.738158,2075102,-673,819,1361,-555,-497,-877,43,197,-99
0,2023-03-09T13:52:55.742873,2075107,-675,825,1353,-568,-486,-856,43,197,-99
0,2023-03-09T13:52:55.747805,2075111,-675,825,1353,-568,-486,-856,43,197,-99
0,2023-03-09T13:52:55.753274,2075117,-675,825,1353,-568,-486,-856,43,197,-99
0,2023-03-09T13:52:55.757729,2075121,-675,825,1353,-568,-486,-856,43,197,-99
0,2023-03-09T13:52:55.762846,2075126,-676,821,1353,-569,-489,-843,43,197,-99
0,2023-03-09T13:52:55.767771,2075131,-676,821,1353,-569,-489,-843,43,197,-99
0,2023-03-09T13:52:55.772223,2075136,-676,821,1353,-569,-489,-843,43,197,-99
0,2023-03-09T13:52:55.776566,2075141,-676,821,1353,-569,-489,-843,43,197,-99
0,2023-03-09T13:52:55.781541,2075145,-676,829,1351,-565,-499,-847,43,197,-99
0,2023-03-09T13:52:55.786564,2075151,-676,829,1351,-565,-499,-847,43,197,-99
0,2023-03-09T13:52:55.790785,2075155,-676,829,1351,-565,-499,-847,43,197,-99
0,2023-03-09T13:52:55.795209,2075159,-676,829,1351,-565,-499,-847,43,197,-99
0,2023-03-09T13:52:55.800385,2075164,-678,833,1359,-572,-493,-836,42,200,-96
0,2023-03-09T13:52:55.805194,2075169,-678,833,1359,-572,-493,-836,42,200,-96
0,2023-03-09T13:52:55.809630,2075173,-678,833,1359,-572,-493,-836,42,200,-96
0,2023-03-09T13:52:55.814185,2075177,-678,833,1359,-572,-493,-836,42,200,-96
0,2023-03-09T13:52:55.819197,2075183,-678,833,1359,-572,-493,-836,42,200,-96
0,2023-03-09T13:52:55.823764,2075188,-683,833,1356,-576,-499,-844,42,200,-96
0,2023-03-09T13:52:55.828722,2075193,-683,833,1356,-576,-499,-844,42,200,-96
0,2023-03-09T13:52:55.833021,2075197,-683,833,1356,-576,-499,-844,42,200,-96
0,2023-03-09T13:52:55.837617,2075201,-683,833,1356,-576,-499,-844,42,200,-96
0,2023-03-09T13:52:55.842866,2075206,-680,827,1351,-562,-488,-856,42,200,-96
0,2023-03-09T13:52:55.847713,2075211,-680,827,1351,-562,-488,-856,42,200,-96
0,2023-03-09T13:52:55.852253,2075216,-680,827,1351,-562,-488,-856,42,200,-96
0,2023-03-09T13:52:55.856613,2075220,-680,827,1351,-562,-488,-856,42,200,-96
0,2023-03-09T13:52:55.861478,2075226,-686,829,1344,-572,-486,-845,42,200,-96
0,2023-03-09T13:52:55.866682,2075230,-686,829,1344,-572,-486,-845,42,200,-96
0,2023-03-09T13:52:55.871202,2075235,-686,829,1344,-572,-486,-845,42,200,-96
0,2023-03-09T13:52:55.875587,2075239,-686,829,1344,-572,-486,-845,42,200,-96
0,2023-03-09T13:52:55.880837,2075244,-687,835,1352,-569,-482,-845,42,200,-96
0,2023-03-09T13:52:55.885939,2075249,-687,835,1352,-569,-482,-845,42,200,-96
0,2023-03-09T13:52:55.890466,2075254,-687,835,1352,-569,-482,-845,42,200,-96
0,2023-03-09T13:52:55.895086,2075258,-687,835,1352,-569,-482,-845,42,200,-96
0,2023-03-09T13:52:55.900343,2075264,-683,833,1345,-561,-492,-845,42,200,-96
0,2023-03-09T13:52:55.904629,2075269,-683,833,1345,-561,-492,-845,42,200,-96
0,2023-03-09T13:52:55.909284,2075273,-683,833,1345,-561,-492,-845,42,200,-96
0,2023-03-09T13:52:55.913829,2075278,-683,833,1345,-561,-492,-845,42,200,-96
0,2023-03-09T13:52:55.919023,2075283,-683,833,1345,-561,-492,-845,42,200,-96
0,2023-03-09T13:52:55.923567,2075287,-683,833,1345,-561,-492,-845,42,200,-96
0,2023-03-09T13:52:55.928214,2075292,-683,833,1345,-561,-492,-845,42,200,-96
0,2023-03-09T13:52:55.932494,2075296,-683,833,1345,-561,-492,-845,42,200,-96
0,2023-03-09T13:52:55.937000,2075300,-683,833,1345,-561,-492,-845,42,200,-96
0,2023-03-09T13:52:55.942344,2075307,-684,835,1357,-565,-493,-862,40,198,-96
0,2023-03-09T13:52:55.947549,2075312,-684,835,1357,-565,-493,-862,40,198,-96
0,2023-03-09T13:52:55.952618,2075317,-684,835,1357,-565,-493,-862,40,198,-96
0,2023-03-09T13:52:55.957261,2075321,-684,835,1357,-565,-493,-862,40,198,-96
0,2023-03-09T13:52:55.961996,2075326,-684,835,1345,-552,-499,-877,40,198,-96
0,2023-03-09T13:52:55.966819,2075331,-684,835,1345,-552,-499,-877,40,198,-96
0,2023-03-09T13:52:55.971443,2075335,-684,835,1345,-552,-499,-877,40,198,-96
0,2023-03-09T13:52:55.975972,2075339,-684,835,1345,-552,-499,-877,40,198,-96
0,2023-03-09T13:52:55.980719,2075344,-693,840,1346,-554,-487,-857,40,198,-96
0,2023-03-09T13:52:55.985748,2075350,-693,840,1346,-554,-487,-857,40,198,-96
0,2023-03-09T13:52:55.990213,2075354,-693,840,1346,-554,-487,-857,40,198,-96
0,2023-03-09T13:52:55.994629,2075359,-693,840,1346,-554,-487,-857,40,198,-96
0,2023-03-09T13:52:55.999635,2075364,-693,840,1346,-554,-487,-857,40,198,-96
0,2023-03-09T13:52:56.004045,2075368,-697,845,1337,-556,-487,-854,40,198,-96
0,2023-03-09T13:52:56.009250,2075373,-697,845,1337,-556,-487,-854,40,198,-96
0,2023-03-09T13:52:56.013659,2075377,-697,845,1337,-556,-487,-854,40,198,-96
0,2023-03-09T13:52:56.018112,2075381,-697,845,1337,-556,-487,-854,40,198,-96
0,2023-03-09T13:52:56.023007,2075386,-698,838,1336,-550,-505,-865,40,198,-96
0,2023-03-09T13:52:56.027526,2075392,-698,838,1336,-550,-505,-865,40,198,-96
0,2023-03-09T13:52:56.031796,2075396,-698,838,1336,-550,-505,-865,40,198,-96
0,2023-03-09T13:52:56.036377,2075400,-698,838,1336,-550,-505,-865,40,198,-96
0,2023-03-09T13:52:56.041313,2075405,-695,838,1344,-554,-505,-871,40,198,-96
0,2023-03-09T13:52:56.046328,2075410,-695,838,1344,-554,-505,-871,40,198,-96
0,2023-03-09T13:52:56.050950,2075415,-695,838,1344,-554,-505,-871,40,198,-96
0,2023-03-09T13:52:56.055335,2075419,-695,838,1344,-554,-505,-871,40,198,-96
0,2023-03-09T13:52:56.059625,2075423,-695,838,1344,-554,-505,-871,40,198,-96
0,2023-03-09T13:52:56.064022,2075427,-692,839,1342,-548,-506,-875,45,201,-97
0,2023-03-09T13:52:56.069151,2075432,-692,839,1342,-548,-506,-875,45,201,-97
0,2023-03-09T13:52:56.073805,2075438,-692,839,1342,-548,-506,-875,45,201,-97
0,2023-03-09T13:52:56.078738,2075443,-692,839,1342,-548,-506,-875,45,201,-97
0,2023-03-09T13:52:56.083324,2075447,-696,844,1340,-534,-497,-888,45,201,-97
0,2023-03-09T13:52:56.088144,2075452,-696,844,1340,-534,-497,-888,45,201,-97
0,2023-03-09T13:52:56.092676,2075456,-696,844,1340,-534,-497,-888,45,201,-97
0,2023-03-09T13:52:56.097145,2075461,-696,844,1340,-534,-497,-888,45,201,-97
0,2023-03-09T13:52:56.102298,2075466,-699,844,1338,-530,-509,-903,45,201,-97
0,2023-03-09T13:52:56.106994,2075470,-699,844,1338,-530,-509,-903,45,201,-97
0,2023-03-09T13:52:56.111871,2075475,-699,844,1338,-530,-509,-903,45,201,-97
0,2023-03-09T13:52:56.116569,2075481,-699,844,1338,-530,-509,-903,45,201,-97
0,2023-03-09T13:52:56.121569,2075486,-707,845,1335,-520,-503,-904,45,201,-97
0,2023-03-09T13:52:56.125808,2075490,-707,845,1335,-520,-503,-904,45,201,-97
0,2023-03-09T13:52:56.130296,2075494,-707,845,1335,-520,-503,-904,45,201,-97
0,2023-03-09T13:52:56.134685,2075498,-707,845,1335,-520,-503,-904,45,201,-97
0,2023-03-09T13:52:56.139005,2075503,-707,845,1335,-520,-503,-904,45,201,-97
0,2023-03-09T13:52:56.143448,2075507,-698,841,1339,-531,-502,-889,45,201,-97
0,2023-03-09T13:52:56.148334,2075512,-698,841,1339,-531,-502,-889,45,201,-97
0,2023-03-09T13:52:56.152713,2075516,-698,841,1339,-531,-502,-889,45,201,-97
0,2023-03-09T13:52:56.157267,2075521,-698,841,1339,-531,-502,-889,45,201,-97
0,2023-03-09T13:52:56.162006,2075526,-695,834,1342,-580,-429,-757,45,201,-97
0,2023-03-09T13:52:56.166786,2075531,-695,834,1342,-580,-429,-757,45,201,-97
0,2023-03-09T13:52:56.171266,2075535,-695,834,1342,-580,-429,-757,45,201,-97
0,2023-03-09T13:52:56.176157,2075540,-695,834,1342,-580,-429,-757,45,201,-97
0,2023-03-09T13:52:56.181078,2075545,-717,848,1317,-726,-336,-486,27,201,-97
0,2023-03-09T13:52:56.185957,2075550,-717,848,1317,-726,-336,-486,27,201,-97
0,2023-03-09T13:52:56.190311,2075554,-717,848,1317,-726,-336,-486,27,201,-97
0,2023-03-09T13:52:56.194792,2075558,-717,848,1317,-726,-336,-486,27,201,-97
0,2023-03-09T13:52:56.199981,2075564,-717,848,1317,-726,-336,-486,27,201,-97
0,2023-03-09T13:52:56.204563,2075568,-731,860,1312,-816,-308,-338,27,201,-97
0,2023-03-09T13:52:56.209739,2075574,-731,860,1312,-816,-308,-338,27,201,-97
0,2023-03-09T13:52:56.214100,2075578,-731,860,1312,-816,-308,-338,27,201,-97
0,2023-03-09T13:52:56.218981,2075583,-731,860,1312,-816,-308,-338,27,201,-97
0,2023-03-09T13:52:56.223576,2075587,-718,859,1325,-852,-345,-302,27,201,-97
0,2023-03-09T13:52:56.228457,2075592,-718,859,1325,-852,-345,-302,27,201,-97
0,2023-03-09T13:52:56.233937,2075597,-718,859,1325,-852,-345,-302,27,201,-97
0,2023-03-09T13:52:56.238266,2075602,-718,859,1325,-852,-345,-302,27,201,-97
0,2023-03-09T13:52:56.243237,2075608,-692,847,1346,-886,-364,-298,27,201,-97
0,2023-03-09T13:52:56.248466,2075612,-692,847,1346,-886,-364,-298,27,201,-97
0,2023-03-09T13:52:56.253073,2075617,-692,847,1346,-886,-364,-298,27,201,-97
0,2023-03-09T13:52:56.257489,2075621,-692,847,1346,-886,-364,-298,27,201,-97
0,2023-03-09T13:52:56.262437,2075626,-692,847,1346,-886,-364,-298,27,201,-97
0,2023-03-09T13:52:56.267035,2075631,-692,847,1346,-886,-364,-298,27,201,-97
0,2023-03-09T13:52:56.271357,2075635,-692,847,1346,-886,-364,-298,27,201,-97
0,2023-03-09T13:52:56.275724,2075639,-692,847,1346,-886,-364,-298,27,201,-97
0,2023-03-09T13:52:56.280868,2075644,-692,842,1346,-1017,-535,-330,27,201,-97
0,2023-03-09T13:52:56.285715,2075650,-692,842,1346,-1017,-535,-330,27,201,-97
0,2023-03-09T13:52:56.290273,2075654,-692,842,1346,-1017,-535,-330,27,201,-97
0,2023-03-09T13:52:56.294723,2075659,-692,842,1346,-1017,-535,-330,27,201,-97
0,2023-03-09T13:52:56.299723,2075664,-692,842,1346,-1017,-535,-330,27,201,-97
0,2023-03-09T13:52:56.304406,2075668,-714,848,1329,-1005,-508,-333,27,201,-97
0,2023-03-09T13:52:56.309534,2075673,-714,848,1329,-1005,-508,-333,27,201,-97
0,2023-03-09T13:52:56.313974,2075677,-714,848,1329,-1005,-508,-333,27,201,-97
0,2023-03-09T13:52:56.318928,2075682,-714,848,1329,-1005,-508,-333,27,201,-97
0,2023-03-09T13:52:56.323306,2075687,-728,858,1316,-1008,-528,-338,49,201,-95
0,2023-03-09T13:52:56.328238,2075692,-728,858,1316,-1008,-528,-338,49,201,-95
0,2023-03-09T13:52:56.333334,2075697,-728,858,1316,-1008,-528,-338,49,201,-95
0,2023-03-09T13:52:56.337901,2075702,-728,858,1316,-1008,-528,-338,49,201,-95
0,2023-03-09T13:52:56.342707,2075707,-723,860,1318,-1039,-575,-325,49,201,-95
0,2023-03-09T13:52:56.347484,2075711,-723,860,1318,-1039,-575,-325,49,201,-95
0,2023-03-09T13:52:56.352168,2075716,-723,860,1318,-1039,-575,-325,49,201,-95
0,2023-03-09T13:52:56.356705,2075720,-723,860,1318,-1039,-575,-325,49,201,-95
0,2023-03-09T13:52:56.361845,2075725,-712,856,1323,-1057,-614,-308,49,201,-95
0,2023-03-09T13:52:56.366846,2075730,-712,856,1323,-1057,-614,-308,49,201,-95
0,2023-03-09T13:52:56.371466,2075735,-712,856,1323,-1057,-614,-308,49,201,-95
0,2023-03-09T13:52:56.375856,2075740,-712,856,1323,-1057,-614,-308,49,201,-95
0,2023-03-09T13:52:56.381072,2075745,-694,848,1343,-1072,-615,-316,49,201,-95
0,2023-03-09T13:52:56.386080,2075750,-694,848,1343,-1072,-615,-316,49,201,-95
0,2023-03-09T13:52:56.390369,2075754,-694,848,1343,-1072,-615,-316,49,201,-95
0,2023-03-09T13:52:56.394761,2075758,-694,848,1343,-1072,-615,-316,49,201,-95
0,2023-03-09T13:52:56.399645,2075763,-694,848,1343,-1072,-615,-316,49,201,-95
0,2023-03-09T13:52:56.404086,2075767,-692,842,1340,-1053,-580,-330,49,201,-95
0,2023-03-09T13:52:56.409260,2075772,-692,842,1340,-1053,-580,-330,49,201,-95
0,2023-03-09T13:52:56.413685,2075778,-692,842,1340,-1053,-580,-330,49,201,-95
0,2023-03-09T13:52:56.418356,2075783,-692,842,1340,-1053,-580,-330,49,201,-95
0,2023-03-09T13:52:56.422990,2075787,-707,845,1335,-1026,-537,-337,49,201,-95
0,2023-03-09T13:52:56.427998,2075792,-707,845,1335,-1026,-537,-337,49,201,-95
0,2023-03-09T13:52:56.432836,2075797,-707,845,1335,-1026,-537,-337,49,201,-95
0,2023-03-09T13:52:56.437284,2075801,-707,845,1335,-1026,-537,-337,49,201,-95
0,2023-03-09T13:52:56.442468,2075806,-720,849,1323,-1009,-527,-328,40,200,-98
0,2023-03-09T13:52:56.447405,2075811,-720,849,1323,-1009,-527,-328,40,200,-98
0,2023-03-09T13:52:56.451995,2075815,-720,849,1323,-1009,-527,-328,40,200,-98
0,2023-03-09T13:52:56.456690,2075821,-720,849,1323,-1009,-527,-328,40,200,-98
0,2023-03-09T13:52:56.461500,2075826,-723,858,1320,-1019,-558,-316,40,200,-98
0,2023-03-09T13:52:56.466294,2075830,-723,858,1320,-1019,-558,-316,40,200,-98
0,2023-03-09T13:52:56.470904,2075835,-723,858,1320,-1019,-558,-316,40,200,-98
0,2023-03-09T13:52:56.475416,2075839,-723,858,1320,-1019,-558,-316,40,200,-98
0,2023-03-09T13:52:56.480222,2075844,-723,858,1320,-1019,-558,-316,40,200,-98
0,2023-03-09T13:52:56.485129,2075848,-719,860,1320,-1037,-594,-315,40,200,-98
0,2023-03-09T13:52:56.490227,2075854,-719,860,1320,-1037,-594,-315,40,200,-98
0,2023-03-09T13:52:56.494678,2075858,-719,860,1320,-1037,-594,-315,40,200,-98
0,2023-03-09T13:52:56.499582,2075864,-719,860,1320,-1037,-594,-315,40,200,-98
0,2023-03-09T13:52:56.504051,2075868,-703,855,1333,-1063,-609,-309,40,200,-98
0,2023-03-09T13:52:56.508828,2075873,-703,855,1333,-1063,-609,-309,40,200,-98
0,2023-03-09T13:52:56.513255,2075877,-703,855,1333,-1063,-609,-309,40,200,-98
0,2023-03-09T13:52:56.517648,2075881,-703,855,1333,-1063,-609,-309,40,200,-98
0,2023-03-09T13:52:56.522639,2075886,-698,848,1339,-1069,-597,-323,40,200,-98
0,2023-03-09T13:52:56.527869,2075891,-698,848,1339,-1069,-597,-323,40,200,-98
0,2023-03-09T13:52:56.532184,2075896,-698,848,1339,-1069,-597,-323,40,200,-98
0,2023-03-09T13:52:56.536737,2075900,-698,848,1339,-1069,-597,-323,40,200,-98
0,2023-03-09T13:52:56.541763,2075906,-701,844,1338,-1050,-565,-331,40,200,-98
0,2023-03-09T13:52:56.546598,2075911,-701,844,1338,-1050,-565,-331,40,200,-98
0,2023-03-09T13:52:56.551354,2075915,-701,844,1338,-1050,-565,-331,40,200,-98
0,2023-03-09T13:52:56.555718,2075920,-701,844,1338,-1050,-565,-331,40,200,-98
0,2023-03-09T13:52:56.560629,2075924,-701,844,1338,-1050,-565,-331,40,200,-98
0,2023-03-09T13:52:56.565275,2075929,-712,845,1327,-1028,-537,-333,40,200,-98
0,2023-03-09T13:52:56.569722,2075933,-712,845,1327,-1028,-537,-333,40,200,-98
0,2023-03-09T13:52:56.574395,2075938,-712,845,1327,-1028,-537,-333,40,200,-98
0,2023-03-09T13:52:56.579475,2075943,-712,845,1327,-1028,-537,-333,40,200,-98
0,2023-03-09T13:52:56.584068,2075948,-721,856,1324,-1014,-545,-323,33,205,-93
0,2023-03-09T13:52:56.589298,2075953,-721,856,1324,-1014,-545,-323,33,205,-93
0,2023-03-09T13:52:56.594079,2075958,-721,856,1324,-1014,-545,-323,33,205,-93
0,2023-03-09T13:52:56.598725,2075963,-721,856,1324,-1014,-545,-323,33,205,-93
0,2023-03-09T13:52:56.602990,2075967,-715,858,1317,-1028,-565,-316,33,205,-93
0,2023-03-09T13:52:56.607928,2075971,-715,858,1317,-1028,-565,-316,33,205,-93
0,2023-03-09T13:52:56.612263,2075976,-715,858,1317,-1028,-565,-316,33,205,-93
0,2023-03-09T13:52:56.616861,2075980,-715,858,1317,-1028,-565,-316,33,205,-93
0,2023-03-09T13:52:56.622020,2075985,-708,857,1328,-1041,-586,-315,33,205,-93
0,2023-03-09T13:52:56.627009,2075991,-708,857,1328,-1041,-586,-315,33,205,-93
0,2023-03-09T13:52:56.631435,2075996,-708,857,1328,-1041,-586,-315,33,205,-93
0,2023-03-09T13:52:56.636541,2076000,-708,857,1328,-1041,-586,-315,33,205,-93
0,2023-03-09T13:52:56.641658,2076005,-704,853,1330,-1055,-598,-324,33,205,-93
0,2023-03-09T13:52:56.646731,2076011,-704,853,1330,-1055,-598,-324,33,205,-93
0,2023-03-09T13:52:56.651545,2076015,-704,853,1330,-1055,-598,-324,33,205,-93
0,2023-03-09T13:52:56.655894,2076019,-704,853,1330,-1055,-598,-324,33,205,-93
0,2023-03-09T13:52:56.661049,2076024,-700,843,1335,-1062,-582,-328,33,205,-93
0,2023-03-09T13:52:56.666038,2076029,-700,843,1335,-1062,-582,-328,33,205,-93
0,2023-03-09T13:52:56.670822,2076035,-700,843,1335,-1062,-582,-328,33,205,-93
0,2023-03-09T13:52:56.675291,2076039,-700,843,1335,-1062,-582,-328,33,205,-93
0,2023-03-09T13:52:56.680512,2076044,-700,843,1335,-1062,-582,-328,33,205,-93
0,2023-03-09T13:52:56.684998,2076049,-707,839,1332,-1045,-563,-336,33,205,-93
0,2023-03-09T13:52:56.689954,2076054,-707,839,1332,-1045,-563,-336,33,205,-93
0,2023-03-09T13:52:56.694355,2076058,-707,839,1332,-1045,-563,-336,33,205,-93
0,2023-03-09T13:52:56.698687,2076062,-707,839,1332,-1045,-563,-336,33,205,-93
0,2023-03-09T13:52:56.703149,2076067,-718,847,1332,-1031,-557,-335,42,206,-100
0,2023-03-09T13:52:56.708118,2076071,-718,847,1332,-1031,-557,-335,42,206,-100
0,2023-03-09T13:52:56.712578,2076077,-718,847,1332,-1031,-557,-335,42,206,-100
0,2023-03-09T13:52:56.717303,2076081,-718,847,1332,-1031,-557,-335,42,206,-100
0,2023-03-09T13:52:56.722232,2076086,-717,852,1322,-1024,-567,-321,42,206,-100
0,2023-03-09T13:52:56.727059,2076091,-717,852,1322,-1024,-567,-321,42,206,-100
0,2023-03-09T13:52:56.731623,2076095,-717,852,1322,-1024,-567,-321,42,206,-100
0,2023-03-09T13:52:56.736248,2076100,-717,852,1322,-1024,-567,-321,42,206,-100
0,2023-03-09T13:52:56.740901,2076105,-717,852,1322,-1024,-567,-321,42,206,-100
0,2023-03-09T13:52:56.745272,2076109,-713,858,1324,-1037,-585,-319,42,206,-100
0,2023-03-09T13:52:56.750375,2076114,-713,858,1324,-1037,-585,-319,42,206,-100
0,2023-03-09T13:52:56.754955,2076119,-713,858,1324,-1037,-585,-319,42,206,-100
0,2023-03-09T13:52:56.760285,2076124,-713,858,1324,-1037,-585,-319,42,206,-100
0,2023-03-09T13:52:56.764620,2076129,-706,859,1327,-1050,-595,-317,42,206,-100
0,2023-03-09T13:52:56.769678,2076134,-706,859,1327,-1050,-595,-317,42,206,-100
0,2023-03-09T13:52:56.774084,2076138,-706,859,1327,-1050,-595,-317,42,206,-100
0,2023-03-09T13:52:56.779185,2076143,-706,859,1327,-1050,-595,-317,42,206,-100
0,2023-03-09T13:52:56.783806,2076147,-702,849,1330,-1060,-585,-325,42,206,-100
0,2023-03-09T13:52:56.788834,2076152,-702,849,1330,-1060,-585,-325,42,206,-100
0,2023-03-09T13:52:56.793257,2076157,-702,849,1330,-1060,-585,-325,42,206,-100
0,2023-03-09T13:52:56.797902,2076162,-702,849,1330,-1060,-585,-325,42,206,-100
0,2023-03-09T13:52:56.802626,2076167,-702,846,1330,-1058,-572,-335,42,206,-100
0,2023-03-09T13:52:56.807540,2076171,-702,846,1330,-1058,-572,-335,42,206,-100
0,2023-03-09T13:52:56.811894,2076176,-702,846,1330,-1058,-572,-335,42,206,-100
0,2023-03-09T13:52:56.816359,2076180,-702,846,1330,-1058,-572,-335,42,206,-100
0,2023-03-09T13:52:56.821248,2076185,-716,844,1331,-1044,-560,-331,42,206,-100
0,2023-03-09T13:52:56.826346,2076190,-716,844,1331,-1044,-560,-331,42,206,-100
0,2023-03-09T13:52:56.830879,2076194,-716,844,1331,-1044,-560,-331,42,206,-100
0,2023-03-09T13:52:56.835509,2076199,-716,844,1331,-1044,-560,-331,42,206,-100
0,2023-03-09T13:52:56.840631,2076205,-716,844,1331,-1044,-560,-331,42,206,-100
0,2023-03-09T13:52:56.845059,2076209,-718,849,1334,-1031,-561,-331,46,198,-96
0,2023-03-09T13:52:56.849498,2076213,-718,849,1334,-1031,-561,-331,46,198,-96
0,2023-03-09T13:52:56.854114,2076218,-718,849,1334,-1031,-561,-331,46,198,-96
0,2023-03-09T13:52:56.858432,2076222,-718,849,1334,-1031,-561,-331,46,198,-96
0,2023-03-09T13:52:56.863407,2076227,-713,855,1325,-1031,-575,-312,46,198,-96
0,2023-03-09T13:52:56.868285,2076232,-713,855,1325,-1031,-575,-312,46,198,-96
0,2023-03-09T13:52:56.872641,2076236,-713,855,1325,-1031,-575,-312,46,198,-96
0,2023-03-09T13:52:56.877127,2076241,-713,855,1325,-1031,-575,-312,46,198,-96
0,2023-03-09T13:52:56.881908,2076246,-713,857,1330,-1036,-582,-311,46,198,-96
0,2023-03-09T13:52:56.886325,2076250,-713,857,1330,-1036,-582,-311,46,198,-96
0,2023-03-09T13:52:56.891273,2076255,-713,857,1330,-1036,-582,-311,46,198,-96
0,2023-03-09T13:52:56.895730,2076260,-713,857,1330,-1036,-582,-311,46,198,-96
0,2023-03-09T13:52:56.900265,2076264,-713,857,1330,-1036,-582,-311,46,198,-96
0,2023-03-09T13:52:56.904877,2076269,-704,856,1332,-1044,-588,-320,46,198,-96
0,2023-03-09T13:52:56.910037,2076274,-704,856,1332,-1044,-588,-320,46,198,-96
0,2023-03-09T13:52:56.914952,2076278,-704,856,1332,-1044,-588,-320,46,198,-96
0,2023-03-09T13:52:56.920092,2076283,-704,856,1332,-1044,-588,-320,46,198,-96
0,2023-03-09T13:52:56.924654,2076289,-701,851,1334,-1054,-572,-336,46,198,-96
0,2023-03-09T13:52:56.929738,2076294,-701,851,1334,-1054,-572,-336,46,198,-96
0,2023-03-09T13:52:56.934081,2076298,-701,851,1334,-1054,-572,-336,46,198,-96
0,2023-03-09T13:52:56.938814,2076303,-701,851,1334,-1054,-572,-336,46,198,-96
0,2023-03-09T13:52:56.943385,2076307,-708,845,1329,-1055,-559,-338,46,198,-96
0,2023-03-09T13:52:56.948233,2076312,-708,845,1329,-1055,-559,-338,46,198,-96
0,2023-03-09T13:52:56.952736,2076316,-708,845,1329,-1055,-559,-338,46,198,-96
0,2023-03-09T13:52:56.957335,2076321,-708,845,1329,-1055,-559,-338,46,198,-96
0,2023-03-09T13:52:56.962354,2076326,-715,847,1333,-1040,-560,-330,36,196,-104
0,2023-03-09T13:52:56.967550,2076332,-715,847,1333,-1040,-560,-330,36,196,-104
0,2023-03-09T13:52:56.971914,2076336,-715,847,1333,-1040,-560,-330,36,196,-104
0,2023-03-09T13:52:56.976476,2076340,-715,847,1333,-1040,-560,-330,36,196,-104
0,2023-03-09T13:52:56.980773,2076345,-715,847,1333,-1040,-560,-330,36,196,-104
0,2023-03-09T13:52:56.985439,2076349,-715,849,1334,-1026,-576,-322,36,196,-104
0,2023-03-09T13:52:56.990588,2076354,-715,849,1334,-1026,-576,-322,36,196,-104
0,2023-03-09T13:52:56.994932,2076359,-715,849,1334,-1026,-576,-322,36,196,-104
0,2023-03-09T13:52:56.999844,2076363,-715,849,1334,-1026,-576,-322,36,196,-104
0,2023-03-09T13:52:57.004170,2076368,-712,857,1330,-1036,-581,-322,36,196,-104
0,2023-03-09T13:52:57.008714,2076372,-712,857,1330,-1036,-581,-322,36,196,-104
0,2023-03-09T13:52:57.013289,2076378,-712,857,1330,-1036,-581,-322,36,196,-104
0,2023-03-09T13:52:57.017701,2076382,-712,857,1330,-1036,-581,-322,36,196,-104
0,2023-03-09T13:52:57.022568,2076386,-706,857,1329,-1047,-584,-328,36,196,-104
0,2023-03-09T13:52:57.027413,2076391,-706,857,1329,-1047,-584,-328,36,196,-104
0,2023-03-09T13:52:57.031968,2076396,-706,857,1329,-1047,-584,-328,36,196,-104
0,2023-03-09T13:52:57.036934,2076401,-706,857,1329,-1047,-584,-328,36,196,-104
0,2023-03-09T13:52:57.041706,2076405,-700,853,1333,-1051,-581,-329,36,196,-104
0,2023-03-09T13:52:57.046631,2076410,-700,853,1333,-1051,-581,-329,36,196,-104
0,2023-03-09T13:52:57.051203,2076414,-700,853,1333,-1051,-581,-329,36,196,-104
0,2023-03-09T13:52:57.055604,2076420,-700,853,1333,-1051,-581,-329,36,196,-104
0,2023-03-09T13:52:57.060570,2076425,-700,853,1333,-1051,-581,-329,36,196,-104
0,2023-03-09T13:52:57.064928,2076429,-707,849,1333,-1057,-574,-335,36,196,-104
0,2023-03-09T13:52:57.070007,2076434,-707,849,1333,-1057,-574,-335,36,196,-104
0,2023-03-09T13:52:57.074684,2076438,-707,849,1333,-1057,-574,-335,36,196,-104
0,2023-03-09T13:52:57.079413,2076443,-707,849,1333,-1057,-574,-335,36,196,-104
0,2023-03-09T13:52:57.083945,2076447,-712,845,1329,-1056,-569,-327,43,199,-93
0,2023-03-09T13:52:57.089056,2076452,-712,845,1329,-1056,-569,-327,43,199,-93
0,2023-03-09T13:52:57.093732,2076457,-712,845,1329,-1056,-569,-327,43,199,-93
0,2023-03-09T13:52:57.098074,2076462,-712,845,1329,-1056,-569,-327,43,199,-93
0,2023-03-09T13:52:57.103027,2076467,-710,849,1332,-1034,-562,-324,43,199,-93
0,2023-03-09T13:52:57.108344,2076472,-710,849,1332,-1034,-562,-324,43,199,-93
0,2023-03-09T13:52:57.112718,2076477,-710,849,1332,-1034,-562,-324,43,199,-93
0,2023-03-09T13:52:57.117881,2076482,-710,849,1332,-1034,-562,-324,43,199,-93
0,2023-03-09T13:52:57.122811,2076487,-712,851,1330,-1026,-576,-324,43,199,-93
0,2023-03-09T13:52:57.127929,2076491,-712,851,1330,-1026,-576,-324,43,199,-93
0,2023-03-09T13:52:57.132406,2076496,-712,851,1330,-1026,-576,-324,43,199,-93
0,2023-03-09T13:52:57.136802,2076500,-712,851,1330,-1026,-576,-324,43,199,-93
0,2023-03-09T13:52:57.141371,2076506,-712,851,1330,-1026,-576,-324,43,199,-93
0,2023-03-09T13:52:57.145706,2076510,-710,858,1323,-1032,-572,-319,43,199,-93
0,2023-03-09T13:52:57.151247,2076515,-710,858,1323,-1032,-572,-319,43,199,-93
0,2023-03-09T13:52:57.155949,2076520,-710,858,1323,-1032,-572,-319,43,199,-93
0,2023-03-09T13:52:57.161032,2076525,-710,858,1323,-1032,-572,-319,43,199,-93
0,2023-03-09T13:52:57.165620,2076529,-707,855,1329,-1044,-576,-325,43,199,-93
0,2023-03-09T13:52:57.170683,2076534,-707,855,1329,-1044,-576,-325,43,199,-93
0,2023-03-09T13:52:57.175276,2076539,-707,855,1329,-1044,-576,-325,43,199,-93
0,2023-03-09T13:52:57.180147,2076545,-707,855,1329,-1044,-576,-325,43,199,-93
0,2023-03-09T13:52:57.184720,2076549,-706,854,1331,-1047,-574,-329,43,199,-93
0,2023-03-09T13:52:57.189724,2076554,-706,854,1331,-1047,-574,-329,43,199,-93
0,2023-03-09T13:52:57.194175,2076558,-706,854,1331,-1047,-574,-329,43,199,-93
0,2023-03-09T13:52:57.199047,2076563,-706,854,1331,-1047,-574,-329,43,199,-93
0,2023-03-09T13:52:57.203430,2076567,-708,852,1328,-1052,-573,-326,43,199,-93
0,2023-03-09T13:52:57.208336,2076572,-708,852,1328,-1052,-573,-326,43,199,-93
0,2023-03-09T13:52:57.212720,2076576,-708,852,1328,-1052,-573,-326,43,199,-93
0,2023-03-09T13:52:57.217336,2076581,-708,852,1328,-1052,-573,-326,43,199,-93
0,2023-03-09T13:52:57.222328,2076585,-712,850,1335,-1039,-578,-323,36,206,-88
0,2023-03-09T13:52:57.227000,2076591,-712,850,1335,-1039,-578,-323,36,206,-88
0,2023-03-09T13:52:57.231471,2076595,-712,850,1335,-1039,-578,-323,36,206,-88
0,2023-03-09T13:52:57.236233,2076600,-712,850,1335,-1039,-578,-323,36,206,-88
0,2023-03-09T13:52:57.241462,2076605,-712,850,1335,-1039,-578,-323,36,206,-88
0,2023-03-09T13:52:57.246027,2076610,-715,848,1327,-1036,-577,-320,36,206,-88
0,2023-03-09T13:52:57.251345,2076615,-715,848,1327,-1036,-577,-320,36,206,-88
0,2023-03-09T13:52:57.256726,2076620,-715,848,1327,-1036,-577,-320,36,206,-88
0,2023-03-09T13:52:57.261213,2076625,-715,848,1327,-1036,-577,-320,36,206,-88
0,2023-03-09T13:52:57.265839,2076630,-715,848,1327,-1036,-577,-320,36,206,-88
0,2023-03-09T13:52:57.270274,2076635,-715,848,1327,-1036,-577,-320,36,206,-88
0,2023-03-09T13:52:57.275515,2076639,-715,848,1327,-1036,-577,-320,36,206,-88
0,2023-03-09T13:52:57.280278,2076644,-715,848,1327,-1036,-577,-320,36,206,-88
0,2023-03-09T13:52:57.284852,2076649,-704,854,1332,-1043,-577,-322,36,206,-88
0,2023-03-09T13:52:57.289832,2076654,-704,854,1332,-1043,-577,-322,36,206,-88
0,2023-03-09T13:52:57.294115,2076658,-704,854,1332,-1043,-577,-322,36,206,-88
0,2023-03-09T13:52:57.298561,2076662,-704,854,1332,-1043,-577,-322,36,206,-88
0,2023-03-09T13:52:57.302926,2076667,-704,854,1329,-1042,-583,-322,36,206,-88
0,2023-03-09T13:52:57.307874,2076672,-704,854,1329,-1042,-583,-322,36,206,-88
0,2023-03-09T13:52:57.312329,2076676,-704,854,1329,-1042,-583,-322,36,206,-88
0,2023-03-09T13:52:57.316673,2076681,-704,854,1329,-1042,-583,-322,36,206,-88
0,2023-03-09T13:52:57.321588,2076686,-704,854,1329,-1042,-583,-322,36,206,-88
0,2023-03-09T13:52:57.325981,2076690,-707,850,1325,-1050,-574,-332,36,206,-88
0,2023-03-09T13:52:57.330781,2076695,-707,850,1325,-1050,-574,-332,36,206,-88
0,2023-03-09T13:52:57.335909,2076700,-707,850,1325,-1050,-574,-332,36,206,-88
0,2023-03-09T13:52:57.340322,2076704,-707,850,1325,-1050,-574,-332,36,206,-88
0,2023-03-09T13:52:57.344756,2076708,-706,852,1332,-1043,-573,-335,31,199,-97
0,2023-03-09T13:52:57.349720,2076713,-706,852,1332,-1043,-573,-335,31,199,-97
0,2023-03-09T13:52:57.354397,2076718,-706,852,1332,-1043,-573,-335,31,199,-97
0,2023-03-09T13:52:57.359309,2076723,-706,852,1332,-1043,-573,-335,31,199,-97
0,2023-03-09T13:52:57.363683,2076728,-711,848,1329,-1035,-568,-332,31,199,-97
0,2023-03-09T13:52:57.368719,2076733,-711,848,1329,-1035,-568,-332,31,199,-97
0,2023-03-09T13:52:57.373272,2076737,-711,848,1329,-1035,-568,-332,31,199,-97
0,2023-03-09T13:52:57.377715,2076742,-711,848,1329,-1035,-568,-332,31,199,-97
0,2023-03-09T13:52:57.382569,2076746,-710,851,1325,-1031,-575,-328,31,199,-97
0,2023-03-09T13:52:57.387650,2076751,-710,851,1325,-1031,-575,-328,31,199,-97
0,2023-03-09T13:52:57.392577,2076756,-710,851,1325,-1031,-575,-328,31,199,-97
0,2023-03-09T13:52:57.397015,2076761,-710,851,1325,-1031,-575,-328,31,199,-97
0,2023-03-09T13:52:57.401965,2076766,-709,853,1330,-1047,-579,-324,31,199,-97
0,2023-03-09T13:52:57.406889,2076771,-709,853,1330,-1047,-579,-324,31,199,-97
0,2023-03-09T13:52:57.411567,2076775,-709,853,1330,-1047,-579,-324,31,199,-97
0,2023-03-09T13:52:57.416498,2076780,-709,853,1330,-1047,-579,-324,31,199,-97
0,2023-03-09T13:52:57.421443,2076785,-709,853,1330,-1047,-579,-324,31,199,-97
0,2023-03-09T13:52:57.425829,2076790,-707,854,1330,-1040,-584,-325,31,199,-97
0,2023-03-09T13:52:57.430847,2076794,-707,854,1330,-1040,-584,-325,31,199,-97
0,2023-03-09T13:52:57.435452,2076800,-707,854,1330,-1040,-584,-325,31,199,-97
0,2023-03-09T13:52:57.440500,2076805,-707,854,1330,-1040,-584,-325,31,199,-97
0,2023-03-09T13:52:57.444827,2076809,-710,855,1330,-1041,-577,-328,31,199,-97
0,2023-03-09T13:52:57.449959,2076814,-710,855,1330,-1041,-577,-328,31,199,-97
0,2023-03-09T13:52:57.454451,2076818,-710,855,1330,-1041,-577,-328,31,199,-97
0,2023-03-09T13:52:57.459269,2076823,-710,855,1330,-1041,-577,-328,31,199,-97
0,2023-03-09T13:52:57.463938,2076827,-709,852,1331,-1045,-577,-334,31,199,-97
0,2023-03-09T13:52:57.468757,2076832,-709,852,1331,-1045,-577,-334,31,199,-97
0,2023-03-09T13:52:57.473329,2076837,-709,852,1331,-1045,-577,-334,31,199,-97
0,2023-03-09T13:52:57.477675,2076841,-709,852,1331,-1045,-577,-334,31,199,-97
0,2023-03-09T13:52:57.482647,2076847,-711,849,1334,-1047,-574,-330,34,196,-100
0,2023-03-09T13:52:57.487753,2076852,-711,849,1334,-1047,-574,-330,34,196,-100
0,2023-03-09T13:52:57.492274,2076856,-711,849,1334,-1047,-574,-330,34,196,-100
0,2023-03-09T13:52:57.496522,2076860,-711,849,1334,-1047,-574,-330,34,196,-100
0,2023-03-09T13:52:57.501342,2076865,-711,849,1334,-1047,-574,-330,34,196,-100
0,2023-03-09T13:52:57.505760,2076869,-710,852,1336,-1039,-572,-326,34,196,-100
0,2023-03-09T13:52:57.511016,2076874,-710,852,1336,-1039,-572,-326,34,196,-100
0,2023-03-09T13:52:57.515993,2076880,-710,852,1336,-1039,-572,-326,34,196,-100
0,2023-03-09T13:52:57.520409,2076884,-710,852,1336,-1039,-572,-326,34,196,-100
0,2023-03-09T13:52:57.524852,2076889,-710,853,1331,-1034,-579,-319,34,196,-100
0,2023-03-09T13:52:57.529647,2076894,-710,853,1331,-1034,-579,-319,34,196,-100
0,2023-03-09T13:52:57.534173,2076898,-710,853,1331,-1034,-579,-319,34,196,-100
0,2023-03-09T13:52:57.538533,2076902,-710,853,1331,-1034,-579,-319,34,196,-100
0,2023-03-09T13:52:57.543437,2076907,-704,856,1330,-1033,-581,-323,34,196,-100
0,2023-03-09T13:52:57.548228,2076912,-704,856,1330,-1033,-581,-323,34,196,-100
0,2023-03-09T13:52:57.552612,2076916,-704,856,1330,-1033,-581,-323,34,196,-100
0,2023-03-09T13:52:57.557368,2076921,-704,856,1330,-1033,-581,-323,34,196,-100
0,2023-03-09T13:52:57.562536,2076926,-708,852,1331,-1036,-563,-324,34,196,-100
0,2023-03-09T13:52:57.567447,2076932,-708,852,1331,-1036,-563,-324,34,196,-100
0,2023-03-09T13:52:57.571843,2076936,-708,852,1331,-1036,-563,-324,34,196,-100
0,2023-03-09T13:52:57.576714,2076941,-708,852,1331,-1036,-563,-324,34,196,-100
0,2023-03-09T13:52:57.581676,2076946,-708,852,1331,-1036,-563,-324,34,196,-100
0,2023-03-09T13:52:57.586312,2076950,-708,851,1330,-1049,-565,-327,34,196,-100
0,2023-03-09T13:52:57.591657,2076955,-708,851,1330,-1049,-565,-327,34,196,-100
0,2023-03-09T13:52:57.596378,2076960,-708,851,1330,-1049,-565,-327,34,196,-100
0,2023-03-09T13:52:57.601703,2076965,-708,851,1330,-1049,-565,-327,34,196,-100
0,2023-03-09T13:52:57.606360,2076969,-708,852,1336,-1043,-569,-335,36,198,-92
0,2023-03-09T13:52:57.611441,2076976,-708,852,1336,-1043,-569,-335,36,198,-92
0,2023-03-09T13:52:57.615843,2076980,-708,852,1336,-1043,-569,-335,36,198,-92
0,2023-03-09T13:52:57.621402,2076985,-708,852,1336,-1043,-569,-335,36,198,-92
0,2023-03-09T13:52:57.625959,2076990,-711,850,1333,-1043,-578,-325,36,198,-92
0,2023-03-09T13:52:57.631020,2076995,-711,850,1333,-1043,-578,-325,36,198,-92
0,2023-03-09T13:52:57.635557,2076999,-711,850,1333,-1043,-578,-325,36,198,-92
0,2023-03-09T13:52:57.640674,2077004,-711,850,1333,-1043,-578,-325,36,198,-92
0,2023-03-09T13:52:57.645342,2077009,-712,850,1331,-1033,-572,-317,36,198,-92
0,2023-03-09T13:52:57.650180,2077014,-712,850,1331,-1033,-572,-317,36,198,-92
0,2023-03-09T13:52:57.654539,2077019,-712,850,1331,-1033,-572,-317,36,198,-92
0,2023-03-09T13:52:57.659573,2077024,-712,850,1331,-1033,-572,-317,36,198,-92
0,2023-03-09T13:52:57.663895,2077028,-709,853,1326,-1033,-570,-322,36,198,-92
0,2023-03-09T13:52:57.668374,2077032,-709,853,1326,-1033,-570,-322,36,198,-92
0,2023-03-09T13:52:57.672812,2077037,-709,853,1326,-1033,-570,-322,36,198,-92
0,2023-03-09T13:52:57.677261,2077041,-709,853,1326,-1033,-570,-322,36,198,-92
0,2023-03-09T13:52:57.681653,2077045,-709,853,1326,-1033,-570,-322,36,198,-92
0,2023-03-09T13:52:57.686302,2077050,-706,857,1328,-1043,-572,-321,36,198,-92
0,2023-03-09T13:52:57.691366,2077056,-706,857,1328,-1043,-572,-321,36,198,-92
0,2023-03-09T13:52:57.695801,2077060,-706,857,1328,-1043,-572,-321,36,198,-92
0,2023-03-09T13:52:57.700850,2077065,-706,857,1328,-1043,-572,-321,36,198,-92
0,2023-03-09T13:52:57.705353,2077069,-706,852,1332,-1043,-576,-331,36,198,-92
0,2023-03-09T13:52:57.710086,2077074,-706,852,1332,-1043,-576,-331,36,198,-92
0,2023-03-09T13:52:57.714516,2077078,-706,852,1332,-1043,-576,-331,36,198,-92
0,2023-03-09T13:52:57.720007,2077084,-706,852,1332,-1043,-576,-331,36,198,-92
0,2023-03-09T13:52:57.724831,2077088,-711,851,1325,-1046,-566,-325,36,198,-92
0,2023-03-09T13:52:57.729755,2077093,-711,851,1325,-1046,-566,-325,36,198,-92
0,2023-03-09T13:52:57.734333,2077097,-711,851,1325,-1046,-566,-325,36,198,-92
0,2023-03-09T13:52:57.738631,2077103,-711,851,1325,-1046,-566,-325,36,198,-92
0,2023-03-09T13:52:57.743417,2077108,-711,849,1335,-1043,-576,-328,38,206,-98
0,2023-03-09T13:52:57.748649,2077112,-711,849,1335,-1043,-576,-328,38,206,-98
0,2023-03-09T13:52:57.753225,2077117,-711,849,1335,-1043,-576,-328,38,206,-98
0,2023-03-09T13:52:57.757634,2077121,-711,849,1335,-1043,-576,-328,38,206,-98
0,2023-03-09T13:52:57.762517,2077126,-711,852,1325,-1039,-571,-321,38,206,-98
0,2023-03-09T13:52:57.766939,2077130,-711,852,1325,-1039,-571,-321,38,206,-98
0,2023-03-09T13:52:57.771828,2077135,-711,852,1325,-1039,-571,-321,38,206,-98
0,2023-03-09T13:52:57.777077,2077140,-711,852,1325,-1039,-571,-321,38,206,-98
0,2023-03-09T13:52:57.781847,2077146,-711,852,1325,-1039,-571,-321,38,206,-98
0,2023-03-09T13:52:57.786404,2077150,-710,856,1331,-1040,-574,-319,38,206,-98
0,2023-03-09T13:52:57.791347,2077155,-710,856,1331,-1040,-574,-319,38,206,-98
0,2023-03-09T13:52:57.795663,2077160,-710,856,1331,-1040,-574,-319,38,206,-98
0,2023-03-09T13:52:57.800513,2077164,-710,856,1331,-1040,-574,-319,38,206,-98
0,2023-03-09T13:52:57.805080,2077169,-708,855,1329,-1045,-582,-313,38,206,-98
0,2023-03-09T13:52:57.809933,2077174,-708,855,1329,-1045,-582,-313,38,206,-98
0,2023-03-09T13:52:57.814396,2077178,-708,855,1329,-1045,-582,-313,38,206,-98
0,2023-03-09T13:52:57.819328,2077184,-708,855,1329,-1045,-582,-313,38,206,-98
0,2023-03-09T13:52:57.823934,2077188,-707,855,1327,-1037,-571,-326,38,206,-98
0,2023-03-09T13:52:57.828752,2077193,-707,855,1327,-1037,-571,-326,38,206,-98
0,2023-03-09T13:52:57.833311,2077197,-707,855,1327,-1037,-571,-326,38,206,-98
0,2023-03-09T13:52:57.837707,2077202,-707,855,1327,-1037,-571,-326,38,206,-98
0,2023-03-09T13:52:57.842709,2077207,-708,854,1325,-1041,-570,-327,38,206,-98
0,2023-03-09T13:52:57.847473,2077211,-708,854,1325,-1041,-570,-327,38,206,-98
0,2023-03-09T13:52:57.851798,2077215,-708,854,1325,-1041,-570,-327,38,206,-98
0,2023-03-09T13:52:57.856341,2077220,-708,854,1325,-1041,-570,-327,38,206,-98
0,2023-03-09T13:52:57.861555,2077225,-708,854,1325,-1041,-570,-327,38,206,-98
0,2023-03-09T13:52:57.866177,2077230,-710,851,1331,-1043,-579,-328,45,199,-89
0,2023-03-09T13:52:57.871212,2077235,-710,851,1331,-1043,-579,-328,45,199,-89
0,2023-03-09T13:52:57.875671,2077240,-710,851,1331,-1043,-579,-328,45,199,-89
0,2023-03-09T13:52:57.880092,2077244,-710,851,1331,-1043,-579,-328,45,199,-89
0,2023-03-09T13:52:57.884507,2077249,-710,855,1332,-1042,-572,-325,45,199,-89
0,2023-03-09T13:52:57.889825,2077253,-710,855,1332,-1042,-572,-325,45,199,-89
0,2023-03-09T13:52:57.894409,2077258,-710,855,1332,-1042,-572,-325,45,199,-89
0,2023-03-09T13:52:57.899418,2077263,-710,855,1332,-1042,-572,-325,45,199,-89
0,2023-03-09T13:52:57.903955,2077267,-708,852,1332,-1040,-576,-324,45,199,-89
0,2023-03-09T13:52:57.909342,2077273,-708,852,1332,-1040,-576,-324,45,199,-89
0,2023-03-09T13:52:57.913641,2077278,-708,852,1332,-1040,-576,-324,45,199,-89
0,2023-03-09T13:52:57.918077,2077282,-708,852,1332,-1040,-576,-324,45,199,-89
0,2023-03-09T13:52:57.923145,2077287,-706,854,1333,-1040,-577,-322,45,199,-89
0,2023-03-09T13:52:57.928292,2077292,-706,854,1333,-1040,-577,-322,45,199,-89
0,2023-03-09T13:52:57.932674,2077297,-706,854,1333,-1040,-577,-322,45,199,-89
0,2023-03-09T13:52:57.937273,2077301,-706,854,1333,-1040,-577,-322,45,199,-89
0,2023-03-09T13:52:57.942435,2077306,-706,854,1333,-1040,-577,-322,45,199,-89
0,2023-03-09T13:52:57.946917,2077310,-709,851,1330,-1042,-573,-322,45,199,-89
0,2023-03-09T13:52:57.952090,2077316,-709,851,1330,-1042,-573,-322,45,199,-89
0,2023-03-09T13:52:57.957262,2077321,-709,851,1330,-1042,-573,-322,45,199,-89
0,2023-03-09T13:52:57.961733,2077326,-709,851,1330,-1042,-573,-322,45,199,-89
0,2023-03-09T13:52:57.966285,2077330,-709,853,1327,-1046,-577,-327,45,199,-89
0,2023-03-09T13:52:57.971357,2077335,-709,853,1327,-1046,-577,-327,45,199,-89
0,2023-03-09T13:52:57.976556,2077340,-709,853,1327,-1046,-577,-327,45,199,-89
0,2023-03-09T13:52:57.981597,2077345,-709,853,1327,-1046,-577,-327,45,199,-89
0,2023-03-09T13:52:57.985965,2077349,-710,855,1331,-1043,-575,-324,45,203,-97
0,2023-03-09T13:52:57.990616,2077355,-710,855,1331,-1043,-575,-324,45,203,-97
0,2023-03-09T13:52:57.995664,2077360,-710,855,1331,-1043,-575,-324,45,203,-97
0,2023-03-09T13:52:58.000597,2077365,-710,855,1331,-1043,-575,-324,45,203,-97
0,2023-03-09T13:52:58.005028,2077369,-707,851,1332,-1033,-572,-327,45,203,-97
0,2023-03-09T13:52:58.010301,2077374,-707,851,1332,-1033,-572,-327,45,203,-97
0,2023-03-09T13:52:58.014703,2077378,-707,851,1332,-1033,-572,-327,45,203,-97
0,2023-03-09T13:52:58.019921,2077384,-707,851,1332,-1033,-572,-327,45,203,-97
0,2023-03-09T13:52:58.024545,2077388,-710,851,1328,-1039,-568,-327,45,203,-97
0,2023-03-09T13:52:58.029303,2077393,-710,851,1328,-1039,-568,-327,45,203,-97
0,2023-03-09T13:52:58.033849,2077398,-710,851,1328,-1039,-568,-327,45,203,-97
0,2023-03-09T13:52:58.038586,2077403,-710,851,1328,-1039,-568,-327,45,203,-97
0,2023-03-09T13:52:58.042948,2077407,-708,854,1326,-1042,-568,-323,45,203,-97
0,2023-03-09T13:52:58.047779,2077412,-708,854,1326,-1042,-568,-323,45,203,-97
0,2023-03-09T13:52:58.052343,2077416,-708,854,1326,-1042,-568,-323,45,203,-97
0,2023-03-09T13:52:58.056733,2077421,-708,854,1326,-1042,-568,-323,45,203,-97
0,2023-03-09T13:52:58.061621,2077425,-708,854,1326,-1042,-568,-323,45,203,-97
0,2023-03-09T13:52:58.065982,2077430,-709,852,1325,-1044,-568,-324,45,203,-97
0,2023-03-09T13:52:58.070943,2077434,-709,852,1325,-1044,-568,-324,45,203,-97
0,2023-03-09T13:52:58.075526,2077440,-709,852,1325,-1044,-568,-324,45,203,-97
0,2023-03-09T13:52:58.080569,2077445,-709,852,1325,-1044,-568,-324,45,203,-97
0,2023-03-09T13:52:58.084869,2077449,-711,855,1332,-1037,-569,-319,45,203,-97
0,2023-03-09T13:52:58.089554,2077454,-711,855,1332,-1037,-569,-319,45,203,-97
0,2023-03-09T13:52:58.093977,2077458,-711,855,1332,-1037,-569,-319,45,203,-97
0,2023-03-09T13:52:58.098382,2077462,-711,855,1332,-1037,-569,-319,45,203,-97
0,2023-03-09T13:52:58.103680,2077467,-708,851,1328,-1044,-572,-323,45,203,-97
0,2023-03-09T13:52:58.108456,2077472,-708,851,1328,-1044,-572,-323,45,203,-97
0,2023-03-09T13:52:58.112923,2077476,-708,851,1328,-1044,-572,-323,45,203,-97
0,2023-03-09T13:52:58.117544,2077481,-708,851,1328,-1044,-572,-323,45,203,-97
0,2023-03-09T13:52:58.122423,2077487,-708,851,1328,-1044,-572,-323,45,203,-97
0,2023-03-09T13:52:58.127068,2077491,-708,851,1334,-1037,-566,-328,34,208,-102
0,2023-03-09T13:52:58.132177,2077496,-708,851,1334,-1037,-566,-328,34,208,-102
0,2023-03-09T13:52:58.136759,2077501,-708,851,1334,-1037,-566,-328,34,208,-102
0,2023-03-09T13:52:58.141633,2077505,-708,851,1334,-1037,-566,-328,34,208,-102
0,2023-03-09T13:52:58.146082,2077510,-710,850,1330,-1031,-573,-326,34,208,-102
0,2023-03-09T13:52:58.151262,2077515,-710,850,1330,-1031,-573,-326,34,208,-102
0,2023-03-09T13:52:58.155843,2077519,-710,850,1330,-1031,-573,-326,34,208,-102
0,2023-03-09T13:52:58.160893,2077524,-710,850,1330,-1031,-573,-326,34,208,-102
0,2023-03-09T13:52:58.165535,2077530,-706,851,1328,-1043,-573,-327,34,208,-102
0,2023-03-09T13:52:58.170602,2077535,-706,851,1328,-1043,-573,-327,34,208,-102
0,2023-03-09T13:52:58.175531,2077540,-706,851,1328,-1043,-573,-327,34,208,-102
0,2023-03-09T13:52:58.180723,2077545,-706,851,1328,-1043,-573,-327,34,208,-102
0,2023-03-09T13:52:58.185251,2077549,-708,853,1328,-1043,-579,-325,34,208,-102
0,2023-03-09T13:52:58.190048,2077554,-708,853,1328,-1043,-579,-325,34,208,-102
0,2023-03-09T13:52:58.194392,2077558,-708,853,1328,-1043,-579,-325,34,208,-102
0,2023-03-09T13:52:58.198896,2077562,-708,853,1328,-1043,-579,-325,34,208,-102
0,2023-03-09T13:52:58.203961,2077568,-707,851,1326,-1041,-573,-327,34,208,-102
0,2023-03-09T13:52:58.209007,2077573,-707,851,1326,-1041,-573,-327,34,208,-102
0,2023-03-09T13:52:58.213511,2077578,-707,851,1326,-1041,-573,-327,34,208,-102
0,2023-03-09T13:52:58.217854,2077582,-707,851,1326,-1041,-573,-327,34,208,-102
0,2023-03-09T13:52:58.222812,2077587,-707,851,1326,-1041,-573,-327,34,208,-102
0,2023-03-09T13:52:58.227385,2077591,-709,853,1329,-1041,-574,-331,34,208,-102
0,2023-03-09T13:52:58.232564,2077596,-709,853,1329,-1041,-574,-331,34,208,-102
0,2023-03-09T13:52:58.237271,2077601,-709,853,1329,-1041,-574,-331,34,208,-102
0,2023-03-09T13:52:58.242284,2077606,-709,853,1329,-1041,-574,-331,34,208,-102
0,2023-03-09T13:52:58.246734,2077611,-708,852,1331,-1035,-574,-329,39,197,-99
0,2023-03-09T13:52:58.251306,2077616,-708,852,1331,-1035,-574,-329,39,197,-99
0,2023-03-09T13:52:58.255647,2077620,-708,852,1331,-1035,-574,-329,39,197,-99
0,2023-03-09T13:52:58.259983,2077624,-708,852,1331,-1035,-574,-329,39,197,-99
0,2023-03-09T13:52:58.264806,2077629,-711,854,1332,-1041,-575,-326,39,197,-99
0,2023-03-09T13:52:58.269502,2077633,-711,854,1332,-1041,-575,-326,39,197,-99
0,2023-03-09T13:52:58.274078,2077638,-711,854,1332,-1041,-575,-326,39,197,-99
0,2023-03-09T13:52:58.279303,2077643,-711,854,1332,-1041,-575,-326,39,197,-99
0,2023-03-09T13:52:58.284329,2077648,-708,850,1335,-1046,-580,-323,39,197,-99
0,2023-03-09T13:52:58.289355,2077654,-708,850,1335,-1046,-580,-323,39,197,-99
0,2023-03-09T13:52:58.293842,2077658,-708,850,1335,-1046,-580,-323,39,197,-99
0,2023-03-09T13:52:58.298260,2077662,-708,850,1335,-1046,-580,-323,39,197,-99
0,2023-03-09T13:52:58.303346,2077667,-713,850,1337,-1041,-577,-325,39,197,-99
0,2023-03-09T13:52:58.308494,2077672,-713,850,1337,-1041,-577,-325,39,197,-99
0,2023-03-09T13:52:58.312812,2077677,-713,850,1337,-1041,-577,-325,39,197,-99
0,2023-03-09T13:52:58.317756,2077681,-713,850,1337,-1041,-577,-325,39,197,-99
0,2023-03-09T13:52:58.322630,2077686,-713,850,1337,-1041,-577,-325,39,197,-99
0,2023-03-09T13:52:58.327062,2077690,-711,851,1329,-1041,-575,-323,39,197,-99
0,2023-03-09T13:52:58.332289,2077697,-711,851,1329,-1041,-575,-323,39,197,-99
0,2023-03-09T13:52:58.336766,2077701,-711,851,1329,-1041,-575,-323,39,197,-99
0,2023-03-09T13:52:58.341907,2077706,-711,851,1329,-1041,-575,-323,39,197,-99
0,2023-03-09T13:52:58.346337,2077710,-710,850,1333,-1036,-575,-328,39,197,-99
0,2023-03-09T13:52:58.351346,2077715,-710,850,1333,-1036,-575,-328,39,197,-99
0,2023-03-09T13:52:58.355751,2077720,-710,850,1333,-1036,-575,-328,39,197,-99
0,2023-03-09T13:52:58.360495,2077724,-710,850,1333,-1036,-575,-328,39,197,-99
0,2023-03-09T13:52:58.364932,2077729,-711,851,1330,-1040,-576,-324,39,197,-99
0,2023-03-09T13:52:58.369512,2077733,-711,851,1330,-1040,-576,-324,39,197,-99
0,2023-03-09T13:52:58.374411,2077739,-711,851,1330,-1040,-576,-324,39,197,-99
0,2023-03-09T13:52:58.378806,2077743,-711,851,1330,-1040,-576,-324,39,197,-99
0,2023-03-09T13:52:58.383688,2077748,-708,854,1332,-1039,-578,-320,35,193,-95
0,2023-03-09T13:52:58.388626,2077753,-708,854,1332,-1039,-578,-320,35,193,-95
0,2023-03-09T13:52:58.393116,2077757,-708,854,1332,-1039,-578,-320,35,193,-95
0,2023-03-09T13:52:58.397385,2077761,-708,854,1332,-1039,-578,-320,35,193,-95
0,2023-03-09T13:52:58.402308,2077766,-708,854,1332,-1039,-578,-320,35,193,-95
0,2023-03-09T13:52:58.406745,2077770,-708,850,1321,-1044,-579,-326,35,193,-95
0,2023-03-09T13:52:58.411422,2077775,-708,850,1321,-1044,-579,-326,35,193,-95
0,2023-03-09T13:52:58.415885,2077779,-708,850,1321,-1044,-579,-326,35,193,-95
0,2023-03-09T13:52:58.420419,2077785,-708,850,1321,-1044,-579,-326,35,193,-95
0,2023-03-09T13:52:58.424853,2077789,-708,852,1336,-1044,-579,-325,35,193,-95
0,2023-03-09T13:52:58.430215,2077794,-708,852,1336,-1044,-579,-325,35,193,-95
0,2023-03-09T13:52:58.434548,2077799,-708,852,1336,-1044,-579,-325,35,193,-95
0,2023-03-09T13:52:58.439383,2077803,-708,852,1336,-1044,-579,-325,35,193,-95
0,2023-03-09T13:52:58.443778,2077808,-709,851,1329,-1041,-576,-324,35,193,-95
0,2023-03-09T13:52:58.448948,2077812,-709,851,1329,-1041,-576,-324,35,193,-95
0,2023-03-09T13:52:58.453582,2077817,-709,851,1329,-1041,-576,-324,35,193,-95
0,2023-03-09T13:52:58.458431,2077822,-709,851,1329,-1041,-576,-324,35,193,-95
0,2023-03-09T13:52:58.462779,2077827,-709,851,1329,-1041,-576,-324,35,193,-95
0,2023-03-09T13:52:58.467439,2077832,-709,852,1331,-1038,-578,-324,35,193,-95
0,2023-03-09T13:52:58.472546,2077837,-709,852,1331,-1038,-578,-324,35,193,-95
0,2023-03-09T13:52:58.477787,2077842,-709,852,1331,-1038,-578,-324,35,193,-95
0,2023-03-09T13:52:58.482725,2077847,-709,852,1331,-1038,-578,-324,35,193,-95
0,2023-03-09T13:52:58.487271,2077851,-711,854,1327,-1041,-576,-320,35,193,-95
0,2023-03-09T13:52:58.492416,2077856,-711,854,1327,-1041,-576,-320,35,193,-95
0,2023-03-09T13:52:58.497200,2077861,-711,854,1327,-1041,-576,-320,35,193,-95
0,2023-03-09T13:52:58.501948,2077865,-711,854,1327,-1041,-576,-320,35,193,-95
0,2023-03-09T13:52:58.506686,2077871,-708,853,1330,-1047,-579,-328,28,204,-104
0,2023-03-09T13:52:58.511723,2077876,-708,853,1330,-1047,-579,-328,28,204,-104
0,2023-03-09T13:52:58.516283,2077880,-708,853,1330,-1047,-579,-328,28,204,-104
0,2023-03-09T13:52:58.521192,2077885,-708,853,1330,-1047,-579,-328,28,204,-104
0,2023-03-09T13:52:58.525564,2077889,-707,848,1331,-1048,-573,-333,28,204,-104
0,2023-03-09T13:52:58.530694,2077894,-707,848,1331,-1048,-573,-333,28,204,-104
0,2023-03-09T13:52:58.535234,2077899,-707,848,1331,-1048,-573,-333,28,204,-104
0,2023-03-09T13:52:58.540397,2077904,-707,848,1331,-1048,-573,-333,28,204,-104
0,2023-03-09T13:52:58.544870,2077908,-707,850,1329,-1041,-577,-329,28,204,-104
0,2023-03-09T13:52:58.549759,2077914,-707,850,1329,-1041,-577,-329,28,204,-104
0,2023-03-09T13:52:58.554296,2077918,-707,850,1329,-1041,-577,-329,28,204,-104
0,2023-03-09T13:52:58.559358,2077923,-707,850,1329,-1041,-577,-329,28,204,-104
0,2023-03-09T13:52:58.564272,2077928,-710,849,1333,-1042,-575,-327,28,204,-104
0,2023-03-09T13:52:58.569215,2077933,-710,849,1333,-1042,-575,-327,28,204,-104
0,2023-03-09T13:52:58.573727,2077937,-710,849,1333,-1042,-575,-327,28,204,-104
0,2023-03-09T13:52:58.578144,2077942,-710,849,1333,-1042,-575,-327,28,204,-104
0,2023-03-09T13:52:58.583358,2077947,-710,849,1333,-1042,-575,-327,28,204,-104
0,2023-03-09T13:52:58.587748,2077952,-706,850,1329,-1045,-575,-328,28,204,-104
0,2023-03-09T13:52:58.592604,2077957,-706,850,1329,-1045,-575,-328,28,204,-104
0,2023-03-09T13:52:58.597779,2077962,-706,850,1329,-1045,-575,-328,28,204,-104
0,2023-03-09T13:52:58.602762,2077967,-706,850,1329,-1045,-575,-328,28,204,-104
0,2023-03-09T13:52:58.607316,2077971,-708,852,1328,-1042,-575,-335,28,204,-104
0,2023-03-09T13:52:58.612151,2077976,-708,852,1328,-1042,-575,-335,28,204,-104
0,2023-03-09T13:52:58.616687,2077980,-708,852,1328,-1042,-575,-335,28,204,-104
0,2023-03-09T13:52:58.621660,2077985,-708,852,1328,-1042,-575,-335,28,204,-104
0,2023-03-09T13:52:58.626083,2077990,-714,851,1329,-1041,-582,-327,28,204,-104
0,2023-03-09T13:52:58.631384,2077996,-714,851,1329,-1041,-582,-327,28,204,-104
0,2023-03-09T13:52:58.635898,2078000,-714,851,1329,-1041,-582,-327,28,204,-104
0,2023-03-09T13:52:58.640321,2078004,-714,851,1329,-1041,-582,-327,28,204,-104
0,2023-03-09T13:52:58.644673,2078009,-714,852,1334,-1046,-580,-326,36,200,-102
0,2023-03-09T13:52:58.649779,2078014,-714,852,1334,-1046,-580,-326,36,200,-102
0,2023-03-09T13:52:58.654030,2078018,-714,852,1334,-1046,-580,-326,36,200,-102
0,2023-03-09T13:52:58.658738,2078022,-714,852,1334,-1046,-580,-326,36,200,-102
0,2023-03-09T13:52:58.663628,2078027,-710,850,1331,-1036,-575,-319,36,200,-102
0,2023-03-09T13:52:58.668550,2078032,-710,850,1331,-1036,-575,-319,36,200,-102
0,2023-03-09T13:52:58.673061,2078036,-710,850,1331,-1036,-575,-319,36,200,-102
0,2023-03-09T13:52:58.677934,2078042,-710,850,1331,-1036,-575,-319,36,200,-102
0,2023-03-09T13:52:58.682873,2078047,-710,850,1331,-1036,-575,-319,36,200,-102
0,2023-03-09T13:52:58.687880,2078052,-711,852,1329,-1038,-572,-320,36,200,-102
0,2023-03-09T13:52:58.692783,2078057,-711,852,1329,-1038,-572,-320,36,200,-102
0,2023-03-09T13:52:58.697715,2078062,-711,852,1329,-1038,-572,-320,36,200,-102
0,2023-03-09T13:52:58.702920,2078067,-711,852,1329,-1038,-572,-320,36,200,-102
0,2023-03-09T13:52:58.707477,2078071,-709,851,1332,-1049,-579,-326,36,200,-102
0,2023-03-09T13:52:58.712523,2078076,-709,851,1332,-1049,-579,-326,36,200,-102
0,2023-03-09T13:52:58.717136,2078081,-709,851,1332,-1049,-579,-326,36,200,-102
0,2023-03-09T13:52:58.721523,2078086,-709,851,1332,-1049,-579,-326,36,200,-102
0,2023-03-09T13:52:58.725900,2078090,-711,852,1329,-1036,-574,-327,36,200,-102
0,2023-03-09T13:52:58.730725,2078095,-711,852,1329,-1036,-574,-327,36,200,-102
0,2023-03-09T13:52:58.735645,2078100,-711,852,1329,-1036,-574,-327,36,200,-102
0,2023-03-09T13:52:58.740540,2078104,-711,852,1329,-1036,-574,-327,36,200,-102
0,2023-03-09T13:52:58.745003,2078109,-706,851,1330,-1040,-580,-331,36,200,-102
0,2023-03-09T13:52:58.749576,2078113,-706,851,1330,-1040,-580,-331,36,200,-102
0,2023-03-09T13:52:58.753986,2078117,-706,851,1330,-1040,-580,-331,36,200,-102
0,2023-03-09T13:52:58.758300,2078123,-706,851,1330,-1040,-580,-331,36,200,-102
0,2023-03-09T13:52:58.763996,2078127,-706,851,1330,-1040,-580,-331,36,200,-102
0,2023-03-09T13:52:58.768509,2078133,-708,854,1329,-1042,-579,-322,37,195,-103
0,2023-03-09T13:52:58.773592,2078138,-708,854,1329,-1042,-579,-322,37,195,-103
0,2023-03-09T13:52:58.778435,2078142,-708,854,1329,-1042,-579,-322,37,195,-103
0,2023-03-09T13:52:58.783772,2078147,-708,854,1329,-1042,-579,-322,37,195,-103
0,2023-03-09T13:52:58.788555,2078152,-709,853,1329,-1043,-583,-321,37,195,-103
0,2023-03-09T13:52:58.793466,2078157,-709,853,1329,-1043,-583,-321,37,195,-103
0,2023-03-09T13:52:58.798067,2078161,-709,853,1329,-1043,-583,-321,37,195,-103
0,2023-03-09T13:52:58.802282,2078167,-709,853,1329,-1043,-583,-321,37,195,-103
0,2023-03-09T13:52:58.806564,2078171,-709,851,1331,-1041,-581,-327,37,195,-103
0,2023-03-09T13:52:58.811611,2078176,-709,851,1331,-1041,-581,-327,37,195,-103
0,2023-03-09T13:52:58.816067,2078180,-709,851,1331,-1041,-581,-327,37,195,-103
0,2023-03-09T13:52:58.820973,2078185,-709,851,1331,-1041,-581,-327,37,195,-103
0,2023-03-09T13:52:58.825356,2078189,-708,848,1329,-1039,-574,-325,37,195,-103
0,2023-03-09T13:52:58.830241,2078194,-708,848,1329,-1039,-574,-325,37,195,-103
0,2023-03-09T13:52:58.834632,2078198,-708,848,1329,-1039,-574,-325,37,195,-103
0,2023-03-09T13:52:58.839028,2078203,-708,848,1329,-1039,-574,-325,37,195,-103
0,2023-03-09T13:52:58.843938,2078208,-707,850,1322,-1032,-575,-320,37,195,-103
0,2023-03-09T13:52:58.848778,2078213,-707,850,1322,-1032,-575,-320,37,195,-103
0,2023-03-09T13:52:58.853573,2078217,-707,850,1322,-1032,-575,-320,37,195,-103
0,2023-03-09T13:52:58.858058,2078222,-707,850,1322,-1032,-575,-320,37,195,-103
0,2023-03-09T13:52:58.862907,2078227,-707,850,1322,-1032,-575,-320,37,195,-103
0,2023-03-09T13:52:58.867473,2078231,-708,852,1330,-1040,-572,-329,37,195,-103
0,2023-03-09T13:52:58.871788,2078236,-708,852,1330,-1040,-572,-329,37,195,-103
0,2023-03-09T13:52:58.876253,2078240,-708,852,1330,-1040,-572,-329,37,195,-103
0,2023-03-09T13:52:58.880723,2078244,-708,852,1330,-1040,-572,-329,37,195,-103
0,2023-03-09T13:52:58.885264,2078249,-712,851,1328,-1044,-570,-328,35,197,-99
0,2023-03-09T13:52:58.890065,2078254,-712,851,1328,-1044,-570,-328,35,197,-99
0,2023-03-09T13:52:58.894637,2078259,-712,851,1328,-1044,-570,-328,35,197,-99
0,2023-03-09T13:52:58.898914,2078263,-712,851,1328,-1044,-570,-328,35,197,-99
0,2023-03-09T13:52:58.903846,2078268,-708,850,1328,-1038,-571,-328,35,197,-99
0,2023-03-09T13:52:58.909187,2078273,-708,850,1328,-1038,-571,-328,35,197,-99
0,2023-03-09T13:52:58.913822,2078277,-708,850,1328,-1038,-571,-328,35,197,-99
0,2023-03-09T13:52:58.918169,2078282,-708,850,1328,-1038,-571,-328,35,197,-99
0,2023-03-09T13:52:58.922917,2078286,-708,850,1328,-1038,-571,-328,35,197,-99
0,2023-03-09T13:52:58.927304,2078291,-711,853,1331,-1038,-568,-328,35,197,-99
0,2023-03-09T13:52:58.931576,2078296,-711,853,1331,-1038,-568,-328,35,197,-99
0,2023-03-09T13:52:58.935916,2078300,-711,853,1331,-1038,-568,-328,35,197,-99
0,2023-03-09T13:52:58.940953,2078305,-711,853,1331,-1038,-568,-328,35,197,-99
0,2023-03-09T13:52:58.945306,2078309,-709,851,1331,-1045,-576,-323,35,197,-99
0,2023-03-09T13:52:58.950606,2078314,-709,851,1331,-1045,-576,-323,35,197,-99
0,2023-03-09T13:52:58.955663,2078319,-709,851,1331,-1045,-576,-323,35,197,-99
0,2023-03-09T13:52:58.960788,2078324,-709,851,1331,-1045,-576,-323,35,197,-99
0,2023-03-09T13:52:58.965506,2078329,-708,852,1330,-1049,-576,-324,35,197,-99
0,2023-03-09T13:52:58.970520,2078334,-708,852,1330,-1049,-576,-324,35,197,-99
0,2023-03-09T13:52:58.974968,2078339,-708,852,1330,-1049,-576,-324,35,197,-99
0,2023-03-09T13:52:58.979658,2078344,-708,852,1330,-1049,-576,-324,35,197,-99
0,2023-03-09T13:52:58.984514,2078348,-709,854,1331,-1041,-575,-321,35,197,-99
0,2023-03-09T13:52:58.989577,2078354,-709,854,1331,-1041,-575,-321,35,197,-99
0,2023-03-09T13:52:58.994206,2078358,-709,854,1331,-1041,-575,-321,35,197,-99
0,2023-03-09T13:52:58.999577,2078363,-709,854,1331,-1041,-575,-321,35,197,-99
0,2023-03-09T13:52:59.004826,2078368,-706,851,1333,-1044,-569,-326,35,197,-99
0,2023-03-09T13:52:59.010196,2078374,-706,851,1333,-1044,-569,-326,35,197,-99
0,2023-03-09T13:52:59.014746,2078379,-706,851,1333,-1044,-569,-326,35,197,-99
0,2023-03-09T13:52:59.019458,2078384,-706,851,1333,-1044,-569,-326,35,197,-99
0,2023-03-09T13:52:59.023825,2078388,-706,851,1333,-1044,-569,-326,35,197,-99
0,2023-03-09T13:52:59.028372,2078392,-712,851,1330,-1039,-575,-329,36,212,-100
0,2023-03-09T13:52:59.033473,2078397,-712,851,1330,-1039,-575,-329,36,212,-100
0,2023-03-09T13:52:59.037857,2078402,-712,851,1330,-1039,-575,-329,36,212,-100
0,2023-03-09T13:52:59.042939,2078407,-712,851,1330,-1039,-575,-329,36,212,-100
0,2023-03-09T13:52:59.047237,2078411,-712,850,1328,-1045,-580,-333,36,212,-100
0,2023-03-09T13:52:59.052545,2078416,-712,850,1328,-1045,-580,-333,36,212,-100
0,2023-03-09T13:52:59.056948,2078420,-712,850,1328,-1045,-580,-333,36,212,-100
0,2023-03-09T13:52:59.061931,2078426,-712,850,1328,-1045,-580,-333,36,212,-100
0,2023-03-09T13:52:59.066299,2078431,-709,850,1330,-1039,-573,-330,36,212,-100
0,2023-03-09T13:52:59.070557,2078435,-709,850,1330,-1039,-573,-330,36,212,-100
0,2023-03-09T13:52:59.075253,2078439,-709,850,1330,-1039,-573,-330,36,212,-100
0,2023-03-09T13:52:59.080383,2078444,-709,850,1330,-1039,-573,-330,36,212,-100
0,2023-03-09T13:52:59.084951,2078449,-711,848,1328,-1046,-571,-322,36,212,-100
0,2023-03-09T13:52:59.089786,2078453,-711,848,1328,-1046,-571,-322,36,212,-100
0,2023-03-09T13:52:59.094148,2078458,-711,848,1328,-1046,-571,-322,36,212,-100
0,2023-03-09T13:52:59.098983,2078462,-711,848,1328,-1046,-571,-322,36,212,-100
0,2023-03-09T13:52:59.103885,2078468,-711,848,1328,-1046,-571,-322,36,212,-100
0,2023-03-09T13:52:59.108302,2078472,-712,849,1329,-1042,-580,-322,36,212,-100
0,2023-03-09T13:52:59.113130,2078477,-712,849,1329,-1042,-580,-322,36,212,-100
0,2023-03-09T13:52:59.117734,2078482,-712,849,1329,-1042,-580,-322,36,212,-100
0,2023-03-09T13:52:59.122850,2078487,-712,849,1329,-1042,-580,-322,36,212,-100
0,2023-03-09T13:52:59.127251,2078491,-712,849,1329,-1042,-580,-322,36,212,-100
0,2023-03-09T13:52:59.131790,2078495,-712,849,1329,-1042,-580,-322,36,212,-100
0,2023-03-09T13:52:59.136990,2078501,-712,849,1329,-1042,-580,-322,36,212,-100
0,2023-03-09T13:52:59.141750,2078505,-712,849,1329,-1042,-580,-322,36,212,-100
0,2023-03-09T13:52:59.146268,2078511,-711,851,1326,-1042,-579,-328,33,197,-97
0,2023-03-09T13:52:59.151533,2078515,-711,851,1326,-1042,-579,-328,33,197,-97
0,2023-03-09T13:52:59.156462,2078521,-711,851,1326,-1042,-579,-328,33,197,-97
0,2023-03-09T13:52:59.161230,2078525,-711,851,1326,-1042,-579,-328,33,197,-97
0,2023-03-09T13:52:59.165876,2078530,-708,850,1333,-1035,-575,-334,33,197,-97
0,2023-03-09T13:52:59.170949,2078535,-708,850,1333,-1035,-575,-334,33,197,-97
0,2023-03-09T13:52:59.175371,2078539,-708,850,1333,-1035,-575,-334,33,197,-97
0,2023-03-09T13:52:59.180254,2078544,-708,850,1333,-1035,-575,-334,33,197,-97
0,2023-03-09T13:52:59.184772,2078548,-710,848,1328,-1046,-583,-326,33,197,-97
0,2023-03-09T13:52:59.189614,2078554,-710,848,1328,-1046,-583,-326,33,197,-97
0,2023-03-09T13:52:59.193994,2078558,-710,848,1328,-1046,-583,-326,33,197,-97
0,2023-03-09T13:52:59.198539,2078563,-710,848,1328,-1046,-583,-326,33,197,-97
0,2023-03-09T13:52:59.203651,2078568,-710,848,1328,-1046,-583,-326,33,197,-97
0,2023-03-09T13:52:59.208077,2078572,-711,850,1326,-1044,-577,-327,33,197,-97
0,2023-03-09T13:52:59.212922,2078577,-711,850,1326,-1044,-577,-327,33,197,-97
0,2023-03-09T13:52:59.217379,2078581,-711,850,1326,-1044,-577,-327,33,197,-97
0,2023-03-09T13:52:59.222161,2078586,-711,850,1326,-1044,-577,-327,33,197,-97
0,2023-03-09T13:52:59.226635,2078590,-709,850,1323,-1037,-582,-324,33,197,-97
0,2023-03-09T13:52:59.231739,2078596,-709,850,1323,-1037,-582,-324,33,197,-97
0,2023-03-09T13:52:59.236305,2078601,-709,850,1323,-1037,-582,-324,33,197,-97
0,2023-03-09T13:52:59.241364,2078605,-709,850,1323,-1037,-582,-324,33,197,-97
0,2023-03-09T13:52:59.245637,2078610,-709,850,1325,-1044,-575,-327,33,197,-97
0,2023-03-09T13:52:59.250456,2078614,-709,850,1325,-1044,-575,-327,33,197,-97
0,2023-03-09T13:52:59.255086,2078619,-709,850,1325,-1044,-575,-327,33,197,-97
0,2023-03-09T13:52:59.259706,2078623,-709,850,1325,-1044,-575,-327,33,197,-97
0,2023-03-09T13:52:59.264243,2078628,-709,850,1325,-1044,-575,-327,33,197,-97
0,2023-03-09T13:52:59.268869,2078632,-711,849,1322,-1040,-565,-322,33,197,-97
0,2023-03-09T13:52:59.273986,2078638,-711,849,1322,-1040,-565,-322,33,197,-97
0,2023-03-09T13:52:59.278471,2078643,-711,849,1322,-1040,-565,-322,33,197,-97
0,2023-03-09T13:52:59.283265,2078647,-711,849,1322,-1040,-565,-322,33,197,-97
0,2023-03-09T13:52:59.287909,2078652,-709,852,1331,-1035,-574,-327,45,205,-93
0,2023-03-09T13:52:59.293678,2078658,-709,852,1331,-1035,-574,-327,45,205,-93
0,2023-03-09T13:52:59.298200,2078662,-709,852,1331,-1035,-574,-327,45,205,-93
0,2023-03-09T13:52:59.302511,2078666,-709,852,1331,-1035,-574,-327,45,205,-93
0,2023-03-09T13:52:59.306932,2078670,-708,850,1328,-1036,-572,-325,45,205,-93
0,2023-03-09T13:52:59.312081,2078675,-708,850,1328,-1036,-572,-325,45,205,-93
0,2023-03-09T13:52:59.316293,2078681,-708,850,1328,-1036,-572,-325,45,205,-93
0,2023-03-09T13:52:59.320434,2078685,-708,850,1328,-1036,-572,-325,45,205,-93
0,2023-03-09T13:52:59.324906,2078689,-715,849,1327,-1039,-570,-327,45,205,-93
0,2023-03-09T13:52:59.330039,2078694,-715,849,1327,-1039,-570,-327,45,205,-93
0,2023-03-09T13:52:59.334432,2078698,-715,849,1327,-1039,-570,-327,45,205,-93
0,2023-03-09T13:52:59.339006,2078703,-715,849,1327,-1039,-570,-327,45,205,-93
0,2023-03-09T13:52:59.343832,2078708,-715,849,1327,-1039,-570,-327,45,205,-93
0,2023-03-09T13:52:59.348269,2078712,-710,853,1328,-1037,-575,-319,45,205,-93
0,2023-03-09T13:52:59.353564,2078717,-710,853,1328,-1037,-575,-319,45,205,-93
0,2023-03-09T13:52:59.358224,2078722,-710,853,1328,-1037,-575,-319,45,205,-93
0,2023-03-09T13:52:59.363392,2078728,-710,853,1328,-1037,-575,-319,45,205,-93
0,2023-03-09T13:52:59.368031,2078732,-711,851,1332,-1039,-568,-327,45,205,-93
0,2023-03-09T13:52:59.373498,2078737,-711,851,1332,-1039,-568,-327,45,205,-93
0,2023-03-09T13:52:59.378337,2078742,-711,851,1332,-1039,-568,-327,45,205,-93
0,2023-03-09T13:52:59.383204,2078747,-711,851,1332,-1039,-568,-327,45,205,-93
0,2023-03-09T13:52:59.388048,2078751,-709,852,1331,-1045,-574,-324,45,205,-93
0,2023-03-09T13:52:59.393471,2078757,-709,852,1331,-1045,-574,-324,45,205,-93
0,2023-03-09T13:52:59.398178,2078761,-709,852,1331,-1045,-574,-324,45,205,-93
0,2023-03-09T13:52:59.403504,2078768,-709,852,1331,-1045,-574,-324,45,205,-93
0,2023-03-09T13:52:59.408079,2078772,-712,851,1332,-1040,-576,-317,24,196,-98
0,2023-03-09T13:52:59.413470,2078777,-712,851,1332,-1040,-576,-317,24,196,-98
0,2023-03-09T13:52:59.418056,2078782,-712,851,1332,-1040,-576,-317,24,196,-98
0,2023-03-09T13:52:59.423761,2078787,-712,851,1332,-1040,-576,-317,24,196,-98
