imu,server_time,arduino_time,ax,ay,az,gx,gy,gz,mx,my,mz
0,2023-03-09T13:51:17.712377,1977070,259,30,1661,-1039,-575,-323,172,128,-110
0,2023-03-09T13:51:17.716893,1977075,258,33,1665,-1045,-580,-323,172,128,-110
0,2023-03-09T13:51:17.721566,1977080,258,33,1665,-1045,-580,-323,172,128,-110
0,2023-03-09T13:51:17.726663,1977084,258,33,1665,-1045,-580,-323,172,128,-110
0,2023-03-09T13:51:17.731247,1977090,258,33,1665,-1045,-580,-323,172,128,-110
0,2023-03-09T13:51:17.735723,1977094,259,30,1664,-1041,-570,-325,172,128,-110
0,2023-03-09T13:51:17.740480,1977099,259,30,1664,-1041,-570,-325,172,128,-110
0,2023-03-09T13:51:17.745397,1977104,259,30,1664,-1041,-570,-325,172,128,-110
0,2023-03-09T13:51:17.749595,1977108,259,30,1664,-1041,-570,-325,172,128,-110
0,2023-03-09T13:51:17.754134,1977112,261,31,1664,-1043,-575,-322,171,133,-103
0,2023-03-09T13:51:17.759592,1977118,261,31,1664,-1043,-575,-322,171,133,-103
0,2023-03-09T13:51:17.764480,1977122,261,31,1664,-1043,-575,-322,171,133,-103
0,2023-03-09T13:51:17.768885,1977127,261,31,1664,-1043,-575,-322,171,133,-103
0,2023-03-09T13:51:17.773293,1977132,261,31,1664,-1043,-575,-322,171,133,-103
0,2023-03-09T13:51:17.777784,1977136,262,31,1658,-1036,-573,-330,171,133,-103
0,2023-03-09T13:51:17.782824,1977141,262,31,1658,-1036,-573,-330,171,133,-103
0,2023-03-09T13:51:17.787769,1977146,262,31,1658,-1036,-573,-330,171,133,-103
0,2023-03-09T13:51:17.792131,1977150,262,31,1658,-1036,-573,-330,171,133,-103
0,2023-03-09T13:51:17.796844,1977155,262,31,1660,-1044,-575,-325,171,133,-103
0,2023-03-09T13:51:17.802672,1977160,262,31,1660,-1044,-575,-325,171,133,-103
0,2023-03-09T13:51:17.807928,1977166,262,31,1660,-1044,-575,-325,171,133,-103
0,2023-03-09T13:51:17.812452,1977170,262,31,1660,-1044,-575,-325,171,133,-103
0,2023-03-09T13:51:17.816718,1977175,263,34,1664,-1041,-577,-323,171,133,-103
0,2023-03-09T13:51:17.821749,1977180,263,34,1664,-1041,-577,-323,171,133,-103
0,2023-03-09T13:51:17.826690,1977185,263,34,1664,-1041,-577,-323,171,133,-103
0,2023-03-09T13:51:17.831356,1977190,263,34,1664,-1041,-577,-323,171,133,-103
0,2023-03-09T13:51:17.836582,1977195,261,30,1661,-1038,-567,-333,171,133,-103
0,2023-03-09T13:51:17.841478,1977200,261,30,1661,-1038,-567,-333,171,133,-103
0,2023-03-09T13:51:17.846691,1977205,261,30,1661,-1038,-567,-333,171,133,-103
0,2023-03-09T13:51:17.851430,1977209,261,30,1661,-1038,-567,-333,171,133,-103
0,2023-03-09T13:51:17.856510,1977214,264,33,1659,-1033,-569,-321,171,133,-103
0,2023-03-09T13:51:17.861436,1977220,264,33,1659,-1033,-569,-321,171,133,-103
0,2023-03-09T13:51:17.865793,1977224,264,33,1659,-1033,-569,-321,171,133,-103
0,2023-03-09T13:51:17.870168,1977229,264,33,1659,-1033,-569,-321,171,133,-103
0,2023-03-09T13:51:17.874619,1977233,260,32,1660,-1036,-570,-323,167,127,-103
0,2023-03-09T13:51:17.879149,1977237,260,32,1660,-1036,-570,-323,167,127,-103
0,2023-03-09T13:51:17.883972,1977242,260,32,1660,-1036,-570,-323,167,127,-103
0,2023-03-09T13:51:17.888123,1977246,260,32,1660,-1036,-570,-323,167,127,-103
0,2023-03-09T13:51:17.892493,1977251,260,32,1660,-1036,-570,-323,167,127,-103
0,2023-03-09T13:51:17.896889,1977255,260,32,1661,-1039,-576,-332,167,127,-103
0,2023-03-09T13:51:17.901743,1977261,260,32,1661,-1039,-576,-332,167,127,-103
0,2023-03-09T13:51:17.906647,1977265,260,32,1661,-1039,-576,-332,167,127,-103
0,2023-03-09T13:51:17.911241,1977269,260,32,1661,-1039,-576,-332,167,127,-103
0,2023-03-09T13:51:17.916309,1977275,262,32,1662,-1036,-576,-320,167,127,-103
0,2023-03-09T13:51:17.921386,1977280,262,32,1662,-1036,-576,-320,167,127,-103
0,2023-03-09T13:51:17.926418,1977284,262,32,1662,-1036,-576,-320,167,127,-103
0,2023-03-09T13:51:17.930870,1977289,262,32,1662,-1036,-576,-320,167,127,-103
0,2023-03-09T13:51:17.935410,1977293,262,36,1663,-1049,-577,-322,167,127,-103
0,2023-03-09T13:51:17.940557,1977298,262,36,1663,-1049,-577,-322,167,127,-103
0,2023-03-09T13:51:17.945734,1977304,262,36,1663,-1049,-577,-322,167,127,-103
0,2023-03-09T13:51:17.950393,1977309,262,36,1663,-1049,-577,-322,167,127,-103
0,2023-03-09T13:51:17.954685,1977313,261,32,1666,-1047,-570,-323,167,127,-103
0,2023-03-09T13:51:17.959621,1977318,261,32,1666,-1047,-570,-323,167,127,-103
0,2023-03-09T13:51:17.964298,1977323,261,32,1666,-1047,-570,-323,167,127,-103
0,2023-03-09T13:51:17.969025,1977327,261,32,1666,-1047,-570,-323,167,127,-103
0,2023-03-09T13:51:17.973644,1977332,261,32,1666,-1047,-570,-323,167,127,-103
0,2023-03-09T13:51:17.978674,1977337,262,30,1660,-1031,-565,-324,167,127,-103
0,2023-03-09T13:51:17.984178,1977342,262,30,1660,-1031,-565,-324,167,127,-103
0,2023-03-09T13:51:17.988740,1977347,262,30,1660,-1031,-565,-324,167,127,-103
0,2023-03-09T13:51:17.993179,1977352,262,30,1660,-1031,-565,-324,167,127,-103
0,2023-03-09T13:51:17.997797,1977356,264,31,1657,-1028,-564,-328,167,127,-103
0,2023-03-09T13:51:18.002809,1977361,264,31,1657,-1028,-564,-328,167,127,-103
0,2023-03-09T13:51:18.007122,1977366,264,31,1657,-1028,-564,-328,167,127,-103
0,2023-03-09T13:51:18.011614,1977370,264,31,1657,-1028,-564,-328,167,127,-103
0,2023-03-09T13:51:18.016802,1977375,260,33,1669,-1037,-576,-327,172,134,-110
0,2023-03-09T13:51:18.021792,1977380,260,33,1669,-1037,-576,-327,172,134,-110
0,2023-03-09T13:51:18.026718,1977385,260,33,1669,-1037,-576,-327,172,134,-110
0,2023-03-09T13:51:18.031107,1977390,260,33,1669,-1037,-576,-327,172,134,-110
0,2023-03-09T13:51:18.035336,1977394,261,34,1667,-1038,-570,-320,172,134,-110
0,2023-03-09T13:51:18.040438,1977399,261,34,1667,-1038,-570,-320,172,134,-110
0,2023-03-09T13:51:18.044757,1977403,261,34,1667,-1038,-570,-320,172,134,-110
0,2023-03-09T13:51:18.049218,1977407,261,34,1667,-1038,-570,-320,172,134,-110
0,2023-03-09T13:51:18.053709,1977412,261,34,1667,-1038,-570,-320,172,134,-110
0,2023-03-09T13:51:18.058173,1977416,260,34,1660,-1037,-578,-326,172,134,-110
0,2023-03-09T13:51:18.063065,1977421,260,34,1660,-1037,-578,-326,172,134,-110
0,2023-03-09T13:51:18.067626,1977425,260,34,1660,-1037,-578,-326,172,134,-110
0,2023-03-09T13:51:18.071935,1977431,260,34,1660,-1037,-578,-326,172,134,-110
0,2023-03-09T13:51:18.076507,1977435,262,32,1664,-1041,-578,-324,172,134,-110
0,2023-03-09T13:51:18.081364,1977440,262,32,1664,-1041,-578,-324,172,134,-110
0,2023-03-09T13:51:18.085963,1977445,262,32,1664,-1041,-578,-324,172,134,-110
0,2023-03-09T13:51:18.090252,1977449,262,32,1664,-1041,-578,-324,172,134,-110
0,2023-03-09T13:51:18.095215,1977453,260,32,1668,-1047,-577,-328,172,134,-110
0,2023-03-09T13:51:18.099974,1977458,260,32,1668,-1047,-577,-328,172,134,-110
0,2023-03-09T13:51:18.105059,1977463,260,32,1668,-1047,-577,-328,172,134,-110
0,2023-03-09T13:51:18.109482,1977467,260,32,1668,-1047,-577,-328,172,134,-110
0,2023-03-09T13:51:18.113889,1977473,261,29,1656,-1034,-574,-330,172,134,-110
0,2023-03-09T13:51:18.119285,1977478,261,29,1656,-1034,-574,-330,172,134,-110
0,2023-03-09T13:51:18.124068,1977482,261,29,1656,-1034,-574,-330,172,134,-110
0,2023-03-09T13:51:18.128451,1977487,261,29,1656,-1034,-574,-330,172,134,-110
0,2023-03-09T13:51:18.133013,1977491,261,29,1656,-1034,-574,-330,172,134,-110
0,2023-03-09T13:51:18.137534,1977496,261,32,1660,-1029,-571,-324,167,121,-105
0,2023-03-09T13:51:18.142600,1977501,261,32,1660,-1029,-571,-324,167,121,-105
0,2023-03-09T13:51:18.147557,1977506,261,32,1660,-1029,-571,-324,167,121,-105
0,2023-03-09T13:51:18.151949,1977510,261,32,1660,-1029,-571,-324,167,121,-105
0,2023-03-09T13:51:18.156396,1977515,261,30,1672,-1033,-573,-329,167,121,-105
0,2023-03-09T13:51:18.161345,1977520,261,30,1672,-1033,-573,-329,167,121,-105
0,2023-03-09T13:51:18.165587,1977524,261,30,1672,-1033,-573,-329,167,121,-105
0,2023-03-09T13:51:18.170021,1977528,261,30,1672,-1033,-573,-329,167,121,-105
0,2023-03-09T13:51:18.174671,1977533,260,32,1662,-1036,-568,-328,167,121,-105
0,2023-03-09T13:51:18.179517,1977538,260,32,1662,-1036,-568,-328,167,121,-105
0,2023-03-09T13:51:18.184350,1977543,260,32,1662,-1036,-568,-328,167,121,-105
0,2023-03-09T13:51:18.188754,1977547,260,32,1662,-1036,-568,-328,167,121,-105
0,2023-03-09T13:51:18.193201,1977551,260,32,1662,-1036,-568,-328,167,121,-105
0,2023-03-09T13:51:18.197688,1977556,262,32,1661,-1050,-571,-323,167,121,-105
0,2023-03-09T13:51:18.202269,1977561,262,32,1661,-1050,-571,-323,167,121,-105
0,2023-03-09T13:51:18.207350,1977566,262,32,1661,-1050,-571,-323,167,121,-105
0,2023-03-09T13:51:18.211881,1977570,262,32,1661,-1050,-571,-323,167,121,-105
0,2023-03-09T13:51:18.216306,1977575,260,29,1663,-1045,-572,-321,167,121,-105
0,2023-03-09T13:51:18.221044,1977579,260,29,1663,-1045,-572,-321,167,121,-105
0,2023-03-09T13:51:18.226038,1977584,260,29,1663,-1045,-572,-321,167,121,-105
0,2023-03-09T13:51:18.230405,1977589,260,29,1663,-1045,-572,-321,167,121,-105
0,2023-03-09T13:51:18.234750,1977593,263,32,1662,-1039,-570,-327,167,121,-105
0,2023-03-09T13:51:18.240433,1977598,263,32,1662,-1039,-570,-327,167,121,-105
0,2023-03-09T13:51:18.245411,1977604,263,32,1662,-1039,-570,-327,167,121,-105
0,2023-03-09T13:51:18.249666,1977608,263,32,1662,-1039,-570,-327,167,121,-105
0,2023-03-09T13:51:18.254615,1977613,263,31,1659,-1042,-577,-321,167,121,-105
0,2023-03-09T13:51:18.259949,1977618,263,31,1659,-1042,-577,-321,167,121,-105
0,2023-03-09T13:51:18.264631,1977623,263,31,1659,-1042,-577,-321,167,121,-105
0,2023-03-09T13:51:18.269109,1977627,263,31,1659,-1042,-577,-321,167,121,-105
0,2023-03-09T13:51:18.273539,1977632,263,31,1659,-1042,-577,-321,167,121,-105
0,2023-03-09T13:51:18.278156,1977636,262,31,1669,-1046,-575,-325,173,127,-109
0,2023-03-09T13:51:18.282921,1977641,262,31,1669,-1046,-575,-325,173,127,-109
0,2023-03-09T13:51:18.287801,1977647,262,31,1669,-1046,-575,-325,173,127,-109
0,2023-03-09T13:51:18.292228,1977651,262,31,1669,-1046,-575,-325,173,127,-109
0,2023-03-09T13:51:18.296597,1977655,261,34,1661,-1045,-567,-328,173,127,-109
0,2023-03-09T13:51:18.301378,1977660,261,34,1661,-1045,-567,-328,173,127,-109
0,2023-03-09T13:51:18.306392,1977665,261,34,1661,-1045,-567,-328,173,127,-109
0,2023-03-09T13:51:18.310965,1977669,261,34,1661,-1045,-567,-328,173,127,-109
0,2023-03-09T13:51:18.315588,1977674,261,31,1663,-1040,-565,-328,173,127,-109
0,2023-03-09T13:51:18.320600,1977679,261,31,1663,-1040,-565,-328,173,127,-109
0,2023-03-09T13:51:18.325561,1977683,261,31,1663,-1040,-565,-328,173,127,-109
0,2023-03-09T13:51:18.331473,1977690,261,31,1663,-1040,-565,-328,173,127,-109
0,2023-03-09T13:51:18.336051,1977695,261,32,1657,-1037,-568,-321,173,127,-109
0,2023-03-09T13:51:18.340310,1977699,261,32,1657,-1037,-568,-321,173,127,-109
0,2023-03-09T13:51:18.344964,1977703,261,32,1657,-1037,-568,-321,173,127,-109
0,2023-03-09T13:51:18.349541,1977708,261,32,1657,-1037,-568,-321,173,127,-109
0,2023-03-09T13:51:18.353931,1977712,261,32,1657,-1037,-568,-321,173,127,-109
0,2023-03-09T13:51:18.358845,1977716,262,28,1663,-1039,-568,-328,173,127,-109
0,2023-03-09T13:51:18.364225,1977722,262,28,1663,-1039,-568,-328,173,127,-109
0,2023-03-09T13:51:18.368628,1977728,262,28,1663,-1039,-568,-328,173,127,-109
0,2023-03-09T13:51:18.373087,1977732,262,28,1663,-1039,-568,-328,173,127,-109
0,2023-03-09T13:51:18.377511,1977736,261,33,1662,-1043,-571,-324,173,127,-109
0,2023-03-09T13:51:18.382422,1977741,261,33,1662,-1043,-571,-324,173,127,-109
0,2023-03-09T13:51:18.387333,1977746,261,33,1662,-1043,-571,-324,173,127,-109
0,2023-03-09T13:51:18.391860,1977750,261,33,1662,-1043,-571,-324,173,127,-109
0,2023-03-09T13:51:18.396041,1977754,261,31,1666,-1038,-563,-328,173,127,-107
0,2023-03-09T13:51:18.401032,1977759,261,31,1666,-1038,-563,-328,173,127,-107
0,2023-03-09T13:51:18.405837,1977764,261,31,1666,-1038,-563,-328,173,127,-107
0,2023-03-09T13:51:18.410334,1977768,261,31,1666,-1038,-563,-328,173,127,-107
0,2023-03-09T13:51:18.414931,1977774,259,31,1664,-1046,-575,-336,173,127,-107
0,2023-03-09T13:51:18.419903,1977778,259,31,1664,-1046,-575,-336,173,127,-107
0,2023-03-09T13:51:18.424397,1977783,259,31,1664,-1046,-575,-336,173,127,-107
0,2023-03-09T13:51:18.429180,1977788,259,31,1664,-1046,-575,-336,173,127,-107
0,2023-03-09T13:51:18.433777,1977792,259,31,1664,-1046,-575,-336,173,127,-107
0,2023-03-09T13:51:18.438414,1977797,260,31,1661,-1046,-577,-329,173,127,-107
0,2023-03-09T13:51:18.443379,1977802,260,31,1661,-1046,-577,-329,173,127,-107
0,2023-03-09T13:51:18.448132,1977806,260,31,1661,-1046,-577,-329,173,127,-107
0,2023-03-09T13:51:18.452643,1977810,260,31,1661,-1046,-577,-329,173,127,-107
0,2023-03-09T13:51:18.457366,1977816,259,33,1662,-1052,-573,-329,173,127,-107
0,2023-03-09T13:51:18.462301,1977821,259,33,1662,-1052,-573,-329,173,127,-107
0,2023-03-09T13:51:18.467435,1977826,259,33,1662,-1052,-573,-329,173,127,-107
0,2023-03-09T13:51:18.471784,1977830,259,33,1662,-1052,-573,-329,173,127,-107
0,2023-03-09T13:51:18.476123,1977835,260,29,1661,-1041,-575,-328,173,127,-107
0,2023-03-09T13:51:18.480988,1977839,260,29,1661,-1041,-575,-328,173,127,-107
0,2023-03-09T13:51:18.485837,1977844,260,29,1661,-1041,-575,-328,173,127,-107
0,2023-03-09T13:51:18.490586,1977848,260,29,1661,-1041,-575,-328,173,127,-107
0,2023-03-09T13:51:18.495117,1977853,262,29,1660,-1047,-578,-324,173,127,-107
0,2023-03-09T13:51:18.500153,1977859,262,29,1660,-1047,-578,-324,173,127,-107
0,2023-03-09T13:51:18.505166,1977864,262,29,1660,-1047,-578,-324,173,127,-107
0,2023-03-09T13:51:18.509660,1977868,262,29,1660,-1047,-578,-324,173,127,-107
0,2023-03-09T13:51:18.514201,1977872,262,29,1660,-1047,-578,-324,173,127,-107
0,2023-03-09T13:51:18.518725,1977877,261,34,1662,-1044,-576,-325,173,127,-107
0,2023-03-09T13:51:18.523179,1977881,261,34,1662,-1044,-576,-325,173,127,-107
0,2023-03-09T13:51:18.527502,1977886,261,34,1662,-1044,-576,-325,173,127,-107
0,2023-03-09T13:51:18.531996,1977890,261,34,1662,-1044,-576,-325,173,127,-107
0,2023-03-09T13:51:18.536383,1977894,261,31,1662,-1037,-572,-330,167,131,-107
0,2023-03-09T13:51:18.541487,1977900,261,31,1662,-1037,-572,-330,167,131,-107
0,2023-03-09T13:51:18.546398,1977905,261,31,1662,-1037,-572,-330,167,131,-107
0,2023-03-09T13:51:18.550931,1977909,261,31,1662,-1037,-572,-330,167,131,-107
0,2023-03-09T13:51:18.555392,1977914,260,34,1663,-1044,-563,-323,167,131,-107
0,2023-03-09T13:51:18.560686,1977919,260,34,1663,-1044,-563,-323,167,131,-107
0,2023-03-09T13:51:18.565840,1977924,260,34,1663,-1044,-563,-323,167,131,-107
0,2023-03-09T13:51:18.570083,1977928,260,34,1663,-1044,-563,-323,167,131,-107
0,2023-03-09T13:51:18.574429,1977933,259,32,1663,-1036,-572,-319,167,131,-107
0,2023-03-09T13:51:18.579275,1977937,259,32,1663,-1036,-572,-319,167,131,-107
0,2023-03-09T13:51:18.583712,1977942,259,32,1663,-1036,-572,-319,167,131,-107
0,2023-03-09T13:51:18.588118,1977947,259,32,1663,-1036,-572,-319,167,131,-107
0,2023-03-09T13:51:18.592580,1977951,259,32,1663,-1036,-572,-319,167,131,-107
0,2023-03-09T13:51:18.597566,1977956,261,33,1663,-1042,-570,-323,167,131,-107
0,2023-03-09T13:51:18.602746,1977961,261,33,1663,-1042,-570,-323,167,131,-107
0,2023-03-09T13:51:18.607941,1977966,261,33,1663,-1042,-570,-323,167,131,-107
0,2023-03-09T13:51:18.612464,1977970,261,33,1663,-1042,-570,-323,167,131,-107
0,2023-03-09T13:51:18.617612,1977976,260,30,1660,-1040,-569,-326,167,131,-107
0,2023-03-09T13:51:18.622501,1977980,260,30,1660,-1040,-569,-326,167,131,-107
0,2023-03-09T13:51:18.627419,1977986,260,30,1660,-1040,-569,-326,167,131,-107
0,2023-03-09T13:51:18.631753,1977991,260,30,1660,-1040,-569,-326,167,131,-107
0,2023-03-09T13:51:18.635856,1977995,261,31,1657,-1036,-571,-322,167,131,-107
0,2023-03-09T13:51:18.640976,1977999,261,31,1657,-1036,-571,-322,167,131,-107
0,2023-03-09T13:51:18.645987,1978004,261,31,1657,-1036,-571,-322,167,131,-107
0,2023-03-09T13:51:18.650434,1978009,261,31,1657,-1036,-571,-322,167,131,-107
0,2023-03-09T13:51:18.654798,1978013,263,32,1665,-1039,-579,-322,163,131,-99
0,2023-03-09T13:51:18.659660,1978018,263,32,1665,-1039,-579,-322,163,131,-99
0,2023-03-09T13:51:18.664441,1978022,263,32,1665,-1039,-579,-322,163,131,-99
0,2023-03-09T13:51:18.668759,1978028,263,32,1665,-1039,-579,-322,163,131,-99
0,2023-03-09T13:51:18.673143,1978032,263,32,1665,-1039,-579,-322,163,131,-99
0,2023-03-09T13:51:18.677350,1978036,261,32,1662,-1036,-576,-331,163,131,-99
0,2023-03-09T13:51:18.682505,1978041,261,32,1662,-1036,-576,-331,163,131,-99
0,2023-03-09T13:51:18.687400,1978046,261,32,1662,-1036,-576,-331,163,131,-99
0,2023-03-09T13:51:18.691797,1978050,261,32,1662,-1036,-576,-331,163,131,-99
0,2023-03-09T13:51:18.696207,1978054,259,36,1663,-1046,-573,-331,163,131,-99
0,2023-03-09T13:51:18.701537,1978059,259,36,1663,-1046,-573,-331,163,131,-99
0,2023-03-09T13:51:18.706528,1978064,259,36,1663,-1046,-573,-331,163,131,-99
0,2023-03-09T13:51:18.711249,1978070,259,36,1663,-1046,-573,-331,163,131,-99
0,2023-03-09T13:51:18.715940,1978074,262,32,1664,-1041,-575,-325,163,131,-99
0,2023-03-09T13:51:18.720990,1978080,262,32,1664,-1041,-575,-325,163,131,-99
0,2023-03-09T13:51:18.725834,1978084,262,32,1664,-1041,-575,-325,163,131,-99
0,2023-03-09T13:51:18.730030,1978089,262,32,1664,-1041,-575,-325,163,131,-99
0,2023-03-09T13:51:18.734566,1978093,262,32,1664,-1041,-575,-325,163,131,-99
0,2023-03-09T13:51:18.739025,1978097,262,32,1660,-1038,-579,-327,163,131,-99
0,2023-03-09T13:51:18.744440,1978102,262,32,1660,-1038,-579,-327,163,131,-99
0,2023-03-09T13:51:18.749656,1978107,262,32,1660,-1038,-579,-327,163,131,-99
0,2023-03-09T13:51:18.754285,1978113,262,32,1660,-1038,-579,-327,163,131,-99
0,2023-03-09T13:51:18.758690,1978118,262,32,1660,-1035,-578,-329,163,131,-99
0,2023-03-09T13:51:18.763120,1978122,262,32,1660,-1035,-578,-329,163,131,-99
0,2023-03-09T13:51:18.767505,1978126,262,32,1660,-1035,-578,-329,163,131,-99
0,2023-03-09T13:51:18.772203,1978131,262,32,1660,-1035,-578,-329,163,131,-99
0,2023-03-09T13:51:18.777198,1978135,263,32,1657,-1037,-573,-320,169,129,-103
0,2023-03-09T13:51:18.781667,1978140,263,32,1657,-1037,-573,-320,169,129,-103
0,2023-03-09T13:51:18.786508,1978145,263,32,1657,-1037,-573,-320,169,129,-103
0,2023-03-09T13:51:18.791115,1978149,263,32,1657,-1037,-573,-320,169,129,-103
0,2023-03-09T13:51:18.795459,1978153,260,33,1666,-1032,-582,-325,169,129,-103
0,2023-03-09T13:51:18.800645,1978160,260,33,1666,-1032,-582,-325,169,129,-103
0,2023-03-09T13:51:18.805805,1978164,260,33,1666,-1032,-582,-325,169,129,-103
0,2023-03-09T13:51:18.810338,1978169,260,33,1666,-1032,-582,-325,169,129,-103
0,2023-03-09T13:51:18.814799,1978173,259,30,1658,-1037,-578,-325,169,129,-103
0,2023-03-09T13:51:18.820249,1978179,259,30,1658,-1037,-578,-325,169,129,-103
0,2023-03-09T13:51:18.825463,1978183,259,30,1658,-1037,-578,-325,169,129,-103
0,2023-03-09T13:51:18.829827,1978188,259,30,1658,-1037,-578,-325,169,129,-103
0,2023-03-09T13:51:18.834133,1978192,259,30,1658,-1037,-578,-325,169,129,-103
0,2023-03-09T13:51:18.838675,1978196,261,31,1660,-1050,-573,-319,169,129,-103
0,2023-03-09T13:51:18.843865,1978203,261,31,1660,-1050,-573,-319,169,129,-103
0,2023-03-09T13:51:18.848411,1978207,261,31,1660,-1050,-573,-319,169,129,-103
0,2023-03-09T13:51:18.852730,1978211,261,31,1660,-1050,-573,-319,169,129,-103
0,2023-03-09T13:51:18.857865,1978216,260,32,1659,-1042,-570,-325,169,129,-103
0,2023-03-09T13:51:18.862838,1978221,260,32,1659,-1042,-570,-325,169,129,-103
0,2023-03-09T13:51:18.867512,1978226,260,32,1659,-1042,-570,-325,169,129,-103
0,2023-03-09T13:51:18.872374,1978230,260,32,1659,-1042,-570,-325,169,129,-103
0,2023-03-09T13:51:18.877599,1978236,259,31,1663,-1041,-566,-322,169,129,-103
0,2023-03-09T13:51:18.882457,1978241,259,31,1663,-1041,-566,-322,169,129,-103
0,2023-03-09T13:51:18.887057,1978246,259,31,1663,-1041,-566,-322,169,129,-103
0,2023-03-09T13:51:18.891700,1978250,259,31,1663,-1041,-566,-322,169,129,-103
0,2023-03-09T13:51:18.896335,1978255,260,33,1661,-1046,-570,-318,169,129,-103
0,2023-03-09T13:51:18.901382,1978260,260,33,1661,-1046,-570,-318,169,129,-103
0,2023-03-09T13:51:18.906228,1978264,260,33,1661,-1046,-570,-318,169,129,-103
0,2023-03-09T13:51:18.910613,1978269,260,33,1661,-1046,-570,-318,169,129,-103
0,2023-03-09T13:51:18.915061,1978273,262,30,1667,-1037,-576,-322,163,129,-103
0,2023-03-09T13:51:18.920372,1978278,262,30,1667,-1037,-576,-322,163,131,-103
0,2023-03-09T13:51:18.924946,1978284,262,30,1667,-1037,-576,-322,163,131,-103
0,2023-03-09T13:51:18.929601,1978288,262,30,1667,-1037,-576,-322,163,131,-103
0,2023-03-09T13:51:18.934090,1978293,262,30,1667,-1037,-576,-322,163,131,-103
0,2023-03-09T13:51:18.938474,1978297,261,32,1668,-1036,-576,-321,163,131,-103
0,2023-03-09T13:51:18.943684,1978302,261,32,1668,-1036,-576,-321,163,131,-103
0,2023-03-09T13:51:18.948368,1978306,261,32,1668,-1036,-576,-321,163,131,-103
0,2023-03-09T13:51:18.952925,1978311,261,32,1668,-1036,-576,-321,163,131,-103
0,2023-03-09T13:51:18.957493,1978315,261,34,1659,-1033,-575,-321,163,131,-103
0,2023-03-09T13:51:18.962420,1978320,261,34,1659,-1033,-575,-321,163,131,-103
0,2023-03-09T13:51:18.967306,1978326,261,34,1659,-1033,-575,-321,163,131,-103
0,2023-03-09T13:51:18.971756,1978331,261,34,1659,-1033,-575,-321,163,131,-103
0,2023-03-09T13:51:18.977163,1978336,260,32,1662,-1037,-570,-327,163,131,-103
0,2023-03-09T13:51:18.981488,1978340,260,32,1662,-1037,-570,-327,163,131,-103
0,2023-03-09T13:51:18.986509,1978345,260,32,1662,-1037,-570,-327,163,131,-103
0,2023-03-09T13:51:18.991038,1978349,260,32,1662,-1037,-570,-327,163,131,-103
0,2023-03-09T13:51:18.995479,1978354,258,28,1662,-1039,-571,-329,163,131,-103
0,2023-03-09T13:51:19.000391,1978359,258,28,1662,-1039,-571,-329,163,131,-103
0,2023-03-09T13:51:19.004671,1978363,258,28,1662,-1039,-571,-329,163,131,-103
0,2023-03-09T13:51:19.009400,1978368,258,28,1662,-1039,-571,-329,163,131,-103
0,2023-03-09T13:51:19.013762,1978372,258,28,1662,-1039,-571,-329,163,131,-103
0,2023-03-09T13:51:19.019032,1978377,260,31,1665,-1037,-569,-327,163,131,-103
0,2023-03-09T13:51:19.023408,1978382,260,31,1665,-1037,-569,-327,163,131,-103
0,2023-03-09T13:51:19.027587,1978386,260,31,1665,-1037,-569,-327,163,131,-103
0,2023-03-09T13:51:19.032061,1978390,260,31,1665,-1037,-569,-327,163,131,-103
0,2023-03-09T13:51:19.036421,1978395,261,33,1662,-1047,-572,-327,168,126,-104
0,2023-03-09T13:51:19.041126,1978399,261,33,1662,-1047,-572,-327,168,126,-104
0,2023-03-09T13:51:19.045590,1978404,261,33,1662,-1047,-572,-327,168,126,-104
0,2023-03-09T13:51:19.050117,1978408,261,33,1662,-1047,-572,-327,168,126,-104
0,2023-03-09T13:51:19.054496,1978413,261,33,1662,-1047,-572,-327,168,126,-104
0,2023-03-09T13:51:19.058973,1978418,264,34,1666,-1050,-575,-325,168,126,-104
0,2023-03-09T13:51:19.063333,1978422,264,34,1666,-1050,-575,-325,168,126,-104
0,2023-03-09T13:51:19.067820,1978426,264,34,1666,-1050,-575,-325,168,126,-104
0,2023-03-09T13:51:19.072336,1978431,264,34,1666,-1050,-575,-325,168,126,-104
0,2023-03-09T13:51:19.076636,1978435,262,33,1663,-1032,-571,-329,168,126,-104
0,2023-03-09T13:51:19.081524,1978440,262,33,1663,-1032,-571,-329,168,126,-104
0,2023-03-09T13:51:19.086373,1978444,262,33,1663,-1032,-571,-329,168,126,-104
0,2023-03-09T13:51:19.090870,1978449,262,33,1663,-1032,-571,-329,168,126,-104
0,2023-03-09T13:51:19.095465,1978454,261,31,1661,-1034,-572,-328,168,126,-104
0,2023-03-09T13:51:19.100837,1978460,261,31,1661,-1034,-572,-328,168,126,-104
0,2023-03-09T13:51:19.106002,1978465,261,31,1661,-1034,-572,-328,168,126,-104
0,2023-03-09T13:51:19.110312,1978469,261,31,1661,-1034,-572,-328,168,126,-104
0,2023-03-09T13:51:19.114817,1978473,261,31,1661,-1034,-572,-328,168,126,-104
0,2023-03-09T13:51:19.120060,1978478,260,34,1656,-1037,-572,-324,168,126,-104
0,2023-03-09T13:51:19.124839,1978483,260,34,1656,-1037,-572,-324,168,126,-104
0,2023-03-09T13:51:19.129571,1978487,260,34,1656,-1037,-572,-324,168,126,-104
0,2023-03-09T13:51:19.134053,1978492,260,34,1656,-1037,-572,-324,168,126,-104
0,2023-03-09T13:51:19.138499,1978497,260,34,1656,-1037,-572,-324,168,126,-104
0,2023-03-09T13:51:19.142717,1978502,260,34,1656,-1037,-572,-324,168,126,-104
0,2023-03-09T13:51:19.148008,1978506,260,34,1656,-1037,-572,-324,168,126,-104
0,2023-03-09T13:51:19.152593,1978511,260,34,1656,-1037,-572,-324,168,126,-104
0,2023-03-09T13:51:19.157576,1978516,261,31,1665,-1039,-575,-326,168,126,-104
0,2023-03-09T13:51:19.162535,1978521,261,31,1665,-1039,-575,-326,168,126,-104
0,2023-03-09T13:51:19.167659,1978526,261,31,1665,-1039,-575,-326,168,126,-104
0,2023-03-09T13:51:19.172206,1978530,261,31,1665,-1039,-575,-326,168,126,-104
0,2023-03-09T13:51:19.176503,1978534,261,33,1663,-1033,-569,-324,173,131,-103
0,2023-03-09T13:51:19.181455,1978540,261,33,1663,-1033,-569,-324,173,131,-103
0,2023-03-09T13:51:19.186385,1978545,261,33,1663,-1033,-569,-324,173,131,-103
0,2023-03-09T13:51:19.190591,1978549,261,33,1663,-1033,-569,-324,173,131,-103
0,2023-03-09T13:51:19.195050,1978554,261,33,1663,-1033,-569,-324,173,131,-103
0,2023-03-09T13:51:19.199471,1978558,259,32,1665,-1032,-570,-331,173,131,-103
0,2023-03-09T13:51:19.204572,1978563,259,32,1665,-1032,-570,-331,173,131,-103
0,2023-03-09T13:51:19.208990,1978567,259,32,1665,-1032,-570,-331,173,131,-103
0,2023-03-09T13:51:19.213545,1978571,259,32,1665,-1032,-570,-331,173,131,-103
0,2023-03-09T13:51:19.217956,1978576,259,32,1660,-1039,-569,-328,173,131,-103
0,2023-03-09T13:51:19.223059,1978582,259,32,1660,-1039,-569,-328,173,131,-103
0,2023-03-09T13:51:19.228046,1978587,259,32,1660,-1039,-569,-328,173,131,-103
0,2023-03-09T13:51:19.232420,1978591,259,32,1660,-1039,-569,-328,173,131,-103
0,2023-03-09T13:51:19.236662,1978595,262,33,1665,-1033,-579,-325,173,131,-103
0,2023-03-09T13:51:19.241249,1978600,262,33,1665,-1033,-579,-325,173,131,-103
0,2023-03-09T13:51:19.246442,1978605,262,33,1665,-1033,-579,-325,173,131,-103
0,2023-03-09T13:51:19.250962,1978609,262,33,1665,-1033,-579,-325,173,131,-103
0,2023-03-09T13:51:19.255751,1978614,261,30,1661,-1039,-583,-328,173,131,-103
0,2023-03-09T13:51:19.260760,1978619,261,30,1661,-1039,-583,-328,173,131,-103
0,2023-03-09T13:51:19.265784,1978625,261,30,1661,-1039,-583,-328,173,131,-103
0,2023-03-09T13:51:19.270179,1978629,261,30,1661,-1039,-583,-328,173,131,-103
0,2023-03-09T13:51:19.274867,1978633,261,30,1661,-1039,-583,-328,173,131,-103
0,2023-03-09T13:51:19.279583,1978638,262,31,1662,-1032,-578,-326,173,131,-103
0,2023-03-09T13:51:19.284402,1978643,262,31,1662,-1032,-578,-326,173,131,-103
0,2023-03-09T13:51:19.288811,1978647,262,31,1662,-1032,-578,-326,173,131,-103
0,2023-03-09T13:51:19.293206,1978651,262,31,1662,-1032,-578,-326,173,131,-103
0,2023-03-09T13:51:19.297548,1978656,262,31,1668,-1033,-574,-329,169,129,-97
0,2023-03-09T13:51:19.302745,1978661,262,31,1668,-1033,-574,-329,169,129,-97
0,2023-03-09T13:51:19.308118,1978667,262,31,1668,-1033,-574,-329,169,129,-97
0,2023-03-09T13:51:19.312723,1978671,262,31,1668,-1033,-574,-329,169,129,-97
0,2023-03-09T13:51:19.317348,1978676,261,34,1665,-1030,-575,-330,169,129,-97
0,2023-03-09T13:51:19.322547,1978681,261,34,1665,-1030,-575,-330,169,129,-97
0,2023-03-09T13:51:19.327957,1978686,261,34,1665,-1030,-575,-330,169,129,-97
0,2023-03-09T13:51:19.332574,1978691,261,34,1665,-1030,-575,-330,169,129,-97
0,2023-03-09T13:51:19.336891,1978695,259,31,1670,-1033,-576,-325,169,129,-97
0,2023-03-09T13:51:19.341954,1978700,259,31,1670,-1033,-576,-325,169,129,-97
0,2023-03-09T13:51:19.346962,1978705,259,31,1670,-1033,-576,-325,169,129,-97
0,2023-03-09T13:51:19.351373,1978710,259,31,1670,-1033,-576,-325,169,129,-97
0,2023-03-09T13:51:19.355674,1978715,260,33,1668,-1041,-571,-324,169,129,-97
0,2023-03-09T13:51:19.360474,1978719,260,33,1668,-1041,-571,-324,169,129,-97
0,2023-03-09T13:51:19.365774,1978724,260,33,1668,-1041,-571,-324,169,129,-97
0,2023-03-09T13:51:19.370152,1978729,260,33,1668,-1041,-571,-324,169,129,-97
0,2023-03-09T13:51:19.374580,1978733,260,33,1668,-1041,-571,-324,169,129,-97
0,2023-03-09T13:51:19.379045,1978737,260,32,1665,-1042,-569,-319,169,129,-97
0,2023-03-09T13:51:19.384553,1978743,260,32,1665,-1042,-569,-319,169,129,-97
0,2023-03-09T13:51:19.388810,1978747,260,32,1665,-1042,-569,-319,169,129,-97
0,2023-03-09T13:51:19.393235,1978752,260,32,1665,-1042,-569,-319,169,129,-97
0,2023-03-09T13:51:19.398044,1978757,261,32,1660,-1037,-577,-319,169,129,-97
0,2023-03-09T13:51:19.402949,1978762,261,32,1660,-1037,-577,-319,169,129,-97
0,2023-03-09T13:51:19.407483,1978766,261,32,1660,-1037,-577,-319,169,129,-97
0,2023-03-09T13:51:19.411821,1978770,261,32,1660,-1037,-577,-319,169,129,-97
0,2023-03-09T13:51:19.416523,1978775,261,31,1663,-1037,-573,-316,169,129,-97
0,2023-03-09T13:51:19.421885,1978780,261,31,1663,-1037,-573,-316,169,129,-97
0,2023-03-09T13:51:19.426663,1978785,261,31,1663,-1037,-573,-316,169,129,-97
0,2023-03-09T13:51:19.431229,1978789,261,31,1663,-1037,-573,-316,169,129,-97
0,2023-03-09T13:51:19.435926,1978795,262,31,1674,-1044,-572,-323,172,130,-100
0,2023-03-09T13:51:19.440874,1978800,262,31,1674,-1044,-572,-323,172,130,-100
0,2023-03-09T13:51:19.445785,1978805,262,31,1674,-1044,-572,-323,172,130,-100
0,2023-03-09T13:51:19.450247,1978809,262,31,1674,-1044,-572,-323,172,130,-100
0,2023-03-09T13:51:19.454674,1978813,262,31,1674,-1044,-572,-323,172,130,-100
0,2023-03-09T13:51:19.459079,1978818,262,32,1664,-1037,-570,-329,172,130,-100
0,2023-03-09T13:51:19.464441,1978822,262,32,1664,-1037,-570,-329,172,130,-100
0,2023-03-09T13:51:19.468917,1978827,262,32,1664,-1037,-570,-329,172,130,-100
0,2023-03-09T13:51:19.473655,1978831,262,32,1664,-1037,-570,-329,172,130,-100
0,2023-03-09T13:51:19.478058,1978836,260,29,1666,-1042,-581,-326,172,130,-100
0,2023-03-09T13:51:19.482964,1978842,260,29,1666,-1042,-581,-326,172,130,-100
0,2023-03-09T13:51:19.487824,1978846,260,29,1666,-1042,-581,-326,172,130,-100
0,2023-03-09T13:51:19.492123,1978851,260,29,1666,-1042,-581,-326,172,130,-100
0,2023-03-09T13:51:19.496660,1978855,264,31,1664,-1044,-575,-324,172,130,-100
0,2023-03-09T13:51:19.501859,1978860,264,31,1664,-1044,-575,-324,172,130,-100
0,2023-03-09T13:51:19.506958,1978865,264,31,1664,-1044,-575,-324,172,130,-100
0,2023-03-09T13:51:19.511868,1978870,264,31,1664,-1044,-575,-324,172,130,-100
0,2023-03-09T13:51:19.516492,1978874,257,32,1660,-1039,-576,-326,172,130,-100
0,2023-03-09T13:51:19.521384,1978880,257,32,1660,-1039,-576,-326,172,130,-100
0,2023-03-09T13:51:19.525910,1978885,257,32,1660,-1039,-576,-326,172,130,-100
0,2023-03-09T13:51:19.530361,1978889,257,32,1660,-1039,-576,-326,172,130,-100
0,2023-03-09T13:51:19.534749,1978893,257,32,1660,-1039,-576,-326,172,130,-100
0,2023-03-09T13:51:19.539142,1978898,259,33,1663,-1040,-579,-322,172,130,-100
0,2023-03-09T13:51:19.543529,1978902,259,33,1663,-1040,-579,-322,172,130,-100
0,2023-03-09T13:51:19.547772,1978906,259,33,1663,-1040,-579,-322,172,130,-100
0,2023-03-09T13:51:19.552427,1978910,259,33,1663,-1040,-579,-322,172,130,-100
0,2023-03-09T13:51:19.556897,1978915,258,32,1665,-1041,-577,-322,169,123,-111
0,2023-03-09T13:51:19.562119,1978920,258,32,1665,-1041,-577,-322,169,123,-111
0,2023-03-09T13:51:19.566687,1978925,258,32,1665,-1041,-577,-322,169,123,-111
0,2023-03-09T13:51:19.571007,1978930,258,32,1665,-1041,-577,-322,169,123,-111
0,2023-03-09T13:51:19.575309,1978934,258,32,1665,-1041,-577,-322,169,123,-111
0,2023-03-09T13:51:19.580588,1978939,264,32,1655,-1040,-577,-321,169,123,-111
0,2023-03-09T13:51:19.585940,1978944,264,32,1655,-1040,-577,-321,169,123,-111
0,2023-03-09T13:51:19.590490,1978949,264,32,1655,-1040,-577,-321,169,123,-111
0,2023-03-09T13:51:19.594959,1978953,264,32,1655,-1040,-577,-321,169,123,-111
0,2023-03-09T13:51:19.599405,1978958,260,28,1663,-1040,-581,-322,169,123,-111
0,2023-03-09T13:51:19.605042,1978963,260,28,1663,-1040,-581,-322,169,123,-111
0,2023-03-09T13:51:19.609637,1978968,260,28,1663,-1040,-581,-322,169,123,-111
0,2023-03-09T13:51:19.613860,1978973,260,28,1663,-1040,-581,-322,169,123,-111
0,2023-03-09T13:51:19.618487,1978977,261,29,1656,-1048,-580,-320,169,123,-111
0,2023-03-09T13:51:19.623434,1978982,261,29,1656,-1048,-580,-320,169,123,-111
0,2023-03-09T13:51:19.628394,1978987,261,29,1656,-1048,-580,-320,169,123,-111
0,2023-03-09T13:51:19.632816,1978991,261,29,1656,-1048,-580,-320,169,123,-111
0,2023-03-09T13:51:19.637503,1978995,263,31,1659,-1044,-569,-319,169,123,-111
0,2023-03-09T13:51:19.642265,1979000,263,31,1659,-1044,-569,-319,169,123,-111
0,2023-03-09T13:51:19.647308,1979005,263,31,1659,-1044,-569,-319,169,123,-111
0,2023-03-09T13:51:19.652043,1979011,263,31,1659,-1044,-569,-319,169,123,-111
0,2023-03-09T13:51:19.656371,1979015,259,31,1665,-1037,-575,-322,169,123,-111
0,2023-03-09T13:51:19.661524,1979020,259,31,1665,-1037,-575,-322,169,123,-111
0,2023-03-09T13:51:19.666538,1979025,259,31,1665,-1037,-575,-322,169,123,-111
0,2023-03-09T13:51:19.671196,1979030,259,31,1665,-1037,-575,-322,169,123,-111
0,2023-03-09T13:51:19.675624,1979034,259,31,1665,-1037,-575,-322,169,123,-111
0,2023-03-09T13:51:19.680102,1979038,262,30,1663,-1031,-572,-329,165,127,-107
0,2023-03-09T13:51:19.684513,1979043,262,30,1663,-1031,-572,-329,165,127,-107
0,2023-03-09T13:51:19.688966,1979047,262,30,1663,-1031,-572,-329,165,127,-107
0,2023-03-09T13:51:19.693443,1979052,262,30,1663,-1031,-572,-329,165,127,-107
0,2023-03-09T13:51:19.697817,1979057,261,31,1666,-1043,-570,-321,165,127,-107
0,2023-03-09T13:51:19.702857,1979061,261,31,1666,-1043,-570,-321,165,127,-107
0,2023-03-09T13:51:19.707278,1979066,261,31,1666,-1043,-570,-321,165,127,-107
0,2023-03-09T13:51:19.711733,1979070,261,31,1666,-1043,-570,-321,165,127,-107
0,2023-03-09T13:51:19.716178,1979074,259,33,1663,-1039,-575,-322,165,127,-107
0,2023-03-09T13:51:19.721097,1979079,259,33,1663,-1039,-575,-322,165,127,-107
0,2023-03-09T13:51:19.726182,1979084,259,33,1663,-1039,-575,-322,165,127,-107
0,2023-03-09T13:51:19.730708,1979089,259,33,1663,-1039,-575,-322,165,127,-107
0,2023-03-09T13:51:19.735537,1979094,259,33,1663,-1039,-575,-322,165,127,-107
0,2023-03-09T13:51:19.740100,1979099,263,33,1663,-1047,-569,-325,165,127,-107
0,2023-03-09T13:51:19.745300,1979104,263,33,1663,-1047,-569,-325,165,127,-107
0,2023-03-09T13:51:19.749781,1979108,263,33,1663,-1047,-569,-325,165,127,-107
0,2023-03-09T13:51:19.754370,1979113,263,33,1663,-1047,-569,-325,165,127,-107
0,2023-03-09T13:51:19.758859,1979117,261,32,1658,-1042,-571,-325,165,127,-107
0,2023-03-09T13:51:19.764332,1979122,261,32,1658,-1042,-571,-325,165,127,-107
0,2023-03-09T13:51:19.769010,1979127,261,32,1658,-1042,-571,-325,165,127,-107
0,2023-03-09T13:51:19.773533,1979131,261,32,1658,-1042,-571,-325,165,127,-107
0,2023-03-09T13:51:19.777856,1979137,257,32,1658,-1044,-573,-331,165,127,-107
0,2023-03-09T13:51:19.782344,1979141,257,32,1658,-1044,-573,-331,165,127,-107
0,2023-03-09T13:51:19.786860,1979145,257,32,1658,-1044,-573,-331,165,127,-107
0,2023-03-09T13:51:19.791394,1979150,257,32,1658,-1044,-573,-331,165,127,-107
0,2023-03-09T13:51:19.795827,1979154,257,32,1658,-1044,-573,-331,165,127,-107
0,2023-03-09T13:51:19.800190,1979159,259,31,1667,-1044,-568,-324,165,127,-107
0,2023-03-09T13:51:19.805393,1979164,259,31,1667,-1044,-568,-324,165,127,-107
0,2023-03-09T13:51:19.810131,1979168,259,31,1667,-1044,-568,-324,165,127,-107
0,2023-03-09T13:51:19.814814,1979173,259,31,1667,-1044,-568,-324,165,127,-107
0,2023-03-09T13:51:19.819255,1979177,260,30,1669,-1043,-575,-326,173,119,-103
0,2023-03-09T13:51:19.823618,1979182,260,30,1669,-1043,-575,-326,173,119,-103
0,2023-03-09T13:51:19.828024,1979187,260,30,1669,-1043,-575,-326,173,119,-103
0,2023-03-09T13:51:19.832822,1979191,260,30,1669,-1043,-575,-326,173,119,-103
0,2023-03-09T13:51:19.837335,1979196,263,30,1659,-1038,-574,-325,173,119,-103
0,2023-03-09T13:51:19.842256,1979201,263,30,1659,-1038,-574,-325,173,119,-103
0,2023-03-09T13:51:19.847299,1979206,263,30,1659,-1038,-574,-325,173,119,-103
0,2023-03-09T13:51:19.851792,1979210,263,30,1659,-1038,-574,-325,173,119,-103
0,2023-03-09T13:51:19.856095,1979214,263,32,1662,-1043,-577,-324,173,119,-103
0,2023-03-09T13:51:19.861416,1979219,263,32,1662,-1043,-577,-324,173,119,-103
0,2023-03-09T13:51:19.866325,1979225,263,32,1662,-1043,-577,-324,173,119,-103
0,2023-03-09T13:51:19.870831,1979230,263,32,1662,-1043,-577,-324,173,119,-103
0,2023-03-09T13:51:19.875549,1979234,263,32,1662,-1043,-577,-324,173,119,-103
0,2023-03-09T13:51:19.880103,1979239,261,31,1661,-1040,-573,-325,173,119,-103
0,2023-03-09T13:51:19.885399,1979244,261,31,1661,-1040,-573,-325,173,119,-103
0,2023-03-09T13:51:19.890035,1979248,261,31,1661,-1040,-573,-325,173,119,-103
0,2023-03-09T13:51:19.894420,1979253,261,31,1661,-1040,-573,-325,173,119,-103
0,2023-03-09T13:51:19.898651,1979257,261,31,1661,-1040,-573,-325,173,119,-103
0,2023-03-09T13:51:19.903161,1979261,261,31,1661,-1040,-573,-325,173,119,-103
0,2023-03-09T13:51:19.908740,1979267,261,31,1661,-1040,-573,-325,173,119,-103
0,2023-03-09T13:51:19.913035,1979272,261,31,1661,-1040,-573,-325,173,119,-103
0,2023-03-09T13:51:19.917548,1979276,262,29,1663,-1038,-579,-327,173,119,-103
0,2023-03-09T13:51:19.922394,1979281,262,29,1663,-1038,-579,-327,173,119,-103
0,2023-03-09T13:51:19.927403,1979286,262,29,1663,-1038,-579,-327,173,119,-103
0,2023-03-09T13:51:19.931982,1979290,262,29,1663,-1038,-579,-327,173,119,-103
0,2023-03-09T13:51:19.936414,1979295,263,35,1664,-1036,-572,-319,167,127,-103
0,2023-03-09T13:51:19.941888,1979300,263,35,1664,-1036,-572,-319,167,127,-103
0,2023-03-09T13:51:19.946563,1979304,263,35,1664,-1036,-572,-319,167,127,-103
0,2023-03-09T13:51:19.950894,1979310,263,35,1664,-1036,-572,-319,167,127,-103
0,2023-03-09T13:51:19.955495,1979314,263,35,1664,-1036,-572,-319,167,127,-103
0,2023-03-09T13:51:19.960289,1979319,263,31,1666,-1034,-572,-324,167,127,-103
0,2023-03-09T13:51:19.965201,1979324,263,31,1666,-1034,-572,-324,167,127,-103
0,2023-03-09T13:51:19.969734,1979328,263,31,1666,-1034,-572,-324,167,127,-103
0,2023-03-09T13:51:19.974379,1979333,263,31,1666,-1034,-572,-324,167,127,-103
0,2023-03-09T13:51:19.979334,1979337,261,33,1664,-1026,-573,-320,167,127,-103
0,2023-03-09T13:51:19.984615,1979343,261,33,1664,-1026,-573,-320,167,127,-103
0,2023-03-09T13:51:19.989181,1979347,261,33,1664,-1026,-573,-320,167,127,-103
0,2023-03-09T13:51:19.993743,1979353,261,33,1664,-1026,-573,-320,167,127,-103
0,2023-03-09T13:51:19.998333,1979357,261,34,1662,-1043,-571,-322,167,127,-103
0,2023-03-09T13:51:20.003509,1979362,261,34,1662,-1043,-571,-322,167,127,-103
0,2023-03-09T13:51:20.008576,1979367,261,34,1662,-1043,-571,-322,167,127,-103
0,2023-03-09T13:51:20.012945,1979371,261,34,1662,-1043,-571,-322,167,127,-103
0,2023-03-09T13:51:20.017261,1979376,260,34,1658,-1049,-576,-319,167,127,-103
0,2023-03-09T13:51:20.022100,1979380,260,34,1658,-1049,-576,-319,167,127,-103
0,2023-03-09T13:51:20.027201,1979385,260,34,1658,-1049,-576,-319,167,127,-103
0,2023-03-09T13:51:20.031815,1979390,260,34,1658,-1049,-576,-319,167,127,-103
0,2023-03-09T13:51:20.036370,1979395,261,34,1663,-1041,-570,-326,167,127,-103
0,2023-03-09T13:51:20.041835,1979401,261,34,1663,-1041,-570,-326,167,127,-103
0,2023-03-09T13:51:20.046158,1979405,261,34,1663,-1041,-570,-326,167,127,-103
0,2023-03-09T13:51:20.050324,1979409,261,34,1663,-1041,-570,-326,167,127,-103
0,2023-03-09T13:51:20.054687,1979413,261,34,1663,-1041,-570,-326,167,127,-103
0,2023-03-09T13:51:20.058886,1979417,260,32,1670,-1044,-579,-325,167,127,-103
0,2023-03-09T13:51:20.064434,1979423,260,32,1670,-1044,-579,-325,167,127,-103
0,2023-03-09T13:51:20.068813,1979427,260,32,1670,-1044,-579,-325,167,127,-103
0,2023-03-09T13:51:20.073431,1979431,260,32,1670,-1044,-579,-325,167,127,-103
0,2023-03-09T13:51:20.077864,1979437,260,32,1670,-1044,-579,-325,164,124,-100
0,2023-03-09T13:51:20.082397,1979441,260,32,1670,-1044,-579,-325,164,124,-100
0,2023-03-09T13:51:20.086738,1979445,260,32,1670,-1044,-579,-325,164,124,-100
0,2023-03-09T13:51:20.091330,1979450,260,32,1670,-1044,-579,-325,164,124,-100
0,2023-03-09T13:51:20.095714,1979454,260,32,1670,-1044,-579,-325,164,124,-100
0,2023-03-09T13:51:20.100082,1979458,262,31,1668,-1038,-569,-317,164,124,-100
0,2023-03-09T13:51:20.105408,1979464,262,31,1668,-1038,-569,-317,164,124,-100
0,2023-03-09T13:51:20.110034,1979468,262,31,1668,-1038,-569,-317,164,124,-100
0,2023-03-09T13:51:20.114616,1979473,262,31,1668,-1038,-569,-317,164,124,-100
0,2023-03-09T13:51:20.119034,1979478,260,30,1663,-1042,-569,-315,164,124,-100
0,2023-03-09T13:51:20.123614,1979482,260,30,1663,-1042,-569,-315,164,124,-100
0,2023-03-09T13:51:20.128029,1979487,260,30,1663,-1042,-569,-315,164,124,-100
0,2023-03-09T13:51:20.132558,1979491,260,30,1663,-1042,-569,-315,164,124,-100
0,2023-03-09T13:51:20.137046,1979495,262,32,1660,-1041,-573,-321,164,124,-100
0,2023-03-09T13:51:20.142007,1979500,262,32,1660,-1041,-573,-321,164,124,-100
0,2023-03-09T13:51:20.146930,1979505,262,32,1660,-1041,-573,-321,164,124,-100
0,2023-03-09T13:51:20.151367,1979510,262,32,1660,-1041,-573,-321,164,124,-100
0,2023-03-09T13:51:20.155624,1979514,262,32,1660,-1041,-573,-321,164,124,-100
0,2023-03-09T13:51:20.160124,1979518,262,33,1663,-1039,-570,-323,164,124,-100
0,2023-03-09T13:51:20.165458,1979524,262,33,1663,-1039,-570,-323,164,124,-100
0,2023-03-09T13:51:20.170078,1979529,262,33,1663,-1039,-570,-323,164,124,-100
0,2023-03-09T13:51:20.174429,1979533,262,33,1663,-1039,-570,-323,164,124,-100
0,2023-03-09T13:51:20.179070,1979537,261,33,1656,-1037,-568,-323,164,124,-100
0,2023-03-09T13:51:20.183678,1979542,261,33,1656,-1037,-568,-323,164,124,-100
0,2023-03-09T13:51:20.188223,1979546,261,33,1656,-1037,-568,-323,164,124,-100
0,2023-03-09T13:51:20.192611,1979551,261,33,1656,-1037,-568,-323,164,124,-100
0,2023-03-09T13:51:20.196996,1979555,259,32,1666,-1034,-569,-326,176,124,-104
0,2023-03-09T13:51:20.201637,1979560,259,32,1666,-1034,-569,-326,176,124,-104
0,2023-03-09T13:51:20.206775,1979566,259,32,1666,-1034,-569,-326,176,124,-104
0,2023-03-09T13:51:20.211252,1979570,259,32,1666,-1034,-569,-326,176,124,-104
0,2023-03-09T13:51:20.215581,1979574,259,32,1666,-1034,-569,-326,176,124,-104
0,2023-03-09T13:51:20.220615,1979579,260,29,1660,-1037,-580,-324,176,124,-104
0,2023-03-09T13:51:20.225805,1979584,260,29,1660,-1037,-580,-324,176,124,-104
0,2023-03-09T13:51:20.230370,1979589,260,29,1660,-1037,-580,-324,176,124,-104
0,2023-03-09T13:51:20.234845,1979593,260,29,1660,-1037,-580,-324,176,124,-104
0,2023-03-09T13:51:20.239190,1979597,260,33,1657,-1035,-576,-327,176,124,-104
0,2023-03-09T13:51:20.244478,1979602,260,33,1657,-1035,-576,-327,176,124,-104
0,2023-03-09T13:51:20.248899,1979608,260,33,1657,-1035,-576,-327,176,124,-104
0,2023-03-09T13:51:20.253305,1979612,260,33,1657,-1035,-576,-327,176,124,-104
0,2023-03-09T13:51:20.257769,1979616,258,33,1662,-1045,-566,-330,176,124,-104
0,2023-03-09T13:51:20.262431,1979621,258,33,1662,-1045,-566,-330,176,124,-104
0,2023-03-09T13:51:20.267351,1979626,258,33,1662,-1045,-566,-330,176,124,-104
0,2023-03-09T13:51:20.271701,1979630,258,33,1662,-1045,-566,-330,176,124,-104
0,2023-03-09T13:51:20.276155,1979634,258,33,1662,-1045,-566,-330,176,124,-104
0,2023-03-09T13:51:20.280692,1979639,258,29,1666,-1041,-568,-326,176,124,-104
0,2023-03-09T13:51:20.285185,1979643,258,29,1666,-1041,-568,-326,176,124,-104
0,2023-03-09T13:51:20.289466,1979648,258,29,1666,-1041,-568,-326,176,124,-104
0,2023-03-09T13:51:20.293727,1979653,258,29,1666,-1041,-568,-326,176,124,-104
0,2023-03-09T13:51:20.298151,1979657,263,31,1663,-1037,-568,-323,176,124,-104
0,2023-03-09T13:51:20.303364,1979662,263,31,1663,-1037,-568,-323,176,124,-104
0,2023-03-09T13:51:20.308570,1979667,263,31,1663,-1037,-568,-323,176,124,-104
0,2023-03-09T13:51:20.313062,1979671,263,31,1663,-1037,-568,-323,176,124,-104
0,2023-03-09T13:51:20.317508,1979676,262,33,1667,-1039,-575,-323,176,124,-104
0,2023-03-09T13:51:20.322550,1979680,262,33,1667,-1039,-575,-323,176,124,-104
0,2023-03-09T13:51:20.327783,1979686,262,33,1667,-1039,-575,-323,176,124,-104
0,2023-03-09T13:51:20.332278,1979691,262,33,1667,-1039,-575,-323,176,124,-104
0,2023-03-09T13:51:20.336672,1979695,258,33,1664,-1046,-573,-328,176,124,-104
0,2023-03-09T13:51:20.341778,1979700,258,33,1664,-1046,-573,-328,173,127,-103
0,2023-03-09T13:51:20.346621,1979705,258,33,1664,-1046,-573,-328,173,127,-103
0,2023-03-09T13:51:20.351098,1979710,258,33,1664,-1046,-573,-328,173,127,-103
0,2023-03-09T13:51:20.355716,1979714,258,33,1664,-1046,-573,-328,173,127,-103
0,2023-03-09T13:51:20.360276,1979719,258,32,1663,-1045,-569,-327,173,127,-103
0,2023-03-09T13:51:20.365417,1979723,258,32,1663,-1045,-569,-327,173,127,-103
0,2023-03-09T13:51:20.369769,1979728,258,32,1663,-1045,-569,-327,173,127,-103
0,2023-03-09T13:51:20.374760,1979732,258,32,1663,-1045,-569,-327,173,127,-103
0,2023-03-09T13:51:20.379412,1979738,262,33,1667,-1050,-569,-324,173,127,-103
0,2023-03-09T13:51:20.384877,1979744,262,33,1667,-1050,-569,-324,173,127,-103
0,2023-03-09T13:51:20.389468,1979748,262,33,1667,-1050,-569,-324,173,127,-103
0,2023-03-09T13:51:20.393878,1979752,262,33,1667,-1050,-569,-324,173,127,-103
0,2023-03-09T13:51:20.398346,1979757,260,31,1666,-1041,-570,-328,173,127,-103
0,2023-03-09T13:51:20.403140,1979761,260,31,1666,-1041,-570,-328,173,127,-103
0,2023-03-09T13:51:20.408234,1979766,260,31,1666,-1041,-570,-328,173,127,-103
0,2023-03-09T13:51:20.412567,1979771,260,31,1666,-1041,-570,-328,173,127,-103
0,2023-03-09T13:51:20.417061,1979776,259,33,1666,-1041,-573,-324,173,127,-103
0,2023-03-09T13:51:20.421818,1979781,259,33,1666,-1041,-573,-324,173,127,-103
0,2023-03-09T13:51:20.426688,1979785,259,33,1666,-1041,-573,-324,173,127,-103
0,2023-03-09T13:51:20.431822,1979790,259,33,1666,-1041,-573,-324,173,127,-103
0,2023-03-09T13:51:20.436488,1979795,259,33,1666,-1041,-573,-324,173,127,-103
0,2023-03-09T13:51:20.441115,1979799,259,33,1666,-1041,-573,-324,173,127,-103
0,2023-03-09T13:51:20.445641,1979804,259,33,1666,-1041,-573,-324,173,127,-103
0,2023-03-09T13:51:20.450053,1979808,259,33,1666,-1041,-573,-324,173,127,-103
0,2023-03-09T13:51:20.454157,1979812,259,33,1666,-1041,-573,-324,173,127,-103
0,2023-03-09T13:51:20.458674,1979817,260,32,1668,-1034,-572,-338,160,126,-108
0,2023-03-09T13:51:20.463891,1979823,260,32,1668,-1034,-572,-338,160,126,-108
0,2023-03-09T13:51:20.468708,1979827,260,32,1668,-1034,-572,-338,160,126,-108
0,2023-03-09T13:51:20.473082,1979832,260,32,1668,-1034,-572,-338,160,126,-108
0,2023-03-09T13:51:20.477477,1979836,260,31,1666,-1037,-578,-320,160,126,-108
0,2023-03-09T13:51:20.482332,1979841,260,31,1666,-1037,-578,-320,160,126,-108
0,2023-03-09T13:51:20.487197,1979845,260,31,1666,-1037,-578,-320,160,126,-108
0,2023-03-09T13:51:20.491723,1979850,260,31,1666,-1037,-578,-320,160,126,-108
0,2023-03-09T13:51:20.496160,1979854,260,31,1666,-1037,-578,-320,160,126,-108
0,2023-03-09T13:51:20.500784,1979859,260,30,1660,-1040,-577,-322,160,126,-108
0,2023-03-09T13:51:20.505946,1979865,260,30,1660,-1040,-577,-322,160,126,-108
0,2023-03-09T13:51:20.510481,1979869,260,30,1660,-1040,-577,-322,160,126,-108
0,2023-03-09T13:51:20.514976,1979873,260,30,1660,-1040,-577,-322,160,126,-108
0,2023-03-09T13:51:20.519189,1979878,260,32,1657,-1053,-581,-322,160,126,-108
0,2023-03-09T13:51:20.524672,1979883,260,32,1657,-1053,-581,-322,160,126,-108
0,2023-03-09T13:51:20.529082,1979887,260,32,1657,-1053,-581,-322,160,126,-108
0,2023-03-09T13:51:20.533592,1979892,260,32,1657,-1053,-581,-322,160,126,-108
0,2023-03-09T13:51:20.538060,1979896,259,33,1663,-1045,-573,-325,160,126,-108
0,2023-03-09T13:51:20.543050,1979901,259,33,1663,-1045,-573,-325,160,126,-108
0,2023-03-09T13:51:20.547887,1979907,259,33,1663,-1045,-573,-325,160,126,-108
0,2023-03-09T13:51:20.552478,1979911,259,33,1663,-1045,-573,-325,160,126,-108
0,2023-03-09T13:51:20.556720,1979915,259,33,1663,-1045,-573,-325,160,126,-108
0,2023-03-09T13:51:20.561141,1979920,258,32,1664,-1039,-567,-318,160,126,-108
0,2023-03-09T13:51:20.565659,1979924,258,32,1664,-1039,-567,-318,160,126,-108
0,2023-03-09T13:51:20.570082,1979928,258,32,1664,-1039,-567,-318,160,126,-108
0,2023-03-09T13:51:20.574481,1979933,258,32,1664,-1039,-567,-318,160,126,-108
0,2023-03-09T13:51:20.579045,1979937,262,29,1667,-1041,-578,-326,164,134,-104
0,2023-03-09T13:51:20.583940,1979942,262,29,1667,-1041,-578,-326,164,134,-104
0,2023-03-09T13:51:20.588744,1979948,262,29,1667,-1041,-578,-326,164,134,-104
0,2023-03-09T13:51:20.593160,1979952,262,29,1667,-1041,-578,-326,164,134,-104
0,2023-03-09T13:51:20.597597,1979956,259,34,1665,-1041,-577,-323,164,134,-104
0,2023-03-09T13:51:20.603179,1979962,259,34,1665,-1041,-577,-323,164,134,-104
0,2023-03-09T13:51:20.607589,1979966,259,34,1665,-1041,-577,-323,164,134,-104
0,2023-03-09T13:51:20.612550,1979971,259,34,1665,-1041,-577,-323,164,134,-104
0,2023-03-09T13:51:20.616973,1979975,258,29,1662,-1036,-568,-322,164,134,-104
0,2023-03-09T13:51:20.621336,1979980,258,29,1662,-1036,-568,-322,164,134,-104
0,2023-03-09T13:51:20.626235,1979984,258,29,1662,-1036,-568,-322,164,134,-104
0,2023-03-09T13:51:20.630622,1979990,258,29,1662,-1036,-568,-322,164,134,-104
0,2023-03-09T13:51:20.635128,1979994,258,29,1662,-1036,-568,-322,164,134,-104
0,2023-03-09T13:51:20.639489,1979998,262,29,1665,-1040,-572,-323,164,134,-104
0,2023-03-09T13:51:20.644820,1980003,262,29,1665,-1040,-572,-323,164,134,-104
0,2023-03-09T13:51:20.649197,1980008,262,29,1665,-1040,-572,-323,164,134,-104
0,2023-03-09T13:51:20.653798,1980012,262,29,1665,-1040,-572,-323,164,134,-104
0,2023-03-09T13:51:20.658130,1980016,262,29,1665,-1040,-572,-323,164,134,-104
0,2023-03-09T13:51:20.662585,1980021,262,29,1665,-1040,-572,-323,164,134,-104
0,2023-03-09T13:51:20.667382,1980025,262,29,1665,-1040,-572,-323,164,134,-104
0,2023-03-09T13:51:20.671687,1980030,262,29,1665,-1040,-572,-323,164,134,-104
0,2023-03-09T13:51:20.676291,1980035,262,29,1665,-1040,-572,-323,164,134,-104
0,2023-03-09T13:51:20.680752,1980040,264,31,1660,-1035,-575,-318,164,134,-104
0,2023-03-09T13:51:20.685565,1980044,264,31,1660,-1035,-575,-318,164,134,-104
0,2023-03-09T13:51:20.690046,1980049,264,31,1660,-1035,-575,-318,164,134,-104
0,2023-03-09T13:51:20.694425,1980053,264,31,1660,-1035,-575,-318,164,134,-104
0,2023-03-09T13:51:20.699067,1980057,261,29,1660,-1040,-578,-318,164,134,-104
0,2023-03-09T13:51:20.703462,1980062,261,29,1660,-1040,-578,-318,164,134,-104
0,2023-03-09T13:51:20.708323,1980066,261,29,1660,-1040,-578,-318,164,134,-104
0,2023-03-09T13:51:20.712944,1980071,261,29,1660,-1040,-578,-318,164,134,-104
0,2023-03-09T13:51:20.717423,1980076,264,29,1665,-1045,-579,-321,168,122,-106
0,2023-03-09T13:51:20.722534,1980081,264,29,1665,-1045,-579,-321,168,122,-106
0,2023-03-09T13:51:20.727542,1980086,264,29,1665,-1045,-579,-321,168,122,-106
0,2023-03-09T13:51:20.732003,1980090,264,29,1665,-1045,-579,-321,168,122,-106
0,2023-03-09T13:51:20.736449,1980095,264,29,1665,-1045,-579,-321,168,122,-106
0,2023-03-09T13:51:20.740924,1980099,261,31,1671,-1037,-572,-323,168,122,-106
0,2023-03-09T13:51:20.746000,1980104,261,31,1671,-1037,-572,-323,168,122,-106
0,2023-03-09T13:51:20.750639,1980109,261,31,1671,-1037,-572,-323,168,122,-106
0,2023-03-09T13:51:20.755081,1980113,261,31,1671,-1037,-572,-323,168,122,-106
0,2023-03-09T13:51:20.759570,1980118,261,30,1665,-1038,-572,-321,168,122,-106
0,2023-03-09T13:51:20.763975,1980123,261,30,1665,-1038,-572,-321,168,122,-106
0,2023-03-09T13:51:20.768408,1980127,261,30,1665,-1038,-572,-321,168,122,-106
0,2023-03-09T13:51:20.772965,1980132,261,30,1665,-1038,-572,-321,168,122,-106
0,2023-03-09T13:51:20.777316,1980136,261,30,1663,-1027,-568,-324,168,122,-106
0,2023-03-09T13:51:20.782722,1980141,261,30,1663,-1027,-568,-324,168,122,-106
0,2023-03-09T13:51:20.787913,1980146,261,30,1663,-1027,-568,-324,168,122,-106
0,2023-03-09T13:51:20.792459,1980151,261,30,1663,-1027,-568,-324,168,122,-106
0,2023-03-09T13:51:20.796925,1980155,261,30,1663,-1027,-568,-324,168,122,-106
0,2023-03-09T13:51:20.801316,1980160,259,33,1659,-1037,-570,-317,168,122,-106
0,2023-03-09T13:51:20.805993,1980165,259,33,1659,-1037,-570,-317,168,122,-106
0,2023-03-09T13:51:20.810490,1980169,259,33,1659,-1037,-570,-317,168,122,-106
0,2023-03-09T13:51:20.815221,1980174,259,33,1659,-1037,-570,-317,168,122,-106
0,2023-03-09T13:51:20.819652,1980178,261,34,1656,-1040,-572,-324,168,122,-106
0,2023-03-09T13:51:20.825113,1980183,261,34,1656,-1040,-572,-324,168,122,-106
0,2023-03-09T13:51:20.829406,1980188,261,34,1656,-1040,-572,-324,168,122,-106
0,2023-03-09T13:51:20.833829,1980192,261,34,1656,-1040,-572,-324,168,122,-106
0,2023-03-09T13:51:20.838423,1980196,259,32,1663,-1034,-574,-328,166,130,-94
0,2023-03-09T13:51:20.843558,1980203,259,32,1663,-1034,-574,-328,166,130,-94
0,2023-03-09T13:51:20.848158,1980207,259,32,1663,-1034,-574,-328,166,130,-94
0,2023-03-09T13:51:20.852666,1980211,259,32,1663,-1034,-574,-328,166,130,-94
0,2023-03-09T13:51:20.857048,1980216,259,32,1663,-1034,-574,-328,166,130,-94
0,2023-03-09T13:51:20.862174,1980221,260,33,1665,-1042,-573,-327,166,130,-94
0,2023-03-09T13:51:20.867434,1980226,260,33,1665,-1042,-573,-327,166,130,-94
0,2023-03-09T13:51:20.872103,1980230,260,33,1665,-1042,-573,-327,166,130,-94
0,2023-03-09T13:51:20.876814,1980235,260,33,1665,-1042,-573,-327,166,130,-94
0,2023-03-09T13:51:20.881333,1980239,259,31,1662,-1038,-573,-330,166,130,-94
0,2023-03-09T13:51:20.886721,1980246,259,31,1662,-1038,-573,-330,166,130,-94
0,2023-03-09T13:51:20.891197,1980250,259,31,1662,-1038,-573,-330,166,130,-94
0,2023-03-09T13:51:20.895436,1980254,259,31,1662,-1038,-573,-330,166,130,-94
0,2023-03-09T13:51:20.899822,1980259,258,32,1666,-1046,-577,-334,166,130,-94
0,2023-03-09T13:51:20.904171,1980263,258,32,1666,-1046,-577,-334,166,130,-94
0,2023-03-09T13:51:20.908683,1980267,258,32,1666,-1046,-577,-334,166,130,-94
0,2023-03-09T13:51:20.913033,1980271,258,32,1666,-1046,-577,-334,166,130,-94
0,2023-03-09T13:51:20.917374,1980276,264,33,1662,-1045,-576,-326,166,130,-94
0,2023-03-09T13:51:20.921671,1980280,264,33,1662,-1045,-576,-326,166,130,-94
0,2023-03-09T13:51:20.926706,1980285,264,33,1662,-1045,-576,-326,166,130,-94
0,2023-03-09T13:51:20.931318,1980290,264,33,1662,-1045,-576,-326,166,130,-94
0,2023-03-09T13:51:20.935833,1980295,264,33,1662,-1045,-576,-326,166,130,-94
0,2023-03-09T13:51:20.940522,1980299,261,30,1659,-1031,-572,-328,166,130,-94
0,2023-03-09T13:51:20.946078,1980305,261,30,1659,-1031,-572,-328,166,130,-94
0,2023-03-09T13:51:20.950679,1980309,261,30,1659,-1031,-572,-328,166,130,-94
0,2023-03-09T13:51:20.955201,1980314,261,30,1659,-1031,-572,-328,166,130,-94
0,2023-03-09T13:51:20.959711,1980318,259,29,1661,-1033,-577,-328,166,130,-94
0,2023-03-09T13:51:20.964885,1980323,259,29,1661,-1033,-577,-328,166,130,-94
0,2023-03-09T13:51:20.969349,1980327,259,29,1661,-1033,-577,-328,166,130,-94
0,2023-03-09T13:51:20.974144,1980333,259,29,1661,-1033,-577,-328,166,130,-94
0,2023-03-09T13:51:20.978653,1980337,260,31,1670,-1043,-578,-317,169,121,-101
0,2023-03-09T13:51:20.983763,1980342,260,31,1670,-1043,-578,-317,169,121,-101
0,2023-03-09T13:51:20.988876,1980347,260,31,1670,-1043,-578,-317,169,121,-101
0,2023-03-09T13:51:20.993321,1980352,260,31,1670,-1043,-578,-317,169,121,-101
0,2023-03-09T13:51:20.997715,1980356,260,31,1668,-1040,-576,-325,169,121,-101
0,2023-03-09T13:51:21.003080,1980361,260,31,1668,-1040,-576,-325,169,121,-101
0,2023-03-09T13:51:21.007505,1980366,260,31,1668,-1040,-576,-325,169,121,-101
0,2023-03-09T13:51:21.011969,1980370,260,31,1668,-1040,-576,-325,169,121,-101
0,2023-03-09T13:51:21.016416,1980375,260,31,1668,-1040,-576,-325,169,121,-101
0,2023-03-09T13:51:21.021060,1980380,258,33,1664,-1033,-577,-325,169,121,-101
0,2023-03-09T13:51:21.025764,1980384,258,33,1664,-1033,-577,-325,169,121,-101
0,2023-03-09T13:51:21.030509,1980389,258,33,1664,-1033,-577,-325,169,121,-101
0,2023-03-09T13:51:21.034805,1980393,258,33,1664,-1033,-577,-325,169,121,-101
0,2023-03-09T13:51:21.039471,1980398,258,32,1662,-1036,-573,-333,169,121,-101
0,2023-03-09T13:51:21.044603,1980403,258,32,1662,-1036,-573,-333,169,121,-101
0,2023-03-09T13:51:21.049087,1980407,258,32,1662,-1036,-573,-333,169,121,-101
0,2023-03-09T13:51:21.053480,1980412,258,32,1662,-1036,-573,-333,169,121,-101
0,2023-03-09T13:51:21.057960,1980417,262,33,1662,-1047,-579,-330,169,121,-101
0,2023-03-09T13:51:21.063171,1980422,262,33,1662,-1047,-579,-330,169,121,-101
0,2023-03-09T13:51:21.067461,1980426,262,33,1662,-1047,-579,-330,169,121,-101
0,2023-03-09T13:51:21.071868,1980430,262,33,1662,-1047,-579,-330,169,121,-101
0,2023-03-09T13:51:21.076219,1980435,262,33,1662,-1047,-579,-330,169,121,-101
0,2023-03-09T13:51:21.080661,1980439,261,32,1660,-1037,-577,-331,169,121,-101
0,2023-03-09T13:51:21.085742,1980444,261,32,1660,-1037,-577,-331,169,121,-101
0,2023-03-09T13:51:21.090197,1980448,261,32,1660,-1037,-577,-331,169,121,-101
0,2023-03-09T13:51:21.094452,1980452,261,32,1660,-1037,-577,-331,169,121,-101
0,2023-03-09T13:51:21.099032,1980457,262,32,1666,-1038,-573,-328,165,129,-89
0,2023-03-09T13:51:21.104268,1980463,262,32,1666,-1038,-573,-328,165,129,-89
0,2023-03-09T13:51:21.109284,1980468,262,32,1666,-1038,-573,-328,165,129,-89
0,2023-03-09T13:51:21.113660,1980472,262,32,1666,-1038,-573,-328,165,129,-89
0,2023-03-09T13:51:21.117922,1980476,261,29,1663,-1045,-570,-330,165,129,-89
0,2023-03-09T13:51:21.123024,1980481,261,29,1663,-1045,-570,-330,165,129,-89
0,2023-03-09T13:51:21.127412,1980486,261,29,1663,-1045,-570,-330,165,129,-89
0,2023-03-09T13:51:21.131794,1980490,261,29,1663,-1045,-570,-330,165,129,-89
0,2023-03-09T13:51:21.136341,1980494,261,29,1663,-1045,-570,-330,165,129,-89
0,2023-03-09T13:51:21.140649,1980499,262,33,1658,-1038,-572,-323,165,129,-89
0,2023-03-09T13:51:21.145210,1980504,262,33,1658,-1038,-572,-323,165,129,-89
0,2023-03-09T13:51:21.149621,1980508,262,33,1658,-1038,-572,-323,165,129,-89
0,2023-03-09T13:51:21.153965,1980513,262,33,1658,-1038,-572,-323,165,129,-89
0,2023-03-09T13:51:21.158403,1980517,260,32,1664,-1039,-579,-324,165,129,-89
0,2023-03-09T13:51:21.163380,1980522,260,32,1664,-1039,-579,-324,165,129,-89
0,2023-03-09T13:51:21.168397,1980527,260,32,1664,-1039,-579,-324,165,129,-89
0,2023-03-09T13:51:21.173142,1980531,260,32,1664,-1039,-579,-324,165,129,-89
0,2023-03-09T13:51:21.177581,1980536,260,32,1664,-1039,-579,-324,165,129,-89
0,2023-03-09T13:51:21.182017,1980540,261,30,1664,-1031,-578,-319,165,129,-89
0,2023-03-09T13:51:21.187333,1980546,261,30,1664,-1031,-578,-319,165,129,-89
0,2023-03-09T13:51:21.191755,1980551,261,30,1664,-1031,-578,-319,165,129,-89
0,2023-03-09T13:51:21.196296,1980555,261,30,1664,-1031,-578,-319,165,129,-89
0,2023-03-09T13:51:21.201488,1980560,260,33,1665,-1037,-574,-321,165,129,-89
0,2023-03-09T13:51:21.206512,1980565,260,33,1665,-1037,-574,-321,165,129,-89
0,2023-03-09T13:51:21.211050,1980569,260,33,1665,-1037,-574,-321,165,129,-89
0,2023-03-09T13:51:21.215629,1980574,260,33,1665,-1037,-574,-321,165,129,-89
0,2023-03-09T13:51:21.220429,1980579,262,30,1667,-1038,-568,-323,165,129,-89
0,2023-03-09T13:51:21.225683,1980584,262,30,1667,-1038,-568,-323,165,129,-89
0,2023-03-09T13:51:21.230196,1980589,262,30,1667,-1038,-568,-323,165,129,-89
0,2023-03-09T13:51:21.234532,1980593,262,30,1667,-1038,-568,-323,165,129,-89
0,2023-03-09T13:51:21.238963,1980598,261,30,1663,-1042,-563,-318,162,140,-100
0,2023-03-09T13:51:21.243729,1980602,261,30,1663,-1042,-563,-318,162,140,-100
0,2023-03-09T13:51:21.248549,1980607,261,30,1663,-1042,-563,-318,162,140,-100
0,2023-03-09T13:51:21.253151,1980612,261,30,1663,-1042,-563,-318,162,140,-100
0,2023-03-09T13:51:21.257553,1980616,261,30,1663,-1042,-563,-318,162,140,-100
0,2023-03-09T13:51:21.262059,1980620,263,32,1664,-1037,-576,-326,162,140,-100
0,2023-03-09T13:51:21.266970,1980625,263,32,1664,-1037,-576,-326,162,140,-100
0,2023-03-09T13:51:21.271561,1980630,263,32,1664,-1037,-576,-326,162,140,-100
0,2023-03-09T13:51:21.276240,1980635,263,32,1664,-1037,-576,-326,162,140,-100
0,2023-03-09T13:51:21.280602,1980639,264,33,1657,-1029,-574,-327,162,140,-100
0,2023-03-09T13:51:21.285810,1980644,264,33,1657,-1029,-574,-327,162,140,-100
0,2023-03-09T13:51:21.290337,1980649,264,33,1657,-1029,-574,-327,162,140,-100
0,2023-03-09T13:51:21.294744,1980653,264,33,1657,-1029,-574,-327,162,140,-100
0,2023-03-09T13:51:21.299331,1980658,261,32,1656,-1042,-576,-328,162,140,-100
0,2023-03-09T13:51:21.303563,1980662,261,32,1656,-1042,-576,-328,162,140,-100
0,2023-03-09T13:51:21.308117,1980666,261,32,1656,-1042,-576,-328,162,140,-100
0,2023-03-09T13:51:21.312564,1980672,261,32,1656,-1042,-576,-328,162,140,-100
0,2023-03-09T13:51:21.317089,1980676,261,32,1656,-1042,-576,-328,162,140,-100
0,2023-03-09T13:51:21.321876,1980681,261,32,1662,-1037,-576,-335,162,140,-100
0,2023-03-09T13:51:21.326454,1980685,261,32,1662,-1037,-576,-335,162,140,-100
0,2023-03-09T13:51:21.330954,1980689,261,32,1662,-1037,-576,-335,162,140,-100
0,2023-03-09T13:51:21.335482,1980694,261,32,1662,-1037,-576,-335,162,140,-100
0,2023-03-09T13:51:21.339697,1980698,260,27,1664,-1037,-574,-327,162,140,-100
0,2023-03-09T13:51:21.345334,1980704,260,27,1664,-1037,-574,-327,162,140,-100
0,2023-03-09T13:51:21.349921,1980708,260,27,1664,-1037,-574,-327,162,140,-100
0,2023-03-09T13:51:21.354500,1980713,260,27,1664,-1037,-574,-327,162,140,-100
0,2023-03-09T13:51:21.358972,1980718,260,32,1666,-1043,-571,-324,166,126,-100
0,2023-03-09T13:51:21.363815,1980722,260,32,1666,-1043,-571,-324,166,126,-100
0,2023-03-09T13:51:21.368713,1980727,260,32,1666,-1043,-571,-324,166,126,-100
0,2023-03-09T13:51:21.373240,1980732,260,32,1666,-1043,-571,-324,166,126,-100
0,2023-03-09T13:51:21.377625,1980736,260,32,1666,-1043,-571,-324,166,126,-100
0,2023-03-09T13:51:21.381963,1980740,262,30,1667,-1035,-574,-328,166,126,-100
0,2023-03-09T13:51:21.387798,1980746,262,30,1667,-1035,-574,-328,166,126,-100
0,2023-03-09T13:51:21.392358,1980750,262,30,1667,-1035,-574,-328,166,126,-100
0,2023-03-09T13:51:21.396757,1980755,262,30,1667,-1035,-574,-328,166,126,-100
0,2023-03-09T13:51:21.401143,1980760,264,30,1657,-1032,-575,-327,166,126,-100
0,2023-03-09T13:51:21.406310,1980765,264,30,1657,-1032,-575,-327,166,126,-100
0,2023-03-09T13:51:21.410643,1980769,264,30,1657,-1032,-575,-327,166,126,-100
0,2023-03-09T13:51:21.415072,1980774,264,30,1657,-1032,-575,-327,166,126,-100
0,2023-03-09T13:51:21.420007,1980779,263,31,1659,-1031,-581,-329,166,126,-100
0,2023-03-09T13:51:21.425014,1980783,263,31,1659,-1031,-581,-329,166,126,-100
0,2023-03-09T13:51:21.429408,1980787,263,31,1659,-1031,-581,-329,166,126,-100
0,2023-03-09T13:51:21.433873,1980792,263,31,1659,-1031,-581,-329,166,126,-100
0,2023-03-09T13:51:21.438363,1980796,260,31,1663,-1032,-571,-333,166,126,-100
0,2023-03-09T13:51:21.443729,1980803,260,31,1663,-1032,-571,-333,166,126,-100
0,2023-03-09T13:51:21.448706,1980808,260,31,1663,-1032,-571,-333,166,126,-100
0,2023-03-09T13:51:21.453240,1980812,260,31,1663,-1032,-571,-333,166,126,-100
0,2023-03-09T13:51:21.457902,1980816,260,31,1663,-1032,-571,-333,166,126,-100
0,2023-03-09T13:51:21.462462,1980821,262,35,1663,-1034,-574,-334,166,126,-100
0,2023-03-09T13:51:21.467926,1980826,262,35,1663,-1034,-574,-334,166,126,-100
0,2023-03-09T13:51:21.472446,1980831,262,35,1663,-1034,-574,-334,166,126,-100
0,2023-03-09T13:51:21.476708,1980835,262,35,1663,-1034,-574,-334,166,126,-100
0,2023-03-09T13:51:21.481706,1980840,263,35,1661,-1042,-572,-332,166,124,-106
0,2023-03-09T13:51:21.486778,1980845,263,35,1661,-1042,-572,-332,166,124,-106
0,2023-03-09T13:51:21.491204,1980850,263,35,1661,-1042,-572,-332,166,124,-106
0,2023-03-09T13:51:21.495720,1980854,263,35,1661,-1042,-572,-332,166,124,-106
0,2023-03-09T13:51:21.500696,1980859,260,31,1667,-1039,-569,-329,166,124,-106
0,2023-03-09T13:51:21.505958,1980864,260,31,1667,-1039,-569,-329,166,124,-106
0,2023-03-09T13:51:21.510477,1980869,260,31,1667,-1039,-569,-329,166,124,-106
0,2023-03-09T13:51:21.514977,1980873,260,31,1667,-1039,-569,-329,166,124,-106
0,2023-03-09T13:51:21.519439,1980877,261,33,1665,-1027,-579,-326,166,124,-106
0,2023-03-09T13:51:21.524321,1980882,261,33,1665,-1027,-579,-326,166,124,-106
0,2023-03-09T13:51:21.529488,1980888,261,33,1665,-1027,-579,-326,166,124,-106
0,2023-03-09T13:51:21.534030,1980893,261,33,1665,-1027,-579,-326,166,124,-106
0,2023-03-09T13:51:21.538689,1980897,260,31,1663,-1037,-571,-327,166,124,-106
0,2023-03-09T13:51:21.543708,1980902,260,31,1663,-1037,-571,-327,166,124,-106
0,2023-03-09T13:51:21.548495,1980907,260,31,1663,-1037,-571,-327,166,124,-106
0,2023-03-09T13:51:21.553175,1980911,260,31,1663,-1037,-571,-327,166,124,-106
0,2023-03-09T13:51:21.557805,1980916,260,31,1663,-1037,-571,-327,166,124,-106
0,2023-03-09T13:51:21.562239,1980920,260,33,1663,-1048,-573,-332,166,124,-106
0,2023-03-09T13:51:21.567657,1980925,260,33,1663,-1048,-573,-332,166,124,-106
0,2023-03-09T13:51:21.572159,1980931,260,33,1663,-1048,-573,-332,166,124,-106
0,2023-03-09T13:51:21.576619,1980935,260,33,1663,-1048,-573,-332,166,124,-106
0,2023-03-09T13:51:21.581695,1980940,259,30,1666,-1040,-575,-336,166,124,-106
0,2023-03-09T13:51:21.586708,1980945,259,30,1666,-1040,-575,-336,166,124,-106
0,2023-03-09T13:51:21.590961,1980950,259,30,1666,-1040,-575,-336,166,124,-106
0,2023-03-09T13:51:21.595573,1980954,259,30,1666,-1040,-575,-336,166,124,-106
0,2023-03-09T13:51:21.599861,1980958,261,29,1662,-1045,-573,-336,166,124,-106
0,2023-03-09T13:51:21.604632,1980963,261,29,1662,-1045,-573,-336,166,124,-106
0,2023-03-09T13:51:21.609388,1980967,261,29,1662,-1045,-573,-336,166,124,-106
0,2023-03-09T13:51:21.613935,1980973,261,29,1662,-1045,-573,-336,166,124,-106
0,2023-03-09T13:51:21.618287,1980977,260,32,1667,-1038,-578,-325,166,124,-106
0,2023-03-09T13:51:21.623737,1980982,260,32,1667,-1038,-578,-325,174,122,-104
0,2023-03-09T13:51:21.628691,1980987,260,32,1667,-1038,-578,-325,174,122,-104
0,2023-03-09T13:51:21.633326,1980992,260,32,1667,-1038,-578,-325,174,122,-104
0,2023-03-09T13:51:21.637818,1980996,260,32,1667,-1038,-578,-325,174,122,-104
0,2023-03-09T13:51:21.642616,1981000,259,32,1660,-1037,-575,-321,174,122,-104
0,2023-03-09T13:51:21.648108,1981006,259,32,1660,-1037,-575,-321,174,122,-104
0,2023-03-09T13:51:21.652580,1981011,259,32,1660,-1037,-575,-321,174,122,-104
0,2023-03-09T13:51:21.656996,1981016,259,32,1660,-1037,-575,-321,174,122,-104
0,2023-03-09T13:51:21.661681,1981021,257,32,1659,-1041,-569,-321,174,122,-104
0,2023-03-09T13:51:21.667048,1981026,257,32,1659,-1041,-569,-321,174,122,-104
0,2023-03-09T13:51:21.671401,1981030,257,32,1659,-1041,-569,-321,174,122,-104
0,2023-03-09T13:51:21.675871,1981034,257,32,1659,-1041,-569,-321,174,122,-104
0,2023-03-09T13:51:21.680311,1981039,259,33,1662,-1033,-576,-326,174,122,-104
0,2023-03-09T13:51:21.684963,1981043,259,33,1662,-1033,-576,-326,174,122,-104
0,2023-03-09T13:51:21.689508,1981048,259,33,1662,-1033,-576,-326,174,122,-104
0,2023-03-09T13:51:21.693825,1981052,259,33,1662,-1033,-576,-326,174,122,-104
0,2023-03-09T13:51:21.698207,1981057,259,33,1662,-1033,-576,-326,174,122,-104
0,2023-03-09T13:51:21.702616,1981062,264,32,1664,-1038,-576,-324,174,122,-104
0,2023-03-09T13:51:21.707105,1981066,264,32,1664,-1038,-576,-324,174,122,-104
0,2023-03-09T13:51:21.711617,1981070,264,32,1664,-1038,-576,-324,174,122,-104
0,2023-03-09T13:51:21.715927,1981075,264,32,1664,-1038,-576,-324,174,122,-104
0,2023-03-09T13:51:21.720325,1981079,263,33,1663,-1045,-571,-326,174,122,-104
0,2023-03-09T13:51:21.725749,1981084,263,33,1663,-1045,-571,-326,174,122,-104
0,2023-03-09T13:51:21.730352,1981088,263,33,1663,-1045,-571,-326,174,122,-104
0,2023-03-09T13:51:21.734863,1981093,263,33,1663,-1045,-571,-326,174,122,-104
0,2023-03-09T13:51:21.739417,1981097,260,28,1665,-1044,-573,-324,175,125,-111
0,2023-03-09T13:51:21.744559,1981104,260,28,1665,-1044,-573,-324,175,125,-111
0,2023-03-09T13:51:21.749386,1981108,260,28,1665,-1044,-573,-324,175,125,-111
0,2023-03-09T13:51:21.753995,1981113,260,28,1665,-1044,-573,-324,175,125,-111
0,2023-03-09T13:51:21.758577,1981117,260,32,1667,-1035,-569,-334,175,125,-111
0,2023-03-09T13:51:21.763695,1981122,260,32,1667,-1035,-569,-334,175,125,-111
0,2023-03-09T13:51:21.768578,1981127,260,32,1667,-1035,-569,-334,175,125,-111
0,2023-03-09T13:51:21.773088,1981131,260,32,1667,-1035,-569,-334,175,125,-111
0,2023-03-09T13:51:21.777391,1981136,260,32,1667,-1035,-569,-334,175,125,-111
0,2023-03-09T13:51:21.781848,1981140,260,32,1667,-1035,-569,-334,175,125,-111
0,2023-03-09T13:51:21.786335,1981145,260,32,1667,-1035,-569,-334,175,125,-111
0,2023-03-09T13:51:21.790707,1981150,260,32,1667,-1035,-569,-334,175,125,-111
0,2023-03-09T13:51:21.795158,1981154,260,32,1667,-1035,-569,-334,175,125,-111
0,2023-03-09T13:51:21.799531,1981158,260,30,1662,-1036,-572,-327,175,125,-111
0,2023-03-09T13:51:21.804572,1981163,260,30,1662,-1036,-572,-327,175,125,-111
0,2023-03-09T13:51:21.809040,1981167,260,30,1662,-1036,-572,-327,175,125,-111
0,2023-03-09T13:51:21.813361,1981172,260,30,1662,-1036,-572,-327,175,125,-111
0,2023-03-09T13:51:21.817911,1981176,260,30,1662,-1036,-572,-327,175,125,-111
0,2023-03-09T13:51:21.822342,1981180,258,29,1662,-1033,-573,-323,175,125,-111
0,2023-03-09T13:51:21.827879,1981187,258,29,1662,-1033,-573,-323,175,125,-111
0,2023-03-09T13:51:21.832397,1981191,258,29,1662,-1033,-573,-323,175,125,-111
0,2023-03-09T13:51:21.836695,1981196,258,29,1662,-1033,-573,-323,175,125,-111
0,2023-03-09T13:51:21.841271,1981200,259,32,1658,-1037,-570,-323,175,125,-111
0,2023-03-09T13:51:21.846099,1981205,259,32,1658,-1037,-570,-323,175,125,-111
0,2023-03-09T13:51:21.850408,1981209,259,32,1658,-1037,-570,-323,175,125,-111
0,2023-03-09T13:51:21.854962,1981213,259,32,1658,-1037,-570,-323,175,125,-111
0,2023-03-09T13:51:21.859553,1981218,261,32,1659,-1040,-572,-322,175,125,-111
0,2023-03-09T13:51:21.864594,1981223,261,32,1659,-1040,-572,-322,175,125,-111
0,2023-03-09T13:51:21.869078,1981228,261,32,1659,-1040,-572,-322,175,125,-111
0,2023-03-09T13:51:21.873442,1981232,261,32,1659,-1040,-572,-322,175,125,-111
0,2023-03-09T13:51:21.877877,1981237,261,32,1659,-1040,-572,-322,175,125,-111
0,2023-03-09T13:51:21.882398,1981241,258,30,1664,-1040,-573,-329,168,126,-100
0,2023-03-09T13:51:21.886828,1981245,258,30,1664,-1040,-573,-329,168,126,-100
0,2023-03-09T13:51:21.891396,1981250,258,30,1664,-1040,-573,-329,168,126,-100
0,2023-03-09T13:51:21.895796,1981254,258,30,1664,-1040,-573,-329,168,126,-100
0,2023-03-09T13:51:21.900934,1981259,257,33,1667,-1033,-574,-329,168,126,-100
0,2023-03-09T13:51:21.905875,1981264,257,33,1667,-1033,-574,-329,168,126,-100
0,2023-03-09T13:51:21.910048,1981268,257,33,1667,-1033,-574,-329,168,126,-100
0,2023-03-09T13:51:21.914490,1981273,257,33,1667,-1033,-574,-329,168,126,-100
0,2023-03-09T13:51:21.918871,1981278,263,32,1664,-1034,-569,-323,168,126,-100
0,2023-03-09T13:51:21.923960,1981283,263,32,1664,-1034,-569,-323,168,126,-100
0,2023-03-09T13:51:21.928933,1981288,263,32,1664,-1034,-569,-323,168,126,-100
0,2023-03-09T13:51:21.933389,1981292,263,32,1664,-1034,-569,-323,168,126,-100
0,2023-03-09T13:51:21.937762,1981296,263,32,1664,-1034,-569,-323,168,126,-100
0,2023-03-09T13:51:21.942410,1981301,259,32,1659,-1042,-572,-325,168,126,-100
0,2023-03-09T13:51:21.947917,1981306,259,32,1659,-1042,-572,-325,168,126,-100
0,2023-03-09T13:51:21.952482,1981310,259,32,1659,-1042,-572,-325,168,126,-100
0,2023-03-09T13:51:21.957439,1981316,259,32,1659,-1042,-572,-325,168,126,-100
0,2023-03-09T13:51:21.961610,1981321,262,32,1667,-1032,-571,-329,168,126,-100
0,2023-03-09T13:51:21.966968,1981325,262,32,1667,-1032,-571,-329,168,126,-100
0,2023-03-09T13:51:21.971394,1981330,262,32,1667,-1032,-571,-329,168,126,-100
0,2023-03-09T13:51:21.975879,1981334,262,32,1667,-1032,-571,-329,168,126,-100
0,2023-03-09T13:51:21.980461,1981339,259,33,1661,-1031,-571,-322,168,126,-100
0,2023-03-09T13:51:21.985597,1981344,259,33,1661,-1031,-571,-322,168,126,-100
0,2023-03-09T13:51:21.990042,1981348,259,33,1661,-1031,-571,-322,168,126,-100
0,2023-03-09T13:51:21.994392,1981353,259,33,1661,-1031,-571,-322,168,126,-100
0,2023-03-09T13:51:21.998517,1981358,259,33,1661,-1031,-571,-322,168,126,-100
0,2023-03-09T13:51:22.003693,1981363,259,33,1661,-1031,-571,-322,170,126,-104
0,2023-03-09T13:51:22.008065,1981367,259,33,1661,-1031,-571,-322,170,126,-104
0,2023-03-09T13:51:22.012671,1981371,259,33,1661,-1031,-571,-322,170,126,-104
0,2023-03-09T13:51:22.017418,1981376,259,33,1661,-1031,-571,-322,170,126,-104
0,2023-03-09T13:51:22.022368,1981381,260,36,1664,-1032,-569,-328,170,126,-104
0,2023-03-09T13:51:22.027882,1981386,260,36,1664,-1032,-569,-328,170,126,-104
0,2023-03-09T13:51:22.032426,1981390,260,36,1664,-1032,-569,-328,170,126,-104
0,2023-03-09T13:51:22.036751,1981395,260,36,1664,-1032,-569,-328,170,126,-104
0,2023-03-09T13:51:22.041172,1981400,263,31,1664,-1033,-567,-319,170,126,-104
0,2023-03-09T13:51:22.046221,1981405,263,31,1664,-1033,-567,-319,170,126,-104
0,2023-03-09T13:51:22.050560,1981409,263,31,1664,-1033,-567,-319,170,126,-104
0,2023-03-09T13:51:22.054734,1981413,263,31,1664,-1033,-567,-319,170,126,-104
0,2023-03-09T13:51:22.059258,1981418,263,32,1660,-1032,-574,-318,170,126,-104
0,2023-03-09T13:51:22.064507,1981423,263,32,1660,-1032,-574,-318,170,126,-104
0,2023-03-09T13:51:22.069594,1981428,263,32,1660,-1032,-574,-318,170,126,-104
0,2023-03-09T13:51:22.074057,1981432,263,32,1660,-1032,-574,-318,170,126,-104
0,2023-03-09T13:51:22.078709,1981437,263,32,1660,-1032,-574,-318,170,126,-104
0,2023-03-09T13:51:22.083057,1981442,261,31,1667,-1029,-570,-325,170,126,-104
0,2023-03-09T13:51:22.088020,1981447,261,31,1667,-1029,-570,-325,170,126,-104
0,2023-03-09T13:51:22.092548,1981451,261,31,1667,-1029,-570,-325,170,126,-104
0,2023-03-09T13:51:22.097073,1981456,261,31,1667,-1029,-570,-325,170,126,-104
0,2023-03-09T13:51:22.101944,1981461,266,32,1666,-1038,-571,-323,170,126,-104
0,2023-03-09T13:51:22.106336,1981465,266,32,1666,-1038,-571,-323,170,126,-104
0,2023-03-09T13:51:22.110490,1981469,266,32,1666,-1038,-571,-323,170,126,-104
0,2023-03-09T13:51:22.114904,1981473,266,32,1666,-1038,-571,-323,170,126,-104
0,2023-03-09T13:51:22.119463,1981478,264,30,1664,-1041,-569,-324,170,126,-104
0,2023-03-09T13:51:22.124445,1981483,264,30,1664,-1041,-569,-324,170,126,-104
0,2023-03-09T13:51:22.129369,1981488,264,30,1664,-1041,-569,-324,170,126,-104
0,2023-03-09T13:51:22.134172,1981493,264,30,1664,-1041,-569,-324,170,126,-104
0,2023-03-09T13:51:22.138644,1981497,264,30,1664,-1041,-569,-324,170,126,-104
0,2023-03-09T13:51:22.143092,1981502,260,31,1665,-1038,-576,-327,163,129,-95
0,2023-03-09T13:51:22.148445,1981507,260,31,1665,-1038,-576,-327,163,129,-95
0,2023-03-09T13:51:22.152904,1981511,260,31,1665,-1038,-576,-327,163,129,-95
0,2023-03-09T13:51:22.157492,1981515,260,31,1665,-1038,-576,-327,163,129,-95
0,2023-03-09T13:51:22.162048,1981520,261,26,1667,-1035,-570,-329,163,129,-95
0,2023-03-09T13:51:22.167525,1981526,261,26,1667,-1035,-570,-329,163,129,-95
0,2023-03-09T13:51:22.171965,1981531,261,26,1667,-1035,-570,-329,163,129,-95
0,2023-03-09T13:51:22.176404,1981535,261,26,1667,-1035,-570,-329,163,129,-95
0,2023-03-09T13:51:22.180742,1981540,262,30,1660,-1042,-567,-322,163,129,-95
0,2023-03-09T13:51:22.186477,1981545,262,30,1660,-1042,-567,-322,163,129,-95
0,2023-03-09T13:51:22.190940,1981549,262,30,1660,-1042,-567,-322,163,129,-95
0,2023-03-09T13:51:22.195455,1981554,262,30,1660,-1042,-567,-322,163,129,-95
0,2023-03-09T13:51:22.199761,1981558,260,33,1665,-1036,-571,-323,163,129,-95
0,2023-03-09T13:51:22.205374,1981564,260,33,1665,-1036,-571,-323,163,129,-95
0,2023-03-09T13:51:22.209909,1981569,260,33,1665,-1036,-571,-323,163,129,-95
0,2023-03-09T13:51:22.214457,1981573,260,33,1665,-1036,-571,-323,163,129,-95
0,2023-03-09T13:51:22.218681,1981577,260,33,1665,-1036,-571,-323,163,129,-95
0,2023-03-09T13:51:22.223658,1981582,260,32,1666,-1045,-577,-324,163,129,-95
0,2023-03-09T13:51:22.228830,1981587,260,32,1666,-1045,-577,-324,163,129,-95
0,2023-03-09T13:51:22.233279,1981592,260,32,1666,-1045,-577,-324,163,129,-95
0,2023-03-09T13:51:22.237786,1981596,260,32,1666,-1045,-577,-324,163,129,-95
0,2023-03-09T13:51:22.242418,1981601,262,32,1659,-1037,-566,-325,163,129,-95
0,2023-03-09T13:51:22.247707,1981606,262,32,1659,-1037,-566,-325,163,129,-95
0,2023-03-09T13:51:22.252120,1981611,262,32,1659,-1037,-566,-325,163,129,-95
0,2023-03-09T13:51:22.256701,1981615,262,32,1659,-1037,-566,-325,163,129,-95
0,2023-03-09T13:51:22.261257,1981620,260,32,1667,-1039,-576,-321,172,124,-110
0,2023-03-09T13:51:22.265792,1981624,260,32,1667,-1039,-576,-321,172,124,-110
0,2023-03-09T13:51:22.270029,1981629,260,32,1667,-1039,-576,-321,172,124,-110
0,2023-03-09T13:51:22.274434,1981633,260,32,1667,-1039,-576,-321,172,124,-110
0,2023-03-09T13:51:22.279020,1981637,260,32,1667,-1039,-576,-321,172,124,-110
0,2023-03-09T13:51:22.283962,1981642,258,32,1667,-1037,-578,-324,172,124,-110
0,2023-03-09T13:51:22.288755,1981647,258,32,1667,-1037,-578,-324,172,124,-110
0,2023-03-09T13:51:22.293422,1981651,258,32,1667,-1037,-578,-324,172,124,-110
0,2023-03-09T13:51:22.297910,1981657,258,32,1667,-1037,-578,-324,172,124,-110
0,2023-03-09T13:51:22.302250,1981661,259,33,1657,-1033,-564,-321,172,124,-110
0,2023-03-09T13:51:22.307569,1981666,259,33,1657,-1033,-564,-321,172,124,-110
0,2023-03-09T13:51:22.312319,1981671,259,33,1657,-1033,-564,-321,172,124,-110
0,2023-03-09T13:51:22.316833,1981675,259,33,1657,-1033,-564,-321,172,124,-110
0,2023-03-09T13:51:22.321354,1981680,261,31,1658,-1033,-579,-327,172,124,-110
0,2023-03-09T13:51:22.326151,1981684,261,31,1658,-1033,-579,-327,172,124,-110
0,2023-03-09T13:51:22.330646,1981689,261,31,1658,-1033,-579,-327,172,124,-110
0,2023-03-09T13:51:22.335178,1981693,261,31,1658,-1033,-579,-327,172,124,-110
0,2023-03-09T13:51:22.339797,1981699,259,29,1660,-1031,-576,-320,172,124,-110
0,2023-03-09T13:51:22.344923,1981704,259,29,1660,-1031,-576,-320,172,124,-110
0,2023-03-09T13:51:22.349316,1981708,259,29,1660,-1031,-576,-320,172,124,-110
0,2023-03-09T13:51:22.353668,1981712,259,29,1660,-1031,-576,-320,172,124,-110
0,2023-03-09T13:51:22.358236,1981717,259,29,1660,-1031,-576,-320,172,124,-110
0,2023-03-09T13:51:22.362502,1981721,259,34,1663,-1035,-560,-320,172,124,-110
0,2023-03-09T13:51:22.367579,1981726,259,34,1663,-1035,-560,-320,172,124,-110
0,2023-03-09T13:51:22.372083,1981730,259,34,1663,-1035,-560,-320,172,124,-110
0,2023-03-09T13:51:22.376371,1981735,259,34,1663,-1035,-560,-320,172,124,-110
0,2023-03-09T13:51:22.381420,1981740,261,35,1663,-1035,-570,-317,165,127,-105
0,2023-03-09T13:51:22.386768,1981746,261,35,1663,-1035,-570,-317,165,127,-105
0,2023-03-09T13:51:22.391457,1981750,261,35,1663,-1035,-570,-317,165,127,-105
0,2023-03-09T13:51:22.395951,1981755,261,35,1663,-1035,-570,-317,165,127,-105
0,2023-03-09T13:51:22.400378,1981759,261,32,1664,-1033,-571,-323,165,127,-105
0,2023-03-09T13:51:22.405732,1981764,261,32,1664,-1033,-571,-323,165,127,-105
0,2023-03-09T13:51:22.410256,1981768,261,32,1664,-1033,-571,-323,165,127,-105
0,2023-03-09T13:51:22.414847,1981773,261,32,1664,-1033,-571,-323,165,127,-105
0,2023-03-09T13:51:22.419339,1981777,261,32,1664,-1033,-571,-323,165,127,-105
0,2023-03-09T13:51:22.424619,1981784,261,34,1662,-1042,-575,-325,165,127,-105
0,2023-03-09T13:51:22.429789,1981789,261,34,1662,-1042,-575,-325,165,127,-105
0,2023-03-09T13:51:22.434318,1981793,261,34,1662,-1042,-575,-325,165,127,-105
0,2023-03-09T13:51:22.438613,1981797,261,34,1662,-1042,-575,-325,165,127,-105
0,2023-03-09T13:51:22.442929,1981801,260,32,1656,-1040,-572,-318,165,127,-105
0,2023-03-09T13:51:22.447451,1981806,260,32,1656,-1040,-572,-318,165,127,-105
0,2023-03-09T13:51:22.451786,1981810,260,32,1656,-1040,-572,-318,165,127,-105
0,2023-03-09T13:51:22.456359,1981814,260,32,1656,-1040,-572,-318,165,127,-105
0,2023-03-09T13:51:22.460859,1981819,260,31,1658,-1046,-575,-323,165,127,-105
0,2023-03-09T13:51:22.465556,1981825,260,31,1658,-1046,-575,-323,165,127,-105
0,2023-03-09T13:51:22.470123,1981829,260,31,1658,-1046,-575,-323,165,127,-105
0,2023-03-09T13:51:22.474503,1981833,260,31,1658,-1046,-575,-323,165,127,-105
0,2023-03-09T13:51:22.478889,1981838,260,31,1658,-1046,-575,-323,165,127,-105
0,2023-03-09T13:51:22.483933,1981843,260,33,1660,-1037,-568,-325,165,127,-105
0,2023-03-09T13:51:22.489287,1981848,260,33,1660,-1037,-568,-325,165,127,-105
0,2023-03-09T13:51:22.493551,1981852,260,33,1660,-1037,-568,-325,165,127,-105
0,2023-03-09T13:51:22.497937,1981856,260,33,1660,-1037,-568,-325,165,127,-105
0,2023-03-09T13:51:22.502404,1981860,261,32,1659,-1036,-575,-315,165,127,-105
0,2023-03-09T13:51:22.507611,1981867,261,32,1659,-1036,-575,-315,165,127,-105
0,2023-03-09T13:51:22.512280,1981871,261,32,1659,-1036,-575,-315,165,127,-105
0,2023-03-09T13:51:22.516656,1981876,261,32,1659,-1036,-575,-315,165,127,-105
0,2023-03-09T13:51:22.521136,1981880,258,34,1668,-1033,-575,-323,170,124,-100
0,2023-03-09T13:51:22.526381,1981885,258,34,1668,-1033,-575,-323,170,124,-100
0,2023-03-09T13:51:22.530823,1981889,258,34,1668,-1033,-575,-323,170,124,-100
0,2023-03-09T13:51:22.535282,1981894,258,34,1668,-1033,-575,-323,170,124,-100
0,2023-03-09T13:51:22.539828,1981898,259,31,1663,-1037,-574,-329,170,124,-100
0,2023-03-09T13:51:22.545368,1981903,259,31,1663,-1037,-574,-329,170,124,-100
0,2023-03-09T13:51:22.549740,1981908,259,31,1663,-1037,-574,-329,170,124,-100
0,2023-03-09T13:51:22.554256,1981913,259,31,1663,-1037,-574,-329,170,124,-100
0,2023-03-09T13:51:22.558500,1981917,259,31,1663,-1037,-574,-329,170,124,-100
0,2023-03-09T13:51:22.562705,1981922,260,29,1657,-1028,-565,-312,170,124,-100
0,2023-03-09T13:51:22.568049,1981926,260,29,1657,-1028,-565,-312,170,124,-100
0,2023-03-09T13:51:22.572436,1981931,260,29,1657,-1028,-565,-312,170,124,-100
0,2023-03-09T13:51:22.576958,1981935,260,29,1657,-1028,-565,-312,170,124,-100
0,2023-03-09T13:51:22.581407,1981940,260,32,1658,-1036,-568,-320,170,124,-100
0,2023-03-09T13:51:22.586691,1981945,260,32,1658,-1036,-568,-320,170,124,-100
0,2023-03-09T13:51:22.591186,1981949,260,32,1658,-1036,-568,-320,170,124,-100
0,2023-03-09T13:51:22.595466,1981955,260,32,1658,-1036,-568,-320,170,124,-100
0,2023-03-09T13:51:22.599856,1981959,263,31,1663,-1037,-568,-325,170,124,-100
0,2023-03-09T13:51:22.604977,1981964,263,31,1663,-1037,-568,-325,170,124,-100
0,2023-03-09T13:51:22.609499,1981968,263,31,1663,-1037,-568,-325,170,124,-100
0,2023-03-09T13:51:22.614148,1981972,263,31,1663,-1037,-568,-325,170,124,-100
0,2023-03-09T13:51:22.618507,1981977,263,31,1663,-1037,-568,-325,170,124,-100
0,2023-03-09T13:51:22.623155,1981981,262,30,1660,-1034,-570,-327,170,124,-100
0,2023-03-09T13:51:22.628429,1981987,262,30,1660,-1034,-570,-327,170,124,-100
0,2023-03-09T13:51:22.632780,1981991,262,30,1660,-1034,-570,-327,170,124,-100
0,2023-03-09T13:51:22.637183,1981996,262,30,1660,-1034,-570,-327,170,124,-100
0,2023-03-09T13:51:22.641578,1982001,260,33,1664,-1046,-571,-325,167,127,-105
0,2023-03-09T13:51:22.646714,1982005,260,33,1664,-1046,-571,-325,167,127,-105
0,2023-03-09T13:51:22.651534,1982010,260,33,1664,-1046,-571,-325,167,127,-105
0,2023-03-09T13:51:22.655781,1982014,260,33,1664,-1046,-571,-325,167,127,-105
0,2023-03-09T13:51:22.660117,1982019,259,32,1662,-1038,-573,-320,167,127,-105
0,2023-03-09T13:51:22.665380,1982024,259,32,1662,-1038,-573,-320,167,127,-105
0,2023-03-09T13:51:22.669888,1982028,259,32,1662,-1038,-573,-320,167,127,-105
0,2023-03-09T13:51:22.674460,1982033,259,32,1662,-1038,-573,-320,167,127,-105
0,2023-03-09T13:51:22.679090,1982038,259,32,1662,-1038,-573,-320,167,127,-105
0,2023-03-09T13:51:22.683573,1982043,259,28,1664,-1036,-578,-322,167,127,-105
0,2023-03-09T13:51:22.688317,1982047,259,28,1664,-1036,-578,-322,167,127,-105
0,2023-03-09T13:51:22.692872,1982051,259,28,1664,-1036,-578,-322,167,127,-105
0,2023-03-09T13:51:22.697488,1982056,259,28,1664,-1036,-578,-322,167,127,-105
0,2023-03-09T13:51:22.701961,1982060,258,33,1661,-1035,-573,-319,167,127,-105
0,2023-03-09T13:51:22.707331,1982066,258,33,1661,-1035,-573,-319,167,127,-105
0,2023-03-09T13:51:22.711675,1982070,258,33,1661,-1035,-573,-319,167,127,-105
0,2023-03-09T13:51:22.716201,1982074,258,33,1661,-1035,-573,-319,167,127,-105
0,2023-03-09T13:51:22.720517,1982080,263,30,1659,-1032,-572,-323,167,127,-105
0,2023-03-09T13:51:22.726111,1982085,263,30,1659,-1032,-572,-323,167,127,-105
0,2023-03-09T13:51:22.730828,1982090,263,30,1659,-1032,-572,-323,167,127,-105
0,2023-03-09T13:51:22.735329,1982094,263,30,1659,-1032,-572,-323,167,127,-105
0,2023-03-09T13:51:22.739701,1982098,263,30,1659,-1032,-572,-323,167,127,-105
0,2023-03-09T13:51:22.744126,1982103,263,31,1666,-1039,-572,-325,167,127,-105
0,2023-03-09T13:51:22.748378,1982107,263,31,1666,-1039,-572,-325,167,127,-105
0,2023-03-09T13:51:22.752637,1982111,263,31,1666,-1039,-572,-325,167,127,-105
0,2023-03-09T13:51:22.757212,1982115,263,31,1666,-1039,-572,-325,167,127,-105
0,2023-03-09T13:51:22.761550,1982120,260,34,1657,-1037,-571,-320,167,127,-105
0,2023-03-09T13:51:22.766726,1982126,260,34,1657,-1037,-571,-320,167,127,-105
0,2023-03-09T13:51:22.770973,1982130,260,34,1657,-1037,-571,-320,167,127,-105
0,2023-03-09T13:51:22.775401,1982134,260,34,1657,-1037,-571,-320,167,127,-105
0,2023-03-09T13:51:22.779871,1982139,264,33,1664,-1038,-572,-322,171,127,-105
0,2023-03-09T13:51:22.785423,1982144,264,33,1664,-1038,-572,-322,171,127,-103
0,2023-03-09T13:51:22.789833,1982148,264,33,1664,-1038,-572,-322,171,127,-103
0,2023-03-09T13:51:22.794384,1982153,264,33,1664,-1038,-572,-322,171,127,-103
0,2023-03-09T13:51:22.798698,1982157,264,33,1664,-1038,-572,-322,171,127,-103
0,2023-03-09T13:51:22.803105,1982161,262,33,1663,-1041,-578,-321,171,127,-103
0,2023-03-09T13:51:22.808431,1982168,262,33,1663,-1041,-578,-321,171,127,-103
0,2023-03-09T13:51:22.812948,1982172,262,33,1663,-1041,-578,-321,171,127,-103
0,2023-03-09T13:51:22.817426,1982176,262,33,1663,-1041,-578,-321,171,127,-103
0,2023-03-09T13:51:22.821732,1982181,261,33,1662,-1040,-576,-322,171,127,-103
0,2023-03-09T13:51:22.826079,1982185,261,33,1662,-1040,-576,-322,171,127,-103
0,2023-03-09T13:51:22.830590,1982189,261,33,1662,-1040,-576,-322,171,127,-103
0,2023-03-09T13:51:22.835110,1982194,261,33,1662,-1040,-576,-322,171,127,-103
0,2023-03-09T13:51:22.839482,1982198,261,33,1662,-1040,-576,-322,171,127,-103
0,2023-03-09T13:51:22.843890,1982202,265,32,1665,-1029,-576,-331,171,127,-103
0,2023-03-09T13:51:22.849584,1982208,265,32,1665,-1029,-576,-331,171,127,-103
0,2023-03-09T13:51:22.853990,1982213,265,32,1665,-1029,-576,-331,171,127,-103
0,2023-03-09T13:51:22.858544,1982217,265,32,1665,-1029,-576,-331,171,127,-103
0,2023-03-09T13:51:22.862860,1982222,261,31,1664,-1040,-578,-322,171,127,-103
0,2023-03-09T13:51:22.868247,1982227,261,31,1664,-1040,-578,-322,171,127,-103
0,2023-03-09T13:51:22.873061,1982231,261,31,1664,-1040,-578,-322,171,127,-103
0,2023-03-09T13:51:22.877584,1982236,261,31,1664,-1040,-578,-322,171,127,-103
0,2023-03-09T13:51:22.882267,1982240,262,30,1660,-1047,-573,-324,171,127,-103
0,2023-03-09T13:51:22.887659,1982246,262,30,1660,-1047,-573,-324,171,127,-103
0,2023-03-09T13:51:22.892110,1982251,262,30,1660,-1047,-573,-324,171,127,-103
0,2023-03-09T13:51:22.896451,1982255,262,30,1660,-1047,-573,-324,171,127,-103
0,2023-03-09T13:51:22.900887,1982260,262,29,1663,-1041,-573,-324,165,131,-107
0,2023-03-09T13:51:22.906761,1982265,262,29,1663,-1041,-573,-324,165,131,-107
0,2023-03-09T13:51:22.911466,1982270,262,29,1663,-1041,-573,-324,165,131,-107
0,2023-03-09T13:51:22.916116,1982274,262,29,1663,-1041,-573,-324,165,131,-107
0,2023-03-09T13:51:22.920455,1982279,258,29,1668,-1040,-574,-334,165,131,-107
0,2023-03-09T13:51:22.924511,1982283,258,29,1668,-1040,-574,-334,165,131,-107
0,2023-03-09T13:51:22.928964,1982287,258,29,1668,-1040,-574,-334,165,131,-107
0,2023-03-09T13:51:22.933414,1982292,258,29,1668,-1040,-574,-334,165,131,-107
0,2023-03-09T13:51:22.938035,1982297,258,29,1668,-1040,-574,-334,165,131,-107
0,2023-03-09T13:51:22.942570,1982301,258,29,1665,-1038,-581,-330,165,131,-107
0,2023-03-09T13:51:22.948080,1982307,258,29,1665,-1038,-581,-330,165,131,-107
0,2023-03-09T13:51:22.952673,1982311,258,29,1665,-1038,-581,-330,165,131,-107
0,2023-03-09T13:51:22.957078,1982316,258,29,1665,-1038,-581,-330,165,131,-107
0,2023-03-09T13:51:22.961573,1982320,260,29,1660,-1037,-579,-328,165,131,-107
0,2023-03-09T13:51:22.966803,1982325,260,29,1660,-1037,-579,-328,165,131,-107
0,2023-03-09T13:51:22.971610,1982329,260,29,1660,-1037,-579,-328,165,131,-107
0,2023-03-09T13:51:22.976160,1982334,260,29,1660,-1037,-579,-328,165,131,-107
0,2023-03-09T13:51:22.980691,1982340,259,30,1662,-1037,-578,-322,165,131,-107
0,2023-03-09T13:51:22.986022,1982345,259,30,1662,-1037,-578,-322,165,131,-107
0,2023-03-09T13:51:22.990407,1982349,259,30,1662,-1037,-578,-322,165,131,-107
0,2023-03-09T13:51:22.994924,1982354,259,30,1662,-1037,-578,-322,165,131,-107
0,2023-03-09T13:51:22.999564,1982358,259,30,1662,-1037,-578,-322,165,131,-107
0,2023-03-09T13:51:23.004044,1982362,262,29,1657,-1030,-573,-318,165,131,-107
0,2023-03-09T13:51:23.009614,1982368,262,29,1657,-1030,-573,-318,165,131,-107
0,2023-03-09T13:51:23.014246,1982372,262,29,1657,-1030,-573,-318,165,131,-107
0,2023-03-09T13:51:23.018545,1982377,262,29,1657,-1030,-573,-318,165,131,-107
0,2023-03-09T13:51:23.022912,1982382,261,31,1667,-1038,-570,-324,165,131,-107
0,2023-03-09T13:51:23.027829,1982387,261,31,1667,-1038,-570,-324,165,131,-107
0,2023-03-09T13:51:23.032315,1982391,261,31,1667,-1038,-570,-324,165,131,-107
0,2023-03-09T13:51:23.036866,1982396,261,31,1667,-1038,-570,-324,165,131,-107
0,2023-03-09T13:51:23.041906,1982400,261,30,1672,-1038,-579,-327,168,126,-104
0,2023-03-09T13:51:23.047473,1982406,261,30,1672,-1038,-579,-327,168,126,-104
0,2023-03-09T13:51:23.052518,1982411,261,30,1672,-1038,-579,-327,168,126,-104
0,2023-03-09T13:51:23.056899,1982415,261,30,1672,-1038,-579,-327,168,126,-104
0,2023-03-09T13:51:23.061393,1982419,261,28,1665,-1035,-576,-335,168,126,-104
0,2023-03-09T13:51:23.066418,1982425,261,28,1665,-1035,-576,-335,168,126,-104
0,2023-03-09T13:51:23.070794,1982430,261,28,1665,-1035,-576,-335,168,126,-104
0,2023-03-09T13:51:23.075144,1982434,261,28,1665,-1035,-576,-335,168,126,-104
0,2023-03-09T13:51:23.079600,1982438,261,28,1665,-1035,-576,-335,168,126,-104
0,2023-03-09T13:51:23.084820,1982443,258,33,1660,-1045,-569,-329,168,126,-104
0,2023-03-09T13:51:23.090013,1982448,258,33,1660,-1045,-569,-329,168,126,-104
0,2023-03-09T13:51:23.094700,1982453,258,33,1660,-1045,-569,-329,168,126,-104
0,2023-03-09T13:51:23.099031,1982457,258,33,1660,-1045,-569,-329,168,126,-104
0,2023-03-09T13:51:23.103621,1982461,260,31,1661,-1043,-580,-325,168,126,-104
0,2023-03-09T13:51:23.109208,1982468,260,31,1661,-1043,-580,-325,168,126,-104
0,2023-03-09T13:51:23.113575,1982473,260,31,1661,-1043,-580,-325,168,126,-104
0,2023-03-09T13:51:23.117990,1982477,260,31,1661,-1043,-580,-325,168,126,-104
0,2023-03-09T13:51:23.122392,1982481,261,33,1662,-1028,-574,-327,168,126,-104
0,2023-03-09T13:51:23.126587,1982485,261,33,1662,-1028,-574,-327,168,126,-104
0,2023-03-09T13:51:23.131050,1982490,261,33,1662,-1028,-574,-327,168,126,-104
0,2023-03-09T13:51:23.135401,1982494,261,33,1662,-1028,-574,-327,168,126,-104
0,2023-03-09T13:51:23.139833,1982498,261,33,1662,-1028,-574,-327,168,126,-104
0,2023-03-09T13:51:23.144631,1982503,262,29,1662,-1035,-573,-321,168,126,-104
0,2023-03-09T13:51:23.149090,1982508,262,29,1662,-1035,-573,-321,168,126,-104
0,2023-03-09T13:51:23.153526,1982512,262,29,1662,-1035,-573,-321,168,126,-104
0,2023-03-09T13:51:23.157968,1982517,262,29,1662,-1035,-573,-321,168,126,-104
0,2023-03-09T13:51:23.162863,1982522,259,33,1668,-1035,-570,-323,175,135,-105
0,2023-03-09T13:51:23.168079,1982527,259,33,1668,-1035,-570,-323,175,135,-105
0,2023-03-09T13:51:23.172829,1982531,259,33,1668,-1035,-570,-323,175,135,-105
0,2023-03-09T13:51:23.177496,1982536,259,33,1668,-1035,-570,-323,175,135,-105
0,2023-03-09T13:51:23.181982,1982540,262,33,1662,-1030,-566,-330,175,135,-105
0,2023-03-09T13:51:23.187148,1982545,262,33,1662,-1030,-566,-330,175,135,-105
0,2023-03-09T13:51:23.191721,1982551,262,33,1662,-1030,-566,-330,175,135,-105
0,2023-03-09T13:51:23.196046,1982555,262,33,1662,-1030,-566,-330,175,135,-105
0,2023-03-09T13:51:23.200481,1982559,259,31,1659,-1039,-570,-325,175,135,-105
0,2023-03-09T13:51:23.205218,1982564,259,31,1659,-1039,-570,-325,175,135,-105
0,2023-03-09T13:51:23.209619,1982568,259,31,1659,-1039,-570,-325,175,135,-105
0,2023-03-09T13:51:23.214051,1982573,259,31,1659,-1039,-570,-325,175,135,-105
0,2023-03-09T13:51:23.218548,1982577,259,31,1659,-1039,-570,-325,175,135,-105
0,2023-03-09T13:51:23.223159,1982581,262,34,1658,-1044,-581,-322,175,135,-105
0,2023-03-09T13:51:23.228028,1982586,262,34,1658,-1044,-581,-322,175,135,-105
0,2023-03-09T13:51:23.232874,1982592,262,34,1658,-1044,-581,-322,175,135,-105
0,2023-03-09T13:51:23.237468,1982596,262,34,1658,-1044,-581,-322,175,135,-105
0,2023-03-09T13:51:23.241749,1982601,262,29,1661,-1036,-572,-330,175,135,-105
0,2023-03-09T13:51:23.246508,1982605,262,29,1661,-1036,-572,-330,175,135,-105
0,2023-03-09T13:51:23.251178,1982610,262,29,1661,-1036,-572,-330,175,135,-105
0,2023-03-09T13:51:23.255735,1982614,262,29,1661,-1036,-572,-330,175,135,-105
0,2023-03-09T13:51:23.260200,1982619,262,29,1661,-1036,-572,-330,175,135,-105
0,2023-03-09T13:51:23.265410,1982624,256,32,1661,-1043,-570,-333,175,135,-105
0,2023-03-09T13:51:23.270559,1982629,256,32,1661,-1043,-570,-333,175,135,-105
0,2023-03-09T13:51:23.274946,1982633,256,32,1661,-1043,-570,-333,175,135,-105
0,2023-03-09T13:51:23.279384,1982638,256,32,1661,-1043,-570,-333,175,135,-105
0,2023-03-09T13:51:23.283721,1982643,259,29,1662,-1042,-574,-323,171,125,-103
0,2023-03-09T13:51:23.289127,1982648,259,29,1662,-1042,-574,-323,171,125,-103
0,2023-03-09T13:51:23.293671,1982652,259,29,1662,-1042,-574,-323,171,125,-103
0,2023-03-09T13:51:23.298237,1982657,259,29,1662,-1042,-574,-323,171,125,-103
0,2023-03-09T13:51:23.302677,1982661,260,30,1663,-1036,-577,-324,171,125,-103
0,2023-03-09T13:51:23.308007,1982666,260,30,1663,-1036,-577,-324,171,125,-103
0,2023-03-09T13:51:23.312437,1982671,260,30,1663,-1036,-577,-324,171,125,-103
0,2023-03-09T13:51:23.316847,1982675,260,30,1663,-1036,-577,-324,171,125,-103
0,2023-03-09T13:51:23.321901,1982681,260,32,1668,-1041,-575,-324,171,125,-103
0,2023-03-09T13:51:23.327532,1982686,260,32,1668,-1041,-575,-324,171,125,-103
0,2023-03-09T13:51:23.331898,1982691,260,32,1668,-1041,-575,-324,171,125,-103
0,2023-03-09T13:51:23.336271,1982695,260,32,1668,-1041,-575,-324,171,125,-103
0,2023-03-09T13:51:23.340724,1982699,261,30,1657,-1035,-571,-320,171,125,-103
0,2023-03-09T13:51:23.345467,1982704,261,30,1657,-1035,-571,-320,171,125,-103
0,2023-03-09T13:51:23.349983,1982708,261,30,1657,-1035,-571,-320,171,125,-103
0,2023-03-09T13:51:23.354405,1982713,261,30,1657,-1035,-571,-320,171,125,-103
0,2023-03-09T13:51:23.358777,1982717,261,30,1657,-1035,-571,-320,171,125,-103
0,2023-03-09T13:51:23.363527,1982722,260,32,1667,-1039,-577,-321,171,125,-103
0,2023-03-09T13:51:23.368844,1982728,260,32,1667,-1039,-577,-321,171,125,-103
0,2023-03-09T13:51:23.373528,1982732,260,32,1667,-1039,-577,-321,171,125,-103
0,2023-03-09T13:51:23.377944,1982737,260,32,1667,-1039,-577,-321,171,125,-103
0,2023-03-09T13:51:23.382489,1982741,261,29,1660,-1038,-571,-320,171,125,-103
0,2023-03-09T13:51:23.387618,1982746,261,29,1660,-1038,-571,-320,171,125,-103
0,2023-03-09T13:51:23.392118,1982751,261,29,1660,-1038,-571,-320,171,125,-103
0,2023-03-09T13:51:23.396676,1982755,261,29,1660,-1038,-571,-320,171,125,-103
0,2023-03-09T13:51:23.401716,1982760,261,32,1667,-1033,-572,-321,171,125,-103
0,2023-03-09T13:51:23.406742,1982766,261,32,1667,-1033,-572,-321,171,125,-103
0,2023-03-09T13:51:23.411473,1982770,261,32,1667,-1033,-572,-321,171,125,-103
0,2023-03-09T13:51:23.416283,1982775,261,32,1667,-1033,-572,-321,171,125,-103
0,2023-03-09T13:51:23.420762,1982780,259,31,1670,-1044,-580,-327,171,125,-103
0,2023-03-09T13:51:23.425977,1982784,259,31,1670,-1044,-580,-327,176,126,-102
0,2023-03-09T13:51:23.430869,1982789,259,31,1670,-1044,-580,-327,176,126,-102
0,2023-03-09T13:51:23.435742,1982794,259,31,1670,-1044,-580,-327,176,126,-102
0,2023-03-09T13:51:23.440546,1982799,259,31,1670,-1044,-580,-327,176,126,-102
0,2023-03-09T13:51:23.445681,1982804,260,32,1663,-1047,-581,-324,176,126,-102
0,2023-03-09T13:51:23.450315,1982809,260,32,1663,-1047,-581,-324,176,126,-102
0,2023-03-09T13:51:23.454706,1982814,260,32,1663,-1047,-581,-324,176,126,-102
0,2023-03-09T13:51:23.459355,1982818,260,32,1663,-1047,-581,-324,176,126,-102
0,2023-03-09T13:51:23.463661,1982822,263,31,1663,-1038,-575,-323,176,126,-102
0,2023-03-09T13:51:23.468900,1982828,263,31,1663,-1038,-575,-323,176,126,-102
0,2023-03-09T13:51:23.473432,1982832,263,31,1663,-1038,-575,-323,176,126,-102
0,2023-03-09T13:51:23.478067,1982836,263,31,1663,-1038,-575,-323,176,126,-102
0,2023-03-09T13:51:23.482477,1982841,259,30,1661,-1031,-568,-321,176,126,-102
0,2023-03-09T13:51:23.487931,1982846,259,30,1661,-1031,-568,-321,176,126,-102
0,2023-03-09T13:51:23.492256,1982851,259,30,1661,-1031,-568,-321,176,126,-102
0,2023-03-09T13:51:23.496770,1982856,259,30,1661,-1031,-568,-321,176,126,-102
0,2023-03-09T13:51:23.501129,1982860,264,31,1656,-1034,-575,-321,176,126,-102
0,2023-03-09T13:51:23.506497,1982865,264,31,1656,-1034,-575,-321,176,126,-102
0,2023-03-09T13:51:23.510881,1982869,264,31,1656,-1034,-575,-321,176,126,-102
0,2023-03-09T13:51:23.515397,1982874,264,31,1656,-1034,-575,-321,176,126,-102
0,2023-03-09T13:51:23.519777,1982878,264,31,1656,-1034,-575,-321,176,126,-102
0,2023-03-09T13:51:23.524081,1982882,261,29,1667,-1034,-571,-322,176,126,-102
0,2023-03-09T13:51:23.528379,1982887,261,29,1667,-1034,-571,-322,176,126,-102
0,2023-03-09T13:51:23.532729,1982892,261,29,1667,-1034,-571,-322,176,126,-102
0,2023-03-09T13:51:23.537120,1982896,261,29,1667,-1034,-571,-322,176,126,-102
0,2023-03-09T13:51:23.541492,1982900,260,31,1662,-1034,-579,-328,177,135,-111
0,2023-03-09T13:51:23.546404,1982905,260,31,1662,-1034,-579,-328,177,135,-111
0,2023-03-09T13:51:23.550834,1982909,260,31,1662,-1034,-579,-328,177,135,-111
0,2023-03-09T13:51:23.555287,1982914,260,31,1662,-1034,-579,-328,177,135,-111
0,2023-03-09T13:51:23.559638,1982918,260,31,1662,-1034,-579,-328,177,135,-111
0,2023-03-09T13:51:23.564187,1982922,259,31,1668,-1038,-577,-325,177,135,-111
0,2023-03-09T13:51:23.569464,1982928,259,31,1668,-1038,-577,-325,177,135,-111
0,2023-03-09T13:51:23.573891,1982932,259,31,1668,-1038,-577,-325,177,135,-111
0,2023-03-09T13:51:23.578611,1982938,259,31,1668,-1038,-577,-325,177,135,-111
0,2023-03-09T13:51:23.582817,1982942,262,29,1664,-1037,-576,-322,177,135,-111
0,2023-03-09T13:51:23.588442,1982947,262,29,1664,-1037,-576,-322,177,135,-111
0,2023-03-09T13:51:23.592736,1982951,262,29,1664,-1037,-576,-322,177,135,-111
0,2023-03-09T13:51:23.597248,1982956,262,29,1664,-1037,-576,-322,177,135,-111
0,2023-03-09T13:51:23.601513,1982960,263,32,1666,-1037,-567,-321,177,135,-111
0,2023-03-09T13:51:23.606069,1982964,263,32,1666,-1037,-567,-321,177,135,-111
0,2023-03-09T13:51:23.610438,1982969,263,32,1666,-1037,-567,-321,177,135,-111
0,2023-03-09T13:51:23.614812,1982973,263,32,1666,-1037,-567,-321,177,135,-111
0,2023-03-09T13:51:23.619631,1982979,263,32,1666,-1037,-567,-321,177,135,-111
0,2023-03-09T13:51:23.624127,1982983,262,34,1665,-1032,-579,-317,177,135,-111
0,2023-03-09T13:51:23.629102,1982988,262,34,1665,-1032,-579,-317,177,135,-111
0,2023-03-09T13:51:23.633401,1982992,262,34,1665,-1032,-579,-317,177,135,-111
0,2023-03-09T13:51:23.637749,1982997,262,34,1665,-1032,-579,-317,177,135,-111
0,2023-03-09T13:51:23.642991,1983001,262,30,1661,-1035,-570,-313,177,135,-111
0,2023-03-09T13:51:23.648177,1983007,262,30,1661,-1035,-570,-313,177,135,-111
0,2023-03-09T13:51:23.652813,1983011,262,30,1661,-1035,-570,-313,177,135,-111
0,2023-03-09T13:51:23.657404,1983016,262,30,1661,-1035,-570,-313,177,135,-111
0,2023-03-09T13:51:23.661908,1983021,260,30,1659,-1026,-571,-316,177,135,-111
0,2023-03-09T13:51:23.666839,1983026,260,30,1659,-1026,-571,-316,177,135,-111
0,2023-03-09T13:51:23.671394,1983030,260,30,1659,-1026,-571,-316,177,135,-111
0,2023-03-09T13:51:23.675776,1983034,260,30,1659,-1026,-571,-316,177,135,-111
0,2023-03-09T13:51:23.680469,1983039,260,30,1659,-1026,-571,-316,177,135,-111
0,2023-03-09T13:51:23.685503,1983044,256,32,1671,-1032,-576,-320,173,129,-109
0,2023-03-09T13:51:23.690758,1983049,256,32,1671,-1032,-576,-320,173,129,-109
0,2023-03-09T13:51:23.695319,1983053,256,32,1671,-1032,-576,-320,173,129,-109
0,2023-03-09T13:51:23.699986,1983058,256,32,1671,-1032,-576,-320,173,129,-109
0,2023-03-09T13:51:23.704330,1983063,259,33,1669,-1039,-572,-321,173,129,-109
0,2023-03-09T13:51:23.709451,1983068,259,33,1669,-1039,-572,-321,173,129,-109
0,2023-03-09T13:51:23.714040,1983073,259,33,1669,-1039,-572,-321,173,129,-109
0,2023-03-09T13:51:23.718562,1983077,259,33,1669,-1039,-572,-321,173,129,-109
0,2023-03-09T13:51:23.723498,1983082,260,30,1661,-1042,-573,-321,173,129,-109
0,2023-03-09T13:51:23.728364,1983087,260,30,1661,-1042,-573,-321,173,129,-109
0,2023-03-09T13:51:23.733146,1983091,260,30,1661,-1042,-573,-321,173,129,-109
0,2023-03-09T13:51:23.737471,1983096,260,30,1661,-1042,-573,-321,173,129,-109
0,2023-03-09T13:51:23.742140,1983100,261,34,1666,-1040,-574,-323,173,129,-109
0,2023-03-09T13:51:23.747856,1983107,261,34,1666,-1040,-574,-323,173,129,-109
0,2023-03-09T13:51:23.752535,1983111,261,34,1666,-1040,-574,-323,173,129,-109
0,2023-03-09T13:51:23.756952,1983116,261,34,1666,-1040,-574,-323,173,129,-109
0,2023-03-09T13:51:23.761077,1983120,262,31,1666,-1037,-572,-327,173,129,-109
0,2023-03-09T13:51:23.766782,1983125,262,31,1666,-1037,-572,-327,173,129,-109
0,2023-03-09T13:51:23.771109,1983130,262,31,1666,-1037,-572,-327,173,129,-109
0,2023-03-09T13:51:23.775658,1983134,262,31,1666,-1037,-572,-327,173,129,-109
0,2023-03-09T13:51:23.780025,1983138,262,31,1666,-1037,-572,-327,173,129,-109
0,2023-03-09T13:51:23.785015,1983143,261,29,1660,-1034,-576,-328,173,129,-109
0,2023-03-09T13:51:23.790238,1983149,261,29,1660,-1034,-576,-328,173,129,-109
0,2023-03-09T13:51:23.794605,1983154,261,29,1660,-1034,-576,-328,173,129,-109
0,2023-03-09T13:51:23.798898,1983158,261,29,1660,-1034,-576,-328,173,129,-109
0,2023-03-09T13:51:23.803384,1983162,262,33,1665,-1042,-574,-330,169,129,-107
0,2023-03-09T13:51:23.808769,1983167,262,33,1665,-1042,-574,-330,169,129,-107
0,2023-03-09T13:51:23.813239,1983172,262,33,1665,-1042,-574,-330,169,129,-107
0,2023-03-09T13:51:23.817470,1983176,262,33,1665,-1042,-574,-330,169,129,-107
0,2023-03-09T13:51:23.821937,1983180,262,32,1664,-1025,-575,-320,169,129,-107
0,2023-03-09T13:51:23.827416,1983185,262,32,1664,-1025,-575,-320,169,129,-107
0,2023-03-09T13:51:23.832063,1983191,262,32,1664,-1025,-575,-320,169,129,-107
0,2023-03-09T13:51:23.836203,1983195,262,32,1664,-1025,-575,-320,169,129,-107
0,2023-03-09T13:51:23.840589,1983199,262,32,1664,-1025,-575,-320,169,129,-107
0,2023-03-09T13:51:23.845610,1983204,261,32,1661,-1040,-574,-327,169,129,-107
0,2023-03-09T13:51:23.850736,1983209,261,32,1661,-1040,-574,-327,169,129,-107
0,2023-03-09T13:51:23.855244,1983214,261,32,1661,-1040,-574,-327,169,129,-107
0,2023-03-09T13:51:23.859687,1983218,261,32,1661,-1040,-574,-327,169,129,-107
0,2023-03-09T13:51:23.864054,1983222,261,35,1660,-1049,-573,-328,169,129,-107
0,2023-03-09T13:51:23.869522,1983228,261,35,1660,-1049,-573,-328,169,129,-107
0,2023-03-09T13:51:23.873914,1983233,261,35,1660,-1049,-573,-328,169,129,-107
0,2023-03-09T13:51:23.878282,1983237,261,35,1660,-1049,-573,-328,169,129,-107
0,2023-03-09T13:51:23.882917,1983242,261,27,1662,-1053,-580,-316,169,129,-107
0,2023-03-09T13:51:23.888391,1983247,261,27,1662,-1053,-580,-316,169,129,-107
0,2023-03-09T13:51:23.892858,1983251,261,27,1662,-1053,-580,-316,169,129,-107
0,2023-03-09T13:51:23.897258,1983256,261,27,1662,-1053,-580,-316,169,129,-107
0,2023-03-09T13:51:23.901694,1983260,262,31,1664,-1043,-579,-319,169,129,-107
0,2023-03-09T13:51:23.906694,1983265,262,31,1664,-1043,-579,-319,169,129,-107
0,2023-03-09T13:51:23.910991,1983269,262,31,1664,-1043,-579,-319,169,129,-107
0,2023-03-09T13:51:23.915289,1983273,262,31,1664,-1043,-579,-319,169,129,-107
0,2023-03-09T13:51:23.919736,1983279,262,31,1664,-1043,-579,-319,169,129,-107
0,2023-03-09T13:51:23.924123,1983283,256,32,1658,-1034,-576,-330,169,129,-107
0,2023-03-09T13:51:23.928521,1983287,256,32,1658,-1034,-576,-330,169,129,-107
0,2023-03-09T13:51:23.932993,1983292,256,32,1658,-1034,-576,-330,169,129,-107
0,2023-03-09T13:51:23.937386,1983296,256,32,1658,-1034,-576,-330,169,129,-107
0,2023-03-09T13:51:23.941745,1983300,260,30,1668,-1034,-578,-326,166,122,-106
0,2023-03-09T13:51:23.947201,1983306,260,30,1668,-1034,-578,-326,166,122,-106
0,2023-03-09T13:51:23.951614,1983310,260,30,1668,-1034,-578,-326,166,122,-106
0,2023-03-09T13:51:23.955918,1983314,260,30,1668,-1034,-578,-326,166,122,-106
0,2023-03-09T13:51:23.960351,1983320,260,30,1668,-1034,-578,-326,166,122,-106
0,2023-03-09T13:51:23.965545,1983324,261,30,1662,-1045,-573,-325,166,122,-106
0,2023-03-09T13:51:23.970454,1983329,261,30,1662,-1045,-573,-325,166,122,-106
0,2023-03-09T13:51:23.975068,1983334,261,30,1662,-1045,-573,-325,166,122,-106
0,2023-03-09T13:51:23.979664,1983338,261,30,1662,-1045,-573,-325,166,122,-106
0,2023-03-09T13:51:23.984229,1983343,262,31,1661,-1043,-574,-323,166,122,-106
0,2023-03-09T13:51:23.989698,1983348,262,31,1661,-1043,-574,-323,166,122,-106
0,2023-03-09T13:51:23.994306,1983352,262,31,1661,-1043,-574,-323,166,122,-106
0,2023-03-09T13:51:23.998778,1983357,262,31,1661,-1043,-574,-323,166,122,-106
0,2023-03-09T13:51:24.003141,1983362,261,32,1665,-1042,-579,-324,166,122,-106
0,2023-03-09T13:51:24.007433,1983366,261,32,1665,-1042,-579,-324,166,122,-106
0,2023-03-09T13:51:24.012009,1983371,261,32,1665,-1042,-579,-324,166,122,-106
0,2023-03-09T13:51:24.016538,1983375,261,32,1665,-1042,-579,-324,166,122,-106
0,2023-03-09T13:51:24.021063,1983380,261,32,1665,-1042,-579,-324,166,122,-106
0,2023-03-09T13:51:24.026155,1983385,261,29,1656,-1038,-579,-317,166,122,-106
0,2023-03-09T13:51:24.030630,1983389,261,29,1656,-1038,-579,-317,166,122,-106
0,2023-03-09T13:51:24.035064,1983394,261,29,1656,-1038,-579,-317,166,122,-106
0,2023-03-09T13:51:24.039666,1983398,261,29,1656,-1038,-579,-317,166,122,-106
0,2023-03-09T13:51:24.043998,1983403,261,29,1656,-1038,-579,-317,166,122,-106
0,2023-03-09T13:51:24.048711,1983408,261,29,1656,-1038,-579,-317,166,122,-106
0,2023-03-09T13:51:24.053377,1983412,261,29,1656,-1038,-579,-317,166,122,-106
0,2023-03-09T13:51:24.057898,1983417,261,29,1656,-1038,-579,-317,166,122,-106
0,2023-03-09T13:51:24.062380,1983421,259,33,1665,-1034,-579,-331,168,124,-104
0,2023-03-09T13:51:24.066989,1983426,259,33,1665,-1034,-579,-331,168,124,-104
0,2023-03-09T13:51:24.071402,1983430,259,33,1665,-1034,-579,-331,168,124,-104
0,2023-03-09T13:51:24.075966,1983434,259,33,1665,-1034,-579,-331,168,124,-104
0,2023-03-09T13:51:24.080383,1983439,259,33,1665,-1034,-579,-331,168,124,-104
0,2023-03-09T13:51:24.084802,1983443,259,30,1661,-1039,-577,-321,168,124,-104
0,2023-03-09T13:51:24.089859,1983449,259,30,1661,-1039,-577,-321,168,124,-104
0,2023-03-09T13:51:24.095357,1983454,259,30,1661,-1039,-577,-321,168,124,-104
0,2023-03-09T13:51:24.100402,1983459,259,30,1661,-1039,-577,-321,168,124,-104
0,2023-03-09T13:51:24.105315,1983464,258,35,1662,-1039,-576,-322,168,124,-104
0,2023-03-09T13:51:24.110296,1983469,258,35,1662,-1039,-576,-322,168,124,-104
0,2023-03-09T13:51:24.114706,1983473,258,35,1662,-1039,-576,-322,168,124,-104
0,2023-03-09T13:51:24.119006,1983477,258,35,1662,-1039,-576,-322,168,124,-104
0,2023-03-09T13:51:24.123457,1983482,260,31,1663,-1038,-581,-322,168,124,-104
0,2023-03-09T13:51:24.128426,1983488,260,31,1663,-1038,-581,-322,168,124,-104
0,2023-03-09T13:51:24.133235,1983492,260,31,1663,-1038,-581,-322,168,124,-104
0,2023-03-09T13:51:24.137675,1983497,260,31,1663,-1038,-581,-322,168,124,-104
0,2023-03-09T13:51:24.142122,1983501,258,32,1660,-1033,-576,-328,168,124,-104
0,2023-03-09T13:51:24.147354,1983506,258,32,1660,-1033,-576,-328,168,124,-104
0,2023-03-09T13:51:24.151899,1983510,258,32,1660,-1033,-576,-328,168,124,-104
0,2023-03-09T13:51:24.156407,1983515,258,32,1660,-1033,-576,-328,168,124,-104
0,2023-03-09T13:51:24.160986,1983519,258,32,1660,-1033,-576,-328,168,124,-104
0,2023-03-09T13:51:24.165684,1983524,259,31,1662,-1042,-575,-330,168,124,-104
0,2023-03-09T13:51:24.170765,1983529,259,31,1662,-1042,-575,-330,168,124,-104
0,2023-03-09T13:51:24.175346,1983535,259,31,1662,-1042,-575,-330,168,124,-104
0,2023-03-09T13:51:24.179744,1983539,259,31,1662,-1042,-575,-330,168,124,-104
0,2023-03-09T13:51:24.184342,1983543,261,31,1667,-1036,-573,-330,175,135,-105
0,2023-03-09T13:51:24.189752,1983548,261,31,1667,-1036,-573,-330,175,135,-105
0,2023-03-09T13:51:24.194093,1983553,261,31,1667,-1036,-573,-330,175,135,-105
0,2023-03-09T13:51:24.198437,1983557,261,31,1667,-1036,-573,-330,175,135,-105
0,2023-03-09T13:51:24.202835,1983561,260,29,1669,-1034,-571,-324,175,135,-105
0,2023-03-09T13:51:24.208008,1983566,260,29,1669,-1034,-571,-324,175,135,-105
0,2023-03-09T13:51:24.212456,1983571,260,29,1669,-1034,-571,-324,175,135,-105
0,2023-03-09T13:51:24.217106,1983576,260,29,1669,-1034,-571,-324,175,135,-105
0,2023-03-09T13:51:24.221422,1983581,260,29,1669,-1034,-571,-324,175,135,-105
0,2023-03-09T13:51:24.226580,1983585,260,32,1662,-1035,-577,-323,175,135,-105
0,2023-03-09T13:51:24.231540,1983590,260,32,1662,-1035,-577,-323,175,135,-105
0,2023-03-09T13:51:24.235939,1983595,260,32,1662,-1035,-577,-323,175,135,-105
0,2023-03-09T13:51:24.240410,1983599,260,32,1662,-1035,-577,-323,175,135,-105
0,2023-03-09T13:51:24.245355,1983604,256,30,1663,-1034,-580,-324,175,135,-105
0,2023-03-09T13:51:24.250277,1983608,256,30,1663,-1034,-580,-324,175,135,-105
0,2023-03-09T13:51:24.254710,1983613,256,30,1663,-1034,-580,-324,175,135,-105
0,2023-03-09T13:51:24.259296,1983618,256,30,1663,-1034,-580,-324,175,135,-105
0,2023-03-09T13:51:24.263863,1983623,259,30,1660,-1042,-576,-326,175,135,-105
0,2023-03-09T13:51:24.269251,1983628,259,30,1660,-1042,-576,-326,175,135,-105
0,2023-03-09T13:51:24.273849,1983633,259,30,1660,-1042,-576,-326,175,135,-105
0,2023-03-09T13:51:24.278405,1983637,259,30,1660,-1042,-576,-326,175,135,-105
0,2023-03-09T13:51:24.283088,1983642,262,33,1663,-1036,-575,-321,175,135,-105
0,2023-03-09T13:51:24.287413,1983646,262,33,1663,-1036,-575,-321,175,135,-105
0,2023-03-09T13:51:24.291794,1983650,262,33,1663,-1036,-575,-321,175,135,-105
0,2023-03-09T13:51:24.296305,1983654,262,33,1663,-1036,-575,-321,175,135,-105
0,2023-03-09T13:51:24.300655,1983660,262,33,1663,-1036,-575,-321,175,135,-105
0,2023-03-09T13:51:24.305746,1983665,262,33,1663,-1047,-576,-331,175,135,-105
0,2023-03-09T13:51:24.310616,1983669,262,33,1663,-1047,-576,-331,175,135,-105
0,2023-03-09T13:51:24.315135,1983674,262,33,1663,-1047,-576,-331,175,135,-105
0,2023-03-09T13:51:24.319517,1983678,262,33,1663,-1047,-576,-331,175,135,-105
0,2023-03-09T13:51:24.323864,1983682,260,33,1667,-1045,-578,-320,168,132,-106
0,2023-03-09T13:51:24.328393,1983687,260,33,1667,-1045,-578,-320,168,132,-106
0,2023-03-09T13:51:24.332641,1983691,260,33,1667,-1045,-578,-320,168,132,-106
0,2023-03-09T13:51:24.336979,1983695,260,33,1667,-1045,-578,-320,168,132,-106
0,2023-03-09T13:51:24.341318,1983700,260,33,1667,-1045,-578,-320,168,132,-106
0,2023-03-09T13:51:24.346334,1983705,260,30,1665,-1046,-573,-324,168,132,-106
0,2023-03-09T13:51:24.351235,1983710,260,30,1665,-1046,-573,-324,168,132,-106
0,2023-03-09T13:51:24.355665,1983714,260,30,1665,-1046,-573,-324,168,132,-106
0,2023-03-09T13:51:24.359947,1983719,260,30,1665,-1046,-573,-324,168,132,-106
0,2023-03-09T13:51:24.364109,1983723,262,31,1662,-1042,-574,-324,168,132,-106
0,2023-03-09T13:51:24.369294,1983728,262,31,1662,-1042,-574,-324,168,132,-106
0,2023-03-09T13:51:24.373792,1983732,262,31,1662,-1042,-574,-324,168,132,-106
0,2023-03-09T13:51:24.378052,1983736,262,31,1662,-1042,-574,-324,168,132,-106
0,2023-03-09T13:51:24.382564,1983741,262,28,1660,-1033,-570,-321,168,132,-106
0,2023-03-09T13:51:24.387600,1983747,262,28,1660,-1033,-570,-321,168,132,-106
0,2023-03-09T13:51:24.391901,1983751,262,28,1660,-1033,-570,-321,168,132,-106
0,2023-03-09T13:51:24.396335,1983755,262,28,1660,-1033,-570,-321,168,132,-106
0,2023-03-09T13:51:24.401036,1983760,262,28,1660,-1033,-570,-321,168,132,-106
0,2023-03-09T13:51:24.406410,1983765,260,31,1668,-1039,-575,-327,168,132,-106
0,2023-03-09T13:51:24.411480,1983770,260,31,1668,-1039,-575,-327,168,132,-106
0,2023-03-09T13:51:24.415804,1983774,260,31,1668,-1039,-575,-327,168,132,-106
0,2023-03-09T13:51:24.420324,1983779,260,31,1668,-1039,-575,-327,168,132,-106
0,2023-03-09T13:51:24.425680,1983784,260,33,1661,-1045,-585,-327,168,132,-106
0,2023-03-09T13:51:24.430674,1983790,260,33,1661,-1045,-585,-327,168,132,-106
0,2023-03-09T13:51:24.435508,1983794,260,33,1661,-1045,-585,-327,168,132,-106
0,2023-03-09T13:51:24.440038,1983799,260,33,1661,-1045,-585,-327,168,132,-106
0,2023-03-09T13:51:24.444533,1983803,258,29,1666,-1036,-577,-322,168,126,-100
0,2023-03-09T13:51:24.449617,1983808,258,29,1666,-1036,-577,-322,168,126,-100
0,2023-03-09T13:51:24.454033,1983813,258,29,1666,-1036,-577,-322,168,126,-100
0,2023-03-09T13:51:24.458667,1983817,258,29,1666,-1036,-577,-322,168,126,-100
0,2023-03-09T13:51:24.463200,1983821,261,31,1665,-1043,-571,-319,168,126,-100
0,2023-03-09T13:51:24.468427,1983826,261,31,1665,-1043,-571,-319,168,126,-100
0,2023-03-09T13:51:24.472797,1983832,261,31,1665,-1043,-571,-319,168,126,-100
0,2023-03-09T13:51:24.477495,1983836,261,31,1665,-1043,-571,-319,168,126,-100
0,2023-03-09T13:51:24.481634,1983841,261,31,1665,-1043,-571,-319,168,126,-100
0,2023-03-09T13:51:24.486510,1983845,261,33,1657,-1041,-573,-318,168,126,-100
0,2023-03-09T13:51:24.491203,1983850,261,33,1657,-1041,-573,-318,168,126,-100
0,2023-03-09T13:51:24.495782,1983854,261,33,1657,-1041,-573,-318,168,126,-100
0,2023-03-09T13:51:24.500411,1983859,261,33,1657,-1041,-573,-318,168,126,-100
0,2023-03-09T13:51:24.505431,1983864,262,30,1664,-1033,-568,-319,168,126,-100
0,2023-03-09T13:51:24.510906,1983869,262,30,1664,-1033,-568,-319,168,126,-100
0,2023-03-09T13:51:24.515656,1983875,262,30,1664,-1033,-568,-319,168,126,-100
0,2023-03-09T13:51:24.520008,1983879,262,30,1664,-1033,-568,-319,168,126,-100
0,2023-03-09T13:51:24.524561,1983883,262,30,1663,-1034,-567,-322,168,126,-100
0,2023-03-09T13:51:24.529957,1983889,262,30,1663,-1034,-567,-322,168,126,-100
0,2023-03-09T13:51:24.534622,1983893,262,30,1663,-1034,-567,-322,168,126,-100
0,2023-03-09T13:51:24.539061,1983898,262,30,1663,-1034,-567,-322,168,126,-100
0,2023-03-09T13:51:24.543626,1983902,261,30,1665,-1041,-574,-325,168,126,-100
0,2023-03-09T13:51:24.548620,1983907,261,30,1665,-1041,-574,-325,168,126,-100
0,2023-03-09T13:51:24.552982,1983911,261,30,1665,-1041,-574,-325,168,126,-100
0,2023-03-09T13:51:24.557444,1983916,261,30,1665,-1041,-574,-325,168,126,-100
0,2023-03-09T13:51:24.561705,1983921,261,30,1665,-1041,-574,-325,168,126,-100
0,2023-03-09T13:51:24.567084,1983926,259,32,1662,-1042,-578,-321,168,126,-100
0,2023-03-09T13:51:24.572158,1983931,259,32,1662,-1042,-578,-321,168,126,-100
0,2023-03-09T13:51:24.576499,1983935,259,32,1662,-1042,-578,-321,168,126,-100
0,2023-03-09T13:51:24.580702,1983939,259,32,1662,-1042,-578,-321,168,126,-100
0,2023-03-09T13:51:24.585068,1983944,261,33,1666,-1039,-572,-329,175,133,-105
0,2023-03-09T13:51:24.589355,1983948,261,33,1666,-1039,-572,-329,175,133,-105
0,2023-03-09T13:51:24.593780,1983952,261,33,1666,-1039,-572,-329,175,133,-105
0,2023-03-09T13:51:24.598470,1983958,261,33,1666,-1039,-572,-329,175,133,-105
0,2023-03-09T13:51:24.602895,1983962,263,29,1660,-1037,-577,-323,175,133,-105
0,2023-03-09T13:51:24.608172,1983967,263,29,1660,-1037,-577,-323,175,133,-105
0,2023-03-09T13:51:24.612614,1983971,263,29,1660,-1037,-577,-323,175,133,-105
0,2023-03-09T13:51:24.617116,1983976,263,29,1660,-1037,-577,-323,175,133,-105
0,2023-03-09T13:51:24.622043,1983980,263,29,1660,-1037,-577,-323,175,133,-105
0,2023-03-09T13:51:24.627155,1983986,263,29,1660,-1037,-577,-323,175,133,-105
0,2023-03-09T13:51:24.631503,1983990,263,29,1660,-1037,-577,-323,175,133,-105
0,2023-03-09T13:51:24.636041,1983994,263,29,1660,-1037,-577,-323,175,133,-105
0,2023-03-09T13:51:24.640516,1984000,263,29,1660,-1037,-577,-323,175,133,-105
0,2023-03-09T13:51:24.645066,1984004,261,25,1662,-1040,-577,-327,175,133,-105
0,2023-03-09T13:51:24.650565,1984009,261,25,1662,-1040,-577,-327,175,133,-105
0,2023-03-09T13:51:24.654935,1984014,261,25,1662,-1040,-577,-327,175,133,-105
0,2023-03-09T13:51:24.659330,1984018,261,25,1662,-1040,-577,-327,175,133,-105
0,2023-03-09T13:51:24.663742,1984022,262,29,1660,-1036,-579,-331,175,133,-105
0,2023-03-09T13:51:24.668489,1984027,262,29,1660,-1036,-579,-331,175,133,-105
0,2023-03-09T13:51:24.672796,1984031,262,29,1660,-1036,-579,-331,175,133,-105
0,2023-03-09T13:51:24.677348,1984036,262,29,1660,-1036,-579,-331,175,133,-105
0,2023-03-09T13:51:24.682042,1984040,262,29,1660,-1036,-579,-331,175,133,-105
0,2023-03-09T13:51:24.687029,1984046,261,30,1659,-1042,-573,-325,175,133,-105
0,2023-03-09T13:51:24.691635,1984050,261,30,1659,-1042,-573,-325,175,133,-105
0,2023-03-09T13:51:24.696167,1984055,261,30,1659,-1042,-573,-325,175,133,-105
0,2023-03-09T13:51:24.700717,1984059,261,30,1659,-1042,-573,-325,175,133,-105
0,2023-03-09T13:51:24.705988,1984065,259,31,1668,-1042,-567,-325,178,128,-106
0,2023-03-09T13:51:24.710914,1984069,259,31,1668,-1042,-567,-325,178,128,-106
0,2023-03-09T13:51:24.715377,1984074,259,31,1668,-1042,-567,-325,178,128,-106
0,2023-03-09T13:51:24.719684,1984078,259,31,1668,-1042,-567,-325,178,128,-106
0,2023-03-09T13:51:24.724063,1984082,261,31,1664,-1046,-580,-318,178,128,-106
0,2023-03-09T13:51:24.729420,1984088,261,31,1664,-1046,-580,-318,178,128,-106
0,2023-03-09T13:51:24.733889,1984093,261,31,1664,-1046,-580,-318,178,128,-106
0,2023-03-09T13:51:24.738417,1984097,261,31,1664,-1046,-580,-318,178,128,-106
0,2023-03-09T13:51:24.742771,1984102,262,33,1661,-1046,-571,-326,178,128,-106
0,2023-03-09T13:51:24.748111,1984107,262,33,1661,-1046,-571,-326,178,128,-106
0,2023-03-09T13:51:24.752536,1984111,262,33,1661,-1046,-571,-326,178,128,-106
0,2023-03-09T13:51:24.757019,1984115,262,33,1661,-1046,-571,-326,178,128,-106
0,2023-03-09T13:51:24.761311,1984120,262,33,1661,-1046,-571,-326,178,128,-106
0,2023-03-09T13:51:24.766120,1984124,260,31,1661,-1038,-571,-326,178,128,-106
0,2023-03-09T13:51:24.770340,1984129,260,31,1661,-1038,-571,-326,178,128,-106
0,2023-03-09T13:51:24.774610,1984134,260,31,1661,-1038,-571,-326,178,128,-106
0,2023-03-09T13:51:24.779158,1984138,260,31,1661,-1038,-571,-326,178,128,-106
0,2023-03-09T13:51:24.783534,1984142,261,29,1665,-1039,-570,-325,178,128,-106
0,2023-03-09T13:51:24.788913,1984148,261,29,1665,-1039,-570,-325,178,128,-106
0,2023-03-09T13:51:24.793491,1984152,261,29,1665,-1039,-570,-325,178,128,-106
0,2023-03-09T13:51:24.797663,1984156,261,29,1665,-1039,-570,-325,178,128,-106
0,2023-03-09T13:51:24.802007,1984160,261,29,1665,-1039,-570,-325,178,128,-106
0,2023-03-09T13:51:24.806887,1984165,261,31,1661,-1043,-580,-326,178,128,-106
0,2023-03-09T13:51:24.811038,1984169,261,31,1661,-1043,-580,-326,178,128,-106
0,2023-03-09T13:51:24.815544,1984175,261,31,1661,-1043,-580,-326,178,128,-106
0,2023-03-09T13:51:24.819866,1984179,261,31,1661,-1043,-580,-326,178,128,-106
0,2023-03-09T13:51:24.824420,1984183,261,33,1664,-1045,-576,-322,178,128,-106
0,2023-03-09T13:51:24.829938,1984189,261,33,1664,-1045,-576,-322,178,128,-106
0,2023-03-09T13:51:24.834565,1984193,261,33,1664,-1045,-576,-322,178,128,-106
0,2023-03-09T13:51:24.838811,1984197,261,33,1664,-1045,-576,-322,178,128,-106
0,2023-03-09T13:51:24.843701,1984202,259,34,1671,-1030,-569,-328,162,132,-106
0,2023-03-09T13:51:24.848969,1984207,259,34,1671,-1030,-569,-328,162,132,-106
0,2023-03-09T13:51:24.853413,1984212,259,34,1671,-1030,-569,-328,162,132,-106
0,2023-03-09T13:51:24.857793,1984217,259,34,1671,-1030,-569,-328,162,132,-106
0,2023-03-09T13:51:24.862330,1984221,258,31,1658,-1037,-578,-329,162,132,-106
0,2023-03-09T13:51:24.866636,1984226,258,31,1658,-1037,-578,-329,162,132,-106
0,2023-03-09T13:51:24.871289,1984230,258,31,1658,-1037,-578,-329,162,132,-106
0,2023-03-09T13:51:24.875788,1984234,258,31,1658,-1037,-578,-329,162,132,-106
0,2023-03-09T13:51:24.880202,1984239,258,31,1658,-1037,-578,-329,162,132,-106
0,2023-03-09T13:51:24.884546,1984243,258,32,1664,-1053,-581,-333,162,132,-106
0,2023-03-09T13:51:24.889901,1984248,258,32,1664,-1053,-581,-333,162,132,-106
0,2023-03-09T13:51:24.894428,1984253,258,32,1664,-1053,-581,-333,162,132,-106
