imu,server_time,arduino_time,ax,ay,az,gx,gy,gz,mx,my,mz
0,2023-03-01T18:55:50.477262,1940013,1366,1845,-592,-1043,-570,-328,-27,111,-247
0,2023-03-01T18:55:50.484482,1940020,1367,1841,-594,-1044,-575,-324,-27,111,-247
0,2023-03-01T18:55:50.489859,1940026,1367,1841,-594,-1044,-575,-324,-27,111,-247
0,2023-03-01T18:55:50.494690,1940030,1367,1841,-594,-1044,-575,-324,-27,111,-247
0,2023-03-01T18:55:50.499849,1940035,1367,1841,-594,-1044,-575,-324,-27,111,-247
0,2023-03-01T18:55:50.504917,1940040,1367,1841,-591,-1041,-575,-324,-27,111,-247
0,2023-03-01T18:55:50.510498,1940046,1367,1841,-591,-1041,-575,-324,-27,111,-247
0,2023-03-01T18:55:50.515443,1940051,1367,1841,-591,-1041,-575,-324,-27,111,-247
0,2023-03-01T18:55:50.520221,1940056,1367,1841,-591,-1041,-575,-324,-27,111,-247
0,2023-03-01T18:55:50.525915,1940062,1368,1843,-592,-1035,-577,-321,-27,111,-247
0,2023-03-01T18:55:50.531991,1940067,1368,1843,-592,-1035,-577,-321,-27,111,-247
0,2023-03-01T18:55:50.537297,1940073,1368,1843,-592,-1035,-577,-321,-27,111,-247
0,2023-03-01T18:55:50.543290,1940079,1369,1848,-592,-1036,-576,-321,-27,111,-247
0,2023-03-01T18:55:50.548863,1940084,1369,1848,-592,-1036,-576,-321,-27,111,-247
0,2023-03-01T18:55:50.553953,1940089,1369,1848,-592,-1036,-576,-321,-27,111,-247
0,2023-03-01T18:55:50.558915,1940094,1369,1848,-592,-1036,-576,-321,-27,111,-247
0,2023-03-01T18:55:50.564511,1940100,1367,1844,-589,-1042,-576,-317,-37,113,-255
0,2023-03-01T18:55:50.570148,1940106,1367,1844,-589,-1042,-576,-317,-37,113,-255
0,2023-03-01T18:55:50.575308,1940111,1367,1844,-589,-1042,-576,-317,-37,113,-255
0,2023-03-01T18:55:50.580223,1940116,1367,1844,-589,-1042,-576,-317,-37,113,-255
0,2023-03-01T18:55:50.586328,1940121,1367,1845,-595,-1042,-578,-318,-37,113,-255
0,2023-03-01T18:55:50.592256,1940128,1367,1845,-595,-1042,-578,-318,-37,113,-255
0,2023-03-01T18:55:50.596926,1940132,1367,1845,-595,-1042,-578,-318,-37,113,-255
0,2023-03-01T18:55:50.603890,1940140,1365,1845,-590,-1045,-571,-321,-37,113,-255
0,2023-03-01T18:55:50.609393,1940146,1365,1845,-590,-1045,-571,-321,-37,113,-255
0,2023-03-01T18:55:50.614686,1940150,1365,1845,-590,-1045,-571,-321,-37,113,-255
0,2023-03-01T18:55:50.619861,1940155,1365,1845,-590,-1045,-571,-321,-37,113,-255
0,2023-03-01T18:55:50.626112,1940161,1364,1846,-600,-1043,-566,-327,-37,113,-255
0,2023-03-01T18:55:50.632049,1940167,1364,1846,-600,-1043,-566,-327,-37,113,-255
0,2023-03-01T18:55:50.637222,1940172,1364,1846,-600,-1043,-566,-327,-37,113,-255
0,2023-03-01T18:55:50.643440,1940178,1366,1846,-593,-1043,-568,-319,-37,113,-255
0,2023-03-01T18:55:50.649817,1940186,1366,1846,-593,-1043,-568,-319,-37,113,-255
0,2023-03-01T18:55:50.654516,1940190,1366,1846,-593,-1043,-568,-319,-37,113,-255
0,2023-03-01T18:55:50.659582,1940195,1366,1846,-593,-1043,-568,-319,-37,113,-255
0,2023-03-01T18:55:50.665506,1940201,1366,1845,-596,-1038,-579,-321,-37,113,-255
0,2023-03-01T18:55:50.670774,1940206,1366,1845,-596,-1038,-579,-321,-37,113,-255
0,2023-03-01T18:55:50.675399,1940211,1366,1845,-596,-1038,-579,-321,-37,113,-255
0,2023-03-01T18:55:50.680948,1940216,1366,1845,-596,-1038,-579,-321,-37,113,-255
0,2023-03-01T18:55:50.687679,1940224,1366,1845,-588,-1033,-576,-311,-28,114,-242
0,2023-03-01T18:55:50.693934,1940230,1366,1845,-588,-1033,-576,-311,-28,114,-242
0,2023-03-01T18:55:50.701508,1940237,1366,1845,-588,-1033,-576,-311,-28,114,-242
0,2023-03-01T18:55:50.708408,1940244,1367,1845,-593,-1039,-567,-321,-28,114,-242
0,2023-03-01T18:55:50.714487,1940250,1367,1845,-593,-1039,-567,-321,-28,114,-242
0,2023-03-01T18:55:50.719320,1940255,1367,1845,-593,-1039,-567,-321,-28,114,-242
0,2023-03-01T18:55:50.724439,1940260,1366,1846,-597,-1042,-574,-321,-28,114,-242
0,2023-03-01T18:55:50.729814,1940265,1366,1846,-597,-1042,-574,-321,-28,114,-242
0,2023-03-01T18:55:50.735506,1940271,1366,1846,-597,-1042,-574,-321,-28,114,-242
0,2023-03-01T18:55:50.740601,1940276,1366,1846,-597,-1042,-574,-321,-28,114,-242
0,2023-03-01T18:55:50.746902,1940283,1368,1844,-592,-1041,-572,-318,-28,114,-242
0,2023-03-01T18:55:50.752758,1940288,1368,1844,-592,-1041,-572,-318,-28,114,-242
0,2023-03-01T18:55:50.758249,1940293,1368,1844,-592,-1041,-572,-318,-28,114,-242
0,2023-03-01T18:55:50.763946,1940299,1364,1846,-590,-1043,-574,-320,-28,114,-242
0,2023-03-01T18:55:50.769985,1940305,1364,1846,-590,-1043,-574,-320,-28,114,-242
0,2023-03-01T18:55:50.775273,1940311,1364,1846,-590,-1043,-574,-320,-28,114,-242
0,2023-03-01T18:55:50.780255,1940316,1364,1846,-590,-1043,-574,-320,-28,114,-242
0,2023-03-01T18:55:50.786974,1940322,1363,1845,-589,-1042,-575,-328,-28,114,-242
0,2023-03-01T18:55:50.792812,1940328,1363,1845,-589,-1042,-575,-328,-28,114,-242
0,2023-03-01T18:55:50.798235,1940333,1363,1845,-589,-1042,-575,-328,-28,114,-242
0,2023-03-01T18:55:50.804741,1940340,1366,1842,-591,-1041,-574,-320,-28,114,-242
0,2023-03-01T18:55:50.810515,1940346,1366,1842,-591,-1041,-574,-320,-28,114,-242
0,2023-03-01T18:55:50.815845,1940352,1366,1842,-591,-1041,-574,-320,-28,114,-242
0,2023-03-01T18:55:50.821365,1940357,1366,1842,-591,-1041,-574,-320,-28,114,-242
0,2023-03-01T18:55:50.827251,1940363,1366,1847,-594,-1036,-575,-319,-35,109,-245
0,2023-03-01T18:55:50.832440,1940368,1366,1847,-594,-1036,-575,-319,-35,109,-245
0,2023-03-01T18:55:50.837263,1940373,1366,1847,-594,-1036,-575,-319,-35,109,-245
0,2023-03-01T18:55:50.843091,1940378,1366,1847,-594,-1036,-575,-319,-35,109,-245
0,2023-03-01T18:55:50.848293,1940383,1367,1847,-593,-1037,-570,-317,-35,109,-245
0,2023-03-01T18:55:50.854001,1940389,1367,1847,-593,-1037,-570,-317,-35,109,-245
0,2023-03-01T18:55:50.858750,1940395,1367,1847,-593,-1037,-570,-317,-35,109,-245
0,2023-03-01T18:55:50.866044,1940401,1366,1843,-595,-1033,-574,-316,-35,109,-245
0,2023-03-01T18:55:50.871397,1940407,1366,1843,-595,-1033,-574,-316,-35,109,-245
0,2023-03-01T18:55:50.876069,1940412,1366,1843,-595,-1033,-574,-316,-35,109,-245
0,2023-03-01T18:55:50.881163,1940416,1366,1843,-595,-1033,-574,-316,-35,109,-245
0,2023-03-01T18:55:50.886799,1940422,1368,1845,-597,-1039,-574,-321,-35,109,-245
0,2023-03-01T18:55:50.892331,1940428,1368,1845,-597,-1039,-574,-321,-35,109,-245
0,2023-03-01T18:55:50.897088,1940433,1368,1845,-597,-1039,-574,-321,-35,109,-245
0,2023-03-01T18:55:50.902837,1940439,1368,1845,-597,-1039,-574,-321,-35,109,-245
0,2023-03-01T18:55:50.908522,1940444,1370,1846,-594,-1034,-572,-326,-35,109,-245
0,2023-03-01T18:55:50.914645,1940450,1370,1846,-594,-1034,-572,-326,-35,109,-245
0,2023-03-01T18:55:50.920075,1940456,1370,1846,-594,-1034,-572,-326,-35,109,-245
0,2023-03-01T18:55:50.925764,1940461,1367,1845,-594,-1045,-571,-319,-35,109,-245
0,2023-03-01T18:55:50.931532,1940467,1367,1845,-594,-1045,-571,-319,-35,109,-245
0,2023-03-01T18:55:50.936361,1940472,1367,1845,-594,-1045,-571,-319,-35,109,-245
0,2023-03-01T18:55:50.941619,1940477,1367,1845,-594,-1045,-571,-319,-35,109,-245
0,2023-03-01T18:55:50.946794,1940483,1365,1845,-592,-1044,-580,-321,-32,112,-248
0,2023-03-01T18:55:50.951151,1940487,1365,1845,-592,-1044,-580,-321,-32,112,-248
0,2023-03-01T18:55:50.955903,1940492,1365,1845,-592,-1044,-580,-321,-32,112,-248
0,2023-03-01T18:55:50.960959,1940497,1365,1845,-592,-1044,-580,-321,-32,112,-248
0,2023-03-01T18:55:50.967257,1940503,1366,1847,-593,-1041,-577,-320,-32,112,-248
0,2023-03-01T18:55:50.973030,1940508,1366,1847,-593,-1041,-577,-320,-32,112,-248
0,2023-03-01T18:55:50.978347,1940513,1366,1847,-593,-1041,-577,-320,-32,112,-248
0,2023-03-01T18:55:50.984820,1940520,1366,1844,-593,-1036,-565,-326,-32,112,-248
0,2023-03-01T18:55:50.990526,1940526,1366,1844,-593,-1036,-565,-326,-32,112,-248
0,2023-03-01T18:55:50.995385,1940531,1366,1844,-593,-1036,-565,-326,-32,112,-248
0,2023-03-01T18:55:51.000637,1940536,1366,1844,-593,-1036,-565,-326,-32,112,-248
0,2023-03-01T18:55:51.007288,1940543,1367,1843,-595,-1038,-575,-324,-32,112,-248
0,2023-03-01T18:55:51.013084,1940549,1367,1843,-595,-1038,-575,-324,-32,112,-248
0,2023-03-01T18:55:51.017810,1940553,1367,1843,-595,-1038,-575,-324,-32,112,-248
0,2023-03-01T18:55:51.023260,1940559,1367,1843,-595,-1038,-575,-324,-32,112,-248
0,2023-03-01T18:55:51.029024,1940564,1364,1845,-596,-1036,-576,-324,-32,112,-248
0,2023-03-01T18:55:51.035115,1940571,1364,1845,-596,-1036,-576,-324,-32,112,-248
0,2023-03-01T18:55:51.040080,1940576,1364,1845,-596,-1036,-576,-324,-32,112,-248
0,2023-03-01T18:55:51.046635,1940582,1364,1843,-593,-1037,-574,-324,-32,112,-248
0,2023-03-01T18:55:51.051962,1940588,1364,1843,-593,-1037,-574,-324,-32,112,-248
0,2023-03-01T18:55:51.057408,1940593,1364,1843,-593,-1037,-574,-324,-32,112,-248
0,2023-03-01T18:55:51.063168,1940599,1364,1843,-593,-1037,-574,-324,-32,112,-248
0,2023-03-01T18:55:51.068283,1940603,1365,1847,-595,-1043,-568,-313,-34,110,-252
0,2023-03-01T18:55:51.073977,1940610,1365,1847,-595,-1043,-568,-313,-34,110,-252
0,2023-03-01T18:55:51.078509,1940615,1365,1847,-595,-1043,-568,-313,-34,110,-252
0,2023-03-01T18:55:51.084383,1940620,1366,1847,-586,-1044,-576,-314,-34,110,-252
0,2023-03-01T18:55:51.089928,1940625,1366,1847,-586,-1044,-576,-314,-34,110,-252
0,2023-03-01T18:55:51.095112,1940631,1366,1847,-586,-1044,-576,-314,-34,110,-252
0,2023-03-01T18:55:51.099965,1940635,1366,1847,-586,-1044,-576,-314,-34,110,-252
0,2023-03-01T18:55:51.106553,1940642,1367,1840,-588,-1040,-583,-330,-34,110,-252
0,2023-03-01T18:55:51.112385,1940647,1367,1840,-588,-1040,-583,-330,-34,110,-252
0,2023-03-01T18:55:51.117793,1940654,1367,1840,-588,-1040,-583,-330,-34,110,-252
0,2023-03-01T18:55:51.123073,1940659,1367,1840,-588,-1040,-583,-330,-34,110,-252
0,2023-03-01T18:55:51.127641,1940664,1370,1845,-584,-1038,-577,-329,-34,110,-252
0,2023-03-01T18:55:51.133325,1940669,1370,1845,-584,-1038,-577,-329,-34,110,-252
0,2023-03-01T18:55:51.138624,1940674,1370,1845,-584,-1038,-577,-329,-34,110,-252
0,2023-03-01T18:55:51.145050,1940680,1366,1837,-582,-1071,-662,-318,-34,110,-252
0,2023-03-01T18:55:51.150906,1940686,1366,1837,-582,-1071,-662,-318,-34,110,-252
0,2023-03-01T18:55:51.156021,1940691,1366,1837,-582,-1071,-662,-318,-34,110,-252
0,2023-03-01T18:55:51.160649,1940697,1366,1837,-582,-1071,-662,-318,-34,110,-252
0,2023-03-01T18:55:51.166951,1940703,1375,1849,-556,-1159,-839,-297,-34,110,-252
0,2023-03-01T18:55:51.172616,1940708,1375,1849,-556,-1159,-839,-297,-34,110,-252
0,2023-03-01T18:55:51.178468,1940713,1375,1849,-556,-1159,-839,-297,-34,110,-252
0,2023-03-01T18:55:51.184924,1940720,1383,1831,-594,-1423,-1333,-223,-34,110,-252
0,2023-03-01T18:55:51.190586,1940726,1383,1831,-594,-1423,-1333,-223,-34,110,-252
0,2023-03-01T18:55:51.195780,1940731,1383,1831,-594,-1423,-1333,-223,-34,110,-252
0,2023-03-01T18:55:51.200921,1940737,1383,1831,-594,-1423,-1333,-223,-34,110,-252
0,2023-03-01T18:55:51.205929,1940742,1379,1820,-652,-1778,-1772,-209,-38,120,-242
0,2023-03-01T18:55:51.211973,1940748,1379,1820,-652,-1778,-1772,-209,-38,120,-242
0,2023-03-01T18:55:51.217256,1940753,1379,1820,-652,-1778,-1772,-209,-38,120,-242
0,2023-03-01T18:55:51.223806,1940759,1379,1820,-652,-1778,-1772,-209,-38,120,-242
0,2023-03-01T18:55:51.230410,1940765,1378,1828,-646,-1919,-1788,-258,-38,120,-242
0,2023-03-01T18:55:51.236613,1940772,1378,1828,-646,-1919,-1788,-258,-38,120,-242
0,2023-03-01T18:55:51.241484,1940777,1378,1828,-646,-1919,-1788,-258,-38,120,-242
0,2023-03-01T18:55:51.248145,1940784,1358,1843,-562,-1963,-1722,-307,-38,120,-242
0,2023-03-01T18:55:51.254197,1940790,1358,1843,-562,-1963,-1722,-307,-38,120,-242
0,2023-03-01T18:55:51.260757,1940796,1358,1843,-562,-1963,-1722,-307,-38,120,-242
0,2023-03-01T18:55:51.267422,1940803,1358,1863,-561,-2062,-1866,-278,-38,120,-242
0,2023-03-01T18:55:51.273041,1940809,1358,1863,-561,-2062,-1866,-278,-38,120,-242
0,2023-03-01T18:55:51.278060,1940813,1358,1863,-561,-2062,-1866,-278,-38,120,-242
0,2023-03-01T18:55:51.283005,1940818,1358,1863,-561,-2062,-1866,-278,-38,120,-242
0,2023-03-01T18:55:51.287586,1940824,1340,1847,-579,-1997,-1693,-265,-38,120,-242
0,2023-03-01T18:55:51.293736,1940829,1340,1847,-579,-1997,-1693,-265,-38,120,-242
0,2023-03-01T18:55:51.299157,1940835,1340,1847,-579,-1997,-1693,-265,-38,120,-242
0,2023-03-01T18:55:51.305723,1940841,1363,1874,-534,-1787,-1326,-311,-38,120,-242
0,2023-03-01T18:55:51.312241,1940847,1363,1874,-534,-1787,-1326,-311,-38,120,-242
0,2023-03-01T18:55:51.317362,1940853,1363,1874,-534,-1787,-1326,-311,-38,120,-242
0,2023-03-01T18:55:51.323981,1940859,1363,1874,-534,-1787,-1326,-311,-38,120,-242
0,2023-03-01T18:55:51.328264,1940865,1365,1840,-584,-1685,-1455,-228,-30,116,-250
0,2023-03-01T18:55:51.334102,1940870,1365,1840,-584,-1685,-1455,-228,-30,116,-250
0,2023-03-01T18:55:51.339468,1940875,1365,1840,-584,-1685,-1455,-228,-30,116,-250
0,2023-03-01T18:55:51.346371,1940882,1374,1836,-638,-1742,-1514,-252,-30,116,-250
0,2023-03-01T18:55:51.352258,1940888,1374,1836,-638,-1742,-1514,-252,-30,116,-250
0,2023-03-01T18:55:51.357863,1940893,1374,1836,-638,-1742,-1514,-252,-30,116,-250
0,2023-03-01T18:55:51.364007,1940899,1374,1836,-638,-1742,-1514,-252,-30,116,-250
0,2023-03-01T18:55:51.369184,1940904,1371,1824,-641,-1754,-1455,-261,-30,116,-250
0,2023-03-01T18:55:51.374898,1940911,1371,1824,-641,-1754,-1455,-261,-30,116,-250
0,2023-03-01T18:55:51.379590,1940916,1371,1824,-641,-1754,-1455,-261,-30,116,-250
0,2023-03-01T18:55:51.385364,1940921,1377,1849,-601,-1878,-1510,-305,-30,116,-250
0,2023-03-01T18:55:51.390778,1940926,1377,1849,-601,-1878,-1510,-305,-30,116,-250
0,2023-03-01T18:55:51.395760,1940931,1377,1849,-601,-1878,-1510,-305,-30,116,-250
0,2023-03-01T18:55:51.400831,1940936,1377,1849,-601,-1878,-1510,-305,-30,116,-250
0,2023-03-01T18:55:51.407386,1940942,1350,1834,-586,-1948,-1697,-272,-30,116,-250
0,2023-03-01T18:55:51.413318,1940950,1350,1834,-586,-1948,-1697,-272,-30,116,-250
0,2023-03-01T18:55:51.418383,1940954,1350,1834,-586,-1948,-1697,-272,-30,116,-250
0,2023-03-01T18:55:51.424755,1940960,1365,1875,-561,-2010,-1634,-309,-30,116,-250
0,2023-03-01T18:55:51.430696,1940966,1365,1875,-561,-2010,-1634,-309,-30,116,-250
0,2023-03-01T18:55:51.435697,1940971,1365,1875,-561,-2010,-1634,-309,-30,116,-250
0,2023-03-01T18:55:51.440500,1940976,1365,1875,-561,-2010,-1634,-309,-30,116,-250
0,2023-03-01T18:55:51.447483,1940982,1350,1854,-542,-1853,-1681,-245,-30,116,-250
0,2023-03-01T18:55:51.453128,1940988,1350,1854,-542,-1853,-1681,-245,-30,116,-250
0,2023-03-01T18:55:51.458183,1940994,1350,1854,-542,-1853,-1681,-245,-30,116,-250
0,2023-03-01T18:55:51.462943,1940999,1350,1854,-542,-1853,-1681,-245,-30,116,-250
0,2023-03-01T18:55:51.468785,1941004,1355,1849,-588,-1793,-1672,-244,-28,116,-248
0,2023-03-01T18:55:51.474861,1941011,1355,1849,-588,-1793,-1672,-244,-28,116,-248
0,2023-03-01T18:55:51.479741,1941015,1355,1849,-588,-1793,-1672,-244,-28,116,-248
0,2023-03-01T18:55:51.486465,1941021,1365,1855,-588,-1687,-1520,-277,-28,116,-248
0,2023-03-01T18:55:51.492155,1941028,1365,1855,-588,-1687,-1520,-277,-28,116,-248
0,2023-03-01T18:55:51.497111,1941032,1365,1855,-588,-1687,-1520,-277,-28,116,-248
0,2023-03-01T18:55:51.502862,1941039,1365,1855,-588,-1687,-1520,-277,-28,116,-248
0,2023-03-01T18:55:51.508250,1941044,1358,1832,-590,-1612,-1498,-245,-28,116,-248
0,2023-03-01T18:55:51.514221,1941050,1358,1832,-590,-1612,-1498,-245,-28,116,-248
0,2023-03-01T18:55:51.518968,1941055,1358,1832,-590,-1612,-1498,-245,-28,116,-248
0,2023-03-01T18:55:51.525050,1941061,1383,1871,-597,-1863,-1525,-315,-28,116,-248
0,2023-03-01T18:55:51.530489,1941066,1383,1871,-597,-1863,-1525,-315,-28,116,-248
0,2023-03-01T18:55:51.536061,1941071,1383,1871,-597,-1863,-1525,-315,-28,116,-248
0,2023-03-01T18:55:51.541373,1941076,1383,1871,-597,-1863,-1525,-315,-28,116,-248
0,2023-03-01T18:55:51.547866,1941084,1356,1820,-613,-1905,-1745,-235,-28,116,-248
0,2023-03-01T18:55:51.553187,1941089,1356,1820,-613,-1905,-1745,-235,-28,116,-248
0,2023-03-01T18:55:51.558479,1941094,1356,1820,-613,-1905,-1745,-235,-28,116,-248
0,2023-03-01T18:55:51.564662,1941100,1361,1846,-596,-1916,-1744,-272,-28,116,-248
0,2023-03-01T18:55:51.570377,1941106,1361,1846,-596,-1916,-1744,-272,-28,116,-248
0,2023-03-01T18:55:51.575232,1941111,1361,1846,-596,-1916,-1744,-272,-28,116,-248
0,2023-03-01T18:55:51.580569,1941116,1361,1846,-596,-1916,-1744,-272,-28,116,-248
0,2023-03-01T18:55:51.587069,1941123,1361,1862,-581,-2045,-1671,-309,-19,119,-247
0,2023-03-01T18:55:51.593656,1941129,1361,1862,-581,-2045,-1671,-309,-19,119,-247
0,2023-03-01T18:55:51.599172,1941135,1361,1862,-581,-2045,-1671,-309,-19,119,-247
0,2023-03-01T18:55:51.605728,1941141,1350,1847,-541,-1943,-1650,-267,-19,119,-247
0,2023-03-01T18:55:51.611215,1941147,1350,1847,-541,-1943,-1650,-267,-19,119,-247
0,2023-03-01T18:55:51.616046,1941152,1350,1847,-541,-1943,-1650,-267,-19,119,-247
0,2023-03-01T18:55:51.620744,1941156,1350,1847,-541,-1943,-1650,-267,-19,119,-247
0,2023-03-01T18:55:51.627347,1941163,1356,1859,-575,-1791,-1688,-261,-19,119,-247
0,2023-03-01T18:55:51.633323,1941169,1356,1859,-575,-1791,-1688,-261,-19,119,-247
0,2023-03-01T18:55:51.639000,1941175,1356,1859,-575,-1791,-1688,-261,-19,119,-247
0,2023-03-01T18:55:51.645231,1941181,1368,1870,-577,-1799,-1553,-297,-19,119,-247
0,2023-03-01T18:55:51.650922,1941186,1368,1870,-577,-1799,-1553,-297,-19,119,-247
0,2023-03-01T18:55:51.656311,1941192,1368,1870,-577,-1799,-1553,-297,-19,119,-247
0,2023-03-01T18:55:51.661013,1941197,1368,1870,-577,-1799,-1553,-297,-19,119,-247
0,2023-03-01T18:55:51.667426,1941203,1351,1830,-597,-1705,-1618,-221,-19,119,-247
0,2023-03-01T18:55:51.673039,1941209,1351,1830,-597,-1705,-1618,-221,-19,119,-247
0,2023-03-01T18:55:51.678847,1941215,1351,1830,-597,-1705,-1618,-221,-19,119,-247
0,2023-03-01T18:55:51.684736,1941221,1367,1842,-619,-1833,-1590,-279,-19,119,-247
0,2023-03-01T18:55:51.691143,1941226,1367,1842,-619,-1833,-1590,-279,-19,119,-247
0,2023-03-01T18:55:51.696648,1941232,1367,1842,-619,-1833,-1590,-279,-19,119,-247
0,2023-03-01T18:55:51.701987,1941237,1367,1842,-619,-1833,-1590,-279,-19,119,-247
0,2023-03-01T18:55:51.707842,1941243,1363,1848,-590,-1879,-1621,-273,-19,119,-247
0,2023-03-01T18:55:51.714274,1941250,1363,1848,-590,-1879,-1621,-273,-19,119,-247
0,2023-03-01T18:55:51.718900,1941255,1363,1848,-590,-1879,-1621,-273,-19,119,-247
0,2023-03-01T18:55:51.724657,1941260,1363,1848,-590,-1879,-1621,-273,-19,119,-247
0,2023-03-01T18:55:51.729861,1941265,1363,1842,-589,-1913,-1761,-250,-35,111,-245
0,2023-03-01T18:55:51.735531,1941271,1363,1842,-589,-1913,-1761,-250,-35,111,-245
0,2023-03-01T18:55:51.741080,1941277,1363,1842,-589,-1913,-1761,-250,-35,111,-245
0,2023-03-01T18:55:51.745416,1941281,1362,1860,-575,-2038,-1790,-292,-35,111,-245
0,2023-03-01T18:55:51.751015,1941286,1362,1860,-575,-2038,-1790,-292,-35,111,-245
0,2023-03-01T18:55:51.756434,1941292,1362,1860,-575,-2038,-1790,-292,-35,111,-245
0,2023-03-01T18:55:51.761191,1941297,1362,1860,-575,-2038,-1790,-292,-35,111,-245
0,2023-03-01T18:55:51.767340,1941303,1343,1832,-591,-1949,-1756,-257,-35,111,-245
0,2023-03-01T18:55:51.773149,1941309,1343,1832,-591,-1949,-1756,-257,-35,111,-245
0,2023-03-01T18:55:51.778342,1941314,1343,1832,-591,-1949,-1756,-257,-35,111,-245
0,2023-03-01T18:55:51.784504,1941320,1343,1832,-591,-1949,-1756,-257,-35,111,-245
0,2023-03-01T18:55:51.789306,1941325,1365,1885,-557,-1866,-1534,-329,-35,111,-245
0,2023-03-01T18:55:51.794417,1941330,1365,1885,-557,-1866,-1534,-329,-35,111,-245
0,2023-03-01T18:55:51.799138,1941335,1365,1885,-557,-1866,-1534,-329,-35,111,-245
0,2023-03-01T18:55:51.804858,1941341,1340,1843,-569,-1727,-1605,-246,-35,111,-245
0,2023-03-01T18:55:51.810987,1941347,1340,1843,-569,-1727,-1605,-246,-35,111,-245
0,2023-03-01T18:55:51.816302,1941352,1340,1843,-569,-1727,-1605,-246,-35,111,-245
0,2023-03-01T18:55:51.821056,1941357,1340,1843,-569,-1727,-1605,-246,-35,111,-245
0,2023-03-01T18:55:51.827077,1941363,1369,1867,-601,-1802,-1523,-290,-35,111,-245
0,2023-03-01T18:55:51.832232,1941368,1369,1867,-601,-1802,-1523,-290,-35,111,-245
0,2023-03-01T18:55:51.837228,1941372,1369,1867,-601,-1802,-1523,-290,-35,111,-245
0,2023-03-01T18:55:51.842955,1941379,1369,1867,-601,-1802,-1523,-290,-35,111,-245
0,2023-03-01T18:55:51.848385,1941384,1352,1834,-597,-1709,-1545,-250,-21,113,-243
0,2023-03-01T18:55:51.853581,1941390,1352,1834,-597,-1709,-1545,-250,-21,113,-243
0,2023-03-01T18:55:51.858594,1941395,1352,1834,-597,-1709,-1545,-250,-21,113,-243
0,2023-03-01T18:55:51.863857,1941400,1352,1834,-597,-1709,-1545,-250,-21,113,-243
0,2023-03-01T18:55:51.868754,1941404,1350,1825,-589,-1761,-1553,-251,-21,113,-243
0,2023-03-01T18:55:51.874599,1941410,1350,1825,-589,-1761,-1553,-251,-21,113,-243
0,2023-03-01T18:55:51.879172,1941415,1350,1825,-589,-1761,-1553,-251,-21,113,-243
0,2023-03-01T18:55:51.885449,1941422,1384,1887,-598,-1986,-1530,-345,-21,113,-243
0,2023-03-01T18:55:51.890951,1941427,1384,1887,-598,-1986,-1530,-345,-21,113,-243
0,2023-03-01T18:55:51.896511,1941432,1384,1887,-598,-1986,-1530,-345,-21,113,-243
0,2023-03-01T18:55:51.901691,1941437,1384,1887,-598,-1986,-1530,-345,-21,113,-243
0,2023-03-01T18:55:51.908423,1941443,1340,1828,-584,-1902,-1698,-247,-21,113,-243
0,2023-03-01T18:55:51.914013,1941449,1340,1828,-584,-1902,-1698,-247,-21,113,-243
0,2023-03-01T18:55:51.919608,1941455,1340,1828,-584,-1902,-1698,-247,-21,113,-243
0,2023-03-01T18:55:51.926438,1941462,1350,1862,-565,-1865,-1671,-291,-21,113,-243
0,2023-03-01T18:55:51.932126,1941468,1350,1862,-565,-1865,-1671,-291,-21,113,-243
0,2023-03-01T18:55:51.937481,1941474,1350,1862,-565,-1865,-1671,-291,-21,113,-243
0,2023-03-01T18:55:51.942825,1941479,1350,1862,-565,-1865,-1671,-291,-21,113,-243
0,2023-03-01T18:55:51.948079,1941483,1350,1872,-573,-1848,-1602,-311,-21,113,-243
0,2023-03-01T18:55:51.953971,1941489,1350,1872,-573,-1848,-1602,-311,-21,113,-243
0,2023-03-01T18:55:51.959915,1941495,1350,1872,-573,-1848,-1602,-311,-21,113,-243
0,2023-03-01T18:55:51.966185,1941502,1335,1840,-554,-1782,-1539,-253,-30,110,-244
0,2023-03-01T18:55:51.971726,1941508,1335,1840,-554,-1782,-1539,-253,-30,110,-244
0,2023-03-01T18:55:51.976608,1941513,1335,1840,-554,-1782,-1539,-253,-30,110,-244
0,2023-03-01T18:55:51.981683,1941518,1335,1840,-554,-1782,-1539,-253,-30,110,-244
0,2023-03-01T18:55:51.988382,1941524,1367,1879,-586,-1774,-1539,-291,-30,110,-244
0,2023-03-01T18:55:51.994123,1941530,1367,1879,-586,-1774,-1539,-291,-30,110,-244
0,2023-03-01T18:55:51.998974,1941535,1367,1879,-586,-1774,-1539,-291,-30,110,-244
0,2023-03-01T18:55:52.006009,1941541,1345,1826,-577,-1729,-1579,-228,-30,110,-244
0,2023-03-01T18:55:52.012399,1941548,1345,1826,-577,-1729,-1579,-228,-30,110,-244
0,2023-03-01T18:55:52.017660,1941553,1345,1826,-577,-1729,-1579,-228,-30,110,-244
0,2023-03-01T18:55:52.025460,1941561,1377,1874,-602,-1877,-1506,-308,-30,110,-244
0,2023-03-01T18:55:52.032386,1941568,1377,1874,-602,-1877,-1506,-308,-30,110,-244
0,2023-03-01T18:55:52.037238,1941573,1377,1874,-602,-1877,-1506,-308,-30,110,-244
0,2023-03-01T18:55:52.043240,1941578,1377,1874,-602,-1877,-1506,-308,-30,110,-244
0,2023-03-01T18:55:52.049546,1941585,1346,1843,-579,-1815,-1610,-270,-30,110,-244
0,2023-03-01T18:55:52.055639,1941592,1346,1843,-579,-1815,-1610,-270,-30,110,-244
0,2023-03-01T18:55:52.060566,1941597,1346,1843,-579,-1815,-1610,-270,-30,110,-244
0,2023-03-01T18:55:52.066510,1941602,1350,1847,-575,-1885,-1640,-293,-30,110,-244
0,2023-03-01T18:55:52.072011,1941608,1350,1847,-575,-1885,-1640,-293,-30,110,-244
0,2023-03-01T18:55:52.077475,1941613,1350,1847,-575,-1885,-1640,-293,-30,110,-244
0,2023-03-01T18:55:52.083450,1941619,1350,1847,-575,-1885,-1640,-293,-30,110,-244
0,2023-03-01T18:55:52.089133,1941625,1353,1874,-558,-1907,-1677,-310,-30,110,-244
0,2023-03-01T18:55:52.094794,1941630,1353,1874,-558,-1907,-1677,-310,-30,110,-244
0,2023-03-01T18:55:52.100085,1941636,1353,1874,-558,-1907,-1677,-310,-30,110,-244
0,2023-03-01T18:55:52.106949,1941643,1338,1843,-582,-1918,-1708,-267,-33,109,-255
0,2023-03-01T18:55:52.112697,1941648,1338,1843,-582,-1918,-1708,-267,-33,109,-255
0,2023-03-01T18:55:52.117561,1941653,1338,1843,-582,-1918,-1708,-267,-33,109,-255
0,2023-03-01T18:55:52.122697,1941658,1338,1843,-582,-1918,-1708,-267,-33,109,-255
0,2023-03-01T18:55:52.128951,1941663,1356,1869,-567,-1888,-1583,-308,-33,109,-255
0,2023-03-01T18:55:52.136546,1941671,1356,1869,-567,-1888,-1583,-308,-33,109,-255
0,2023-03-01T18:55:52.141637,1941678,1356,1869,-567,-1888,-1583,-308,-33,109,-255
0,2023-03-01T18:55:52.148477,1941684,1347,1856,-592,-1725,-1603,-259,-33,109,-255
0,2023-03-01T18:55:52.154408,1941690,1347,1856,-592,-1725,-1603,-259,-33,109,-255
0,2023-03-01T18:55:52.159840,1941695,1347,1856,-592,-1725,-1603,-259,-33,109,-255
0,2023-03-01T18:55:52.165891,1941702,1360,1880,-564,-1847,-1439,-324,-33,109,-255
0,2023-03-01T18:55:52.171642,1941707,1360,1880,-564,-1847,-1439,-324,-33,109,-255
0,2023-03-01T18:55:52.177079,1941712,1360,1880,-564,-1847,-1439,-324,-33,109,-255
0,2023-03-01T18:55:52.182876,1941719,1360,1880,-564,-1847,-1439,-324,-33,109,-255
0,2023-03-01T18:55:52.188360,1941725,1340,1843,-584,-1765,-1564,-258,-33,109,-255
0,2023-03-01T18:55:52.193769,1941730,1340,1843,-584,-1765,-1564,-258,-33,109,-255
0,2023-03-01T18:55:52.198659,1941735,1340,1843,-584,-1765,-1564,-258,-33,109,-255
0,2023-03-01T18:55:52.204516,1941740,1340,1843,-584,-1765,-1564,-258,-33,109,-255
0,2023-03-01T18:55:52.209446,1941745,1356,1852,-581,-1748,-1534,-279,-33,109,-255
0,2023-03-01T18:55:52.214954,1941750,1356,1852,-581,-1748,-1534,-279,-33,109,-255
0,2023-03-01T18:55:52.219923,1941755,1356,1852,-581,-1748,-1534,-279,-33,109,-255
0,2023-03-01T18:55:52.225628,1941762,1359,1865,-569,-1773,-1519,-300,-15,111,-247
0,2023-03-01T18:55:52.231373,1941767,1359,1865,-569,-1773,-1519,-300,-15,111,-247
0,2023-03-01T18:55:52.236384,1941772,1359,1865,-569,-1773,-1519,-300,-15,111,-247
0,2023-03-01T18:55:52.241551,1941777,1359,1865,-569,-1773,-1519,-300,-15,111,-247
0,2023-03-01T18:55:52.248905,1941784,1332,1822,-567,-1819,-1544,-261,-15,111,-247
0,2023-03-01T18:55:52.255137,1941791,1332,1822,-567,-1819,-1544,-261,-15,111,-247
0,2023-03-01T18:55:52.259983,1941795,1332,1822,-567,-1819,-1544,-261,-15,111,-247
0,2023-03-01T18:55:52.264740,1941800,1332,1822,-567,-1819,-1544,-261,-15,111,-247
0,2023-03-01T18:55:52.269442,1941806,1373,1892,-567,-1935,-1479,-342,-15,111,-247
0,2023-03-01T18:55:52.274881,1941811,1373,1892,-567,-1935,-1479,-342,-15,111,-247
0,2023-03-01T18:55:52.280055,1941816,1373,1892,-567,-1935,-1479,-342,-15,111,-247
0,2023-03-01T18:55:52.286232,1941822,1343,1851,-583,-1760,-1608,-262,-15,111,-247
0,2023-03-01T18:55:52.292551,1941828,1343,1851,-583,-1760,-1608,-262,-15,111,-247
0,2023-03-01T18:55:52.297477,1941833,1343,1851,-583,-1760,-1608,-262,-15,111,-247
0,2023-03-01T18:55:52.302963,1941838,1343,1851,-583,-1760,-1608,-262,-15,111,-247
0,2023-03-01T18:55:52.307615,1941843,1344,1859,-544,-1720,-1576,-281,-15,111,-247
0,2023-03-01T18:55:52.312941,1941849,1344,1859,-544,-1720,-1576,-281,-15,111,-247
0,2023-03-01T18:55:52.317802,1941854,1344,1859,-544,-1720,-1576,-281,-15,111,-247
0,2023-03-01T18:55:52.323486,1941859,1344,1859,-544,-1720,-1576,-281,-15,111,-247
0,2023-03-01T18:55:52.328242,1941864,1355,1865,-585,-1831,-1613,-310,-15,111,-247
0,2023-03-01T18:55:52.334118,1941870,1355,1865,-585,-1831,-1613,-310,-15,111,-247
0,2023-03-01T18:55:52.339843,1941875,1355,1865,-585,-1831,-1613,-310,-15,111,-247
0,2023-03-01T18:55:52.346727,1941882,1344,1855,-573,-1849,-1656,-273,-15,111,-247
0,2023-03-01T18:55:52.352453,1941889,1344,1855,-573,-1849,-1656,-273,-15,111,-247
0,2023-03-01T18:55:52.357186,1941893,1344,1855,-573,-1849,-1656,-273,-15,111,-247
0,2023-03-01T18:55:52.362616,1941899,1344,1855,-573,-1849,-1656,-273,-15,111,-247
0,2023-03-01T18:55:52.368593,1941904,1349,1846,-609,-1867,-1680,-284,-25,105,-249
0,2023-03-01T18:55:52.374143,1941910,1349,1846,-609,-1867,-1680,-284,-25,105,-249
0,2023-03-01T18:55:52.379105,1941915,1349,1846,-609,-1867,-1680,-284,-25,105,-249
0,2023-03-01T18:55:52.384790,1941920,1349,1846,-609,-1867,-1680,-284,-25,105,-249
0,2023-03-01T18:55:52.389728,1941925,1352,1872,-548,-1896,-1599,-327,-25,105,-249
0,2023-03-01T18:55:52.395108,1941931,1352,1872,-548,-1896,-1599,-327,-25,105,-249
0,2023-03-01T18:55:52.400118,1941936,1352,1872,-548,-1896,-1599,-327,-25,105,-249
0,2023-03-01T18:55:52.404954,1941941,1352,1872,-548,-1896,-1599,-327,-25,105,-249
0,2023-03-01T18:55:52.410233,1941946,1352,1856,-589,-1909,-1708,-279,-25,105,-249
0,2023-03-01T18:55:52.415777,1941952,1352,1856,-589,-1909,-1708,-279,-25,105,-249
0,2023-03-01T18:55:52.420766,1941956,1352,1856,-589,-1909,-1708,-279,-25,105,-249
0,2023-03-01T18:55:52.426681,1941962,1343,1861,-552,-1890,-1659,-304,-25,105,-249
0,2023-03-01T18:55:52.432245,1941968,1343,1861,-552,-1890,-1659,-304,-25,105,-249
0,2023-03-01T18:55:52.437109,1941972,1343,1861,-552,-1890,-1659,-304,-25,105,-249
0,2023-03-01T18:55:52.444771,1941981,1343,1861,-552,-1890,-1659,-304,-25,105,-249
0,2023-03-01T18:55:52.451175,1941987,1346,1856,-591,-1861,-1604,-296,-25,105,-249
0,2023-03-01T18:55:52.457291,1941993,1346,1856,-591,-1861,-1604,-296,-25,105,-249
0,2023-03-01T18:55:52.462509,1941998,1346,1856,-591,-1861,-1604,-296,-25,105,-249
0,2023-03-01T18:55:52.468792,1942004,1347,1867,-535,-1821,-1554,-299,-25,105,-249
0,2023-03-01T18:55:52.474474,1942010,1347,1867,-535,-1821,-1554,-299,-25,105,-249
0,2023-03-01T18:55:52.480047,1942016,1347,1867,-535,-1821,-1554,-299,-25,105,-249
0,2023-03-01T18:55:52.486512,1942023,1337,1850,-588,-1794,-1720,-255,-24,114,-246
0,2023-03-01T18:55:52.492291,1942028,1337,1850,-588,-1794,-1720,-255,-24,114,-246
0,2023-03-01T18:55:52.497498,1942033,1337,1850,-588,-1794,-1720,-255,-24,114,-246
0,2023-03-01T18:55:52.503098,1942039,1337,1850,-588,-1794,-1720,-255,-24,114,-246
0,2023-03-01T18:55:52.508811,1942044,1360,1882,-576,-1917,-1574,-328,-24,114,-246
0,2023-03-01T18:55:52.514545,1942050,1360,1882,-576,-1917,-1574,-328,-24,114,-246
0,2023-03-01T18:55:52.519763,1942055,1360,1882,-576,-1917,-1574,-328,-24,114,-246
0,2023-03-01T18:55:52.525897,1942062,1333,1845,-578,-1830,-1659,-273,-24,114,-246
0,2023-03-01T18:55:52.531482,1942067,1333,1845,-578,-1830,-1659,-273,-24,114,-246
0,2023-03-01T18:55:52.536644,1942072,1333,1845,-578,-1830,-1659,-273,-24,114,-246
0,2023-03-01T18:55:52.541601,1942078,1333,1845,-578,-1830,-1659,-273,-24,114,-246
0,2023-03-01T18:55:52.547792,1942083,1334,1838,-551,-1898,-1659,-289,-24,114,-246
0,2023-03-01T18:55:52.554111,1942089,1334,1838,-551,-1898,-1659,-289,-24,114,-246
0,2023-03-01T18:55:52.559279,1942095,1334,1838,-551,-1898,-1659,-289,-24,114,-246
0,2023-03-01T18:55:52.565486,1942102,1334,1838,-551,-1898,-1659,-289,-24,114,-246
0,2023-03-01T18:55:52.570888,1942107,1369,1897,-571,-2049,-1659,-349,-24,114,-246
0,2023-03-01T18:55:52.576593,1942113,1369,1897,-571,-2049,-1659,-349,-24,114,-246
0,2023-03-01T18:55:52.581756,1942117,1369,1897,-571,-2049,-1659,-349,-24,114,-246
0,2023-03-01T18:55:52.587149,1942123,1335,1847,-571,-1903,-1801,-257,-24,114,-246
0,2023-03-01T18:55:52.593414,1942128,1335,1847,-571,-1903,-1801,-257,-24,114,-246
0,2023-03-01T18:55:52.598452,1942134,1335,1847,-571,-1903,-1801,-257,-24,114,-246
0,2023-03-01T18:55:52.604763,1942140,1335,1847,-571,-1903,-1801,-257,-24,114,-246
0,2023-03-01T18:55:52.610265,1942146,1334,1863,-565,-1854,-1735,-279,-24,114,-246
0,2023-03-01T18:55:52.616158,1942152,1334,1863,-565,-1854,-1735,-279,-24,114,-246
0,2023-03-01T18:55:52.621002,1942157,1334,1863,-565,-1854,-1735,-279,-24,114,-246
0,2023-03-01T18:55:52.626815,1942163,1345,1877,-578,-1873,-1556,-324,-30,104,-252
0,2023-03-01T18:55:52.632296,1942168,1345,1877,-578,-1873,-1556,-324,-30,104,-252
0,2023-03-01T18:55:52.636850,1942173,1345,1877,-578,-1873,-1556,-324,-30,104,-252
0,2023-03-01T18:55:52.642238,1942178,1345,1877,-578,-1873,-1556,-324,-30,104,-252
0,2023-03-01T18:55:52.648767,1942184,1332,1859,-521,-1766,-1464,-294,-30,104,-252
0,2023-03-01T18:55:52.654595,1942191,1332,1859,-521,-1766,-1464,-294,-30,104,-252
0,2023-03-01T18:55:52.659545,1942196,1332,1859,-521,-1766,-1464,-294,-30,104,-252
0,2023-03-01T18:55:52.665896,1942202,1341,1865,-570,-1752,-1582,-276,-30,104,-252
0,2023-03-01T18:55:52.671535,1942207,1341,1865,-570,-1752,-1582,-276,-30,104,-252
0,2023-03-01T18:55:52.677393,1942212,1341,1865,-570,-1752,-1582,-276,-30,104,-252
0,2023-03-01T18:55:52.683076,1942218,1341,1865,-570,-1752,-1582,-276,-30,104,-252
0,2023-03-01T18:55:52.689488,1942225,1346,1870,-567,-1784,-1601,-287,-30,104,-252
0,2023-03-01T18:55:52.694655,1942231,1346,1870,-567,-1784,-1601,-287,-30,104,-252
0,2023-03-01T18:55:52.699753,1942236,1346,1870,-567,-1784,-1601,-287,-30,104,-252
0,2023-03-01T18:55:52.706787,1942242,1338,1838,-602,-1794,-1575,-275,-30,104,-252
0,2023-03-01T18:55:52.711302,1942247,1338,1838,-602,-1794,-1575,-275,-30,104,-252
0,2023-03-01T18:55:52.716342,1942252,1338,1838,-602,-1794,-1575,-275,-30,104,-252
0,2023-03-01T18:55:52.721573,1942257,1338,1838,-602,-1794,-1575,-275,-30,104,-252
0,2023-03-01T18:55:52.727896,1942263,1350,1876,-538,-1855,-1506,-346,-30,104,-252
0,2023-03-01T18:55:52.733737,1942269,1350,1876,-538,-1855,-1506,-346,-30,104,-252
0,2023-03-01T18:55:52.738951,1942275,1350,1876,-538,-1855,-1506,-346,-30,104,-252
0,2023-03-01T18:55:52.744493,1942281,1350,1876,-538,-1855,-1506,-346,-30,104,-252
0,2023-03-01T18:55:52.749387,1942285,1340,1867,-585,-1857,-1729,-270,-31,105,-249
0,2023-03-01T18:55:52.755564,1942291,1340,1867,-585,-1857,-1729,-270,-31,105,-249
0,2023-03-01T18:55:52.760678,1942296,1340,1867,-585,-1857,-1729,-270,-31,105,-249
0,2023-03-01T18:55:52.766190,1942302,1352,1880,-557,-2024,-1566,-347,-31,105,-249
0,2023-03-01T18:55:52.772305,1942308,1352,1880,-557,-2024,-1566,-347,-31,105,-249
0,2023-03-01T18:55:52.777390,1942312,1352,1880,-557,-2024,-1566,-347,-31,105,-249
0,2023-03-01T18:55:52.783198,1942319,1352,1880,-557,-2024,-1566,-347,-31,105,-249
0,2023-03-01T18:55:52.790250,1942326,1327,1854,-548,-1887,-1594,-303,-31,105,-249
0,2023-03-01T18:55:52.795854,1942332,1327,1854,-548,-1887,-1594,-303,-31,105,-249
0,2023-03-01T18:55:52.801324,1942337,1327,1854,-548,-1887,-1594,-303,-31,105,-249
0,2023-03-01T18:55:52.807380,1942343,1346,1887,-556,-1753,-1629,-280,-31,105,-249
0,2023-03-01T18:55:52.813180,1942348,1346,1887,-556,-1753,-1629,-280,-31,105,-249
0,2023-03-01T18:55:52.818436,1942354,1346,1887,-556,-1753,-1629,-280,-31,105,-249
0,2023-03-01T18:55:52.823997,1942360,1346,1887,-556,-1753,-1629,-280,-31,105,-249
0,2023-03-01T18:55:52.829360,1942365,1323,1851,-546,-1732,-1624,-265,-31,105,-249
0,2023-03-01T18:55:52.835149,1942371,1323,1851,-546,-1732,-1624,-265,-31,105,-249
0,2023-03-01T18:55:52.839771,1942376,1323,1851,-546,-1732,-1624,-265,-31,105,-249
0,2023-03-01T18:55:52.845772,1942382,1357,1888,-575,-1846,-1534,-316,-31,105,-249
0,2023-03-01T18:55:52.851252,1942387,1357,1888,-575,-1846,-1534,-316,-31,105,-249
0,2023-03-01T18:55:52.855944,1942391,1357,1888,-575,-1846,-1534,-316,-31,105,-249
0,2023-03-01T18:55:52.860676,1942396,1357,1888,-575,-1846,-1534,-316,-31,105,-249
0,2023-03-01T18:55:52.866599,1942403,1337,1854,-561,-1779,-1584,-273,-25,111,-253
0,2023-03-01T18:55:52.872564,1942409,1337,1854,-561,-1779,-1584,-273,-25,111,-253
0,2023-03-01T18:55:52.877662,1942413,1337,1854,-561,-1779,-1584,-273,-25,111,-253
0,2023-03-01T18:55:52.882662,1942418,1337,1854,-561,-1779,-1584,-273,-25,111,-253
0,2023-03-01T18:55:52.887882,1942424,1331,1843,-574,-1814,-1606,-298,-25,111,-253
0,2023-03-01T18:55:52.894362,1942429,1331,1843,-574,-1814,-1606,-298,-25,111,-253
0,2023-03-01T18:55:52.899930,1942435,1331,1843,-574,-1814,-1606,-298,-25,111,-253
0,2023-03-01T18:55:52.906625,1942443,1354,1897,-547,-1904,-1566,-354,-25,111,-253
0,2023-03-01T18:55:52.912049,1942448,1354,1897,-547,-1904,-1566,-354,-25,111,-253
0,2023-03-01T18:55:52.917013,1942453,1354,1897,-547,-1904,-1566,-354,-25,111,-253
0,2023-03-01T18:55:52.922846,1942459,1354,1897,-547,-1904,-1566,-354,-25,111,-253
0,2023-03-01T18:55:52.927968,1942464,1334,1863,-564,-1835,-1726,-270,-25,111,-253
0,2023-03-01T18:55:52.933386,1942469,1334,1863,-564,-1835,-1726,-270,-25,111,-253
0,2023-03-01T18:55:52.937910,1942474,1334,1863,-564,-1835,-1726,-270,-25,111,-253
0,2023-03-01T18:55:52.942834,1942479,1334,1863,-564,-1835,-1726,-270,-25,111,-253
0,2023-03-01T18:55:52.947823,1942483,1338,1862,-554,-2002,-1631,-317,-25,111,-253
0,2023-03-01T18:55:52.953882,1942490,1338,1862,-554,-2002,-1631,-317,-25,111,-253
0,2023-03-01T18:55:52.958822,1942495,1338,1862,-554,-2002,-1631,-317,-25,111,-253
0,2023-03-01T18:55:52.964792,1942501,1338,1862,-554,-2002,-1631,-317,-25,111,-253
0,2023-03-01T18:55:52.969761,1942505,1336,1861,-566,-1918,-1601,-312,-25,111,-253
0,2023-03-01T18:55:52.975087,1942511,1336,1861,-566,-1918,-1601,-312,-25,111,-253
0,2023-03-01T18:55:52.980144,1942516,1336,1861,-566,-1918,-1601,-312,-25,111,-253
0,2023-03-01T18:55:52.986573,1942521,1336,1861,-566,-1918,-1601,-312,-25,111,-253
0,2023-03-01T18:55:52.992224,1942528,1347,1887,-563,-1737,-1557,-305,-25,111,-253
0,2023-03-01T18:55:52.998141,1942534,1347,1887,-563,-1737,-1557,-305,-25,111,-253
0,2023-03-01T18:55:53.004243,1942540,1347,1887,-563,-1737,-1557,-305,-25,111,-253
0,2023-03-01T18:55:53.010401,1942546,1329,1869,-541,-1700,-1561,-295,-21,109,-251
0,2023-03-01T18:55:53.016048,1942552,1329,1869,-541,-1700,-1561,-295,-21,109,-251
0,2023-03-01T18:55:53.020875,1942556,1329,1869,-541,-1700,-1561,-295,-21,109,-251
0,2023-03-01T18:55:53.027030,1942562,1335,1871,-574,-1864,-1484,-323,-21,109,-251
0,2023-03-01T18:55:53.032600,1942568,1335,1871,-574,-1864,-1484,-323,-21,109,-251
0,2023-03-01T18:55:53.037719,1942574,1335,1871,-574,-1864,-1484,-323,-21,109,-251
0,2023-03-01T18:55:53.043910,1942580,1335,1871,-574,-1864,-1484,-323,-21,109,-251
0,2023-03-01T18:55:53.049301,1942585,1333,1865,-539,-1811,-1503,-302,-21,109,-251
0,2023-03-01T18:55:53.054896,1942591,1333,1865,-539,-1811,-1503,-302,-21,109,-251
0,2023-03-01T18:55:53.060188,1942596,1333,1865,-539,-1811,-1503,-302,-21,109,-251
0,2023-03-01T18:55:53.065910,1942602,1333,1865,-539,-1811,-1503,-302,-21,109,-251
0,2023-03-01T18:55:53.071204,1942606,1342,1876,-587,-1725,-1609,-285,-21,109,-251
0,2023-03-01T18:55:53.077054,1942612,1342,1876,-587,-1725,-1609,-285,-21,109,-251
0,2023-03-01T18:55:53.082009,1942618,1342,1876,-587,-1725,-1609,-285,-21,109,-251
0,2023-03-01T18:55:53.087917,1942624,1333,1867,-541,-1736,-1540,-282,-21,109,-251
0,2023-03-01T18:55:53.093986,1942630,1333,1867,-541,-1736,-1540,-282,-21,109,-251
0,2023-03-01T18:55:53.099052,1942635,1333,1867,-541,-1736,-1540,-282,-21,109,-251
0,2023-03-01T18:55:53.105373,1942641,1333,1867,-541,-1736,-1540,-282,-21,109,-251
0,2023-03-01T18:55:53.110504,1942646,1348,1880,-568,-1917,-1481,-344,-21,109,-251
0,2023-03-01T18:55:53.116440,1942651,1348,1880,-568,-1917,-1481,-344,-21,109,-251
0,2023-03-01T18:55:53.121466,1942657,1348,1880,-568,-1917,-1481,-344,-21,109,-251
0,2023-03-01T18:55:53.127177,1942663,1330,1867,-519,-1877,-1567,-308,-20,104,-258
0,2023-03-01T18:55:53.133590,1942670,1330,1867,-519,-1877,-1567,-308,-20,104,-258
0,2023-03-01T18:55:53.138276,1942674,1330,1867,-519,-1877,-1567,-308,-20,104,-258
0,2023-03-01T18:55:53.143861,1942679,1330,1867,-519,-1877,-1567,-308,-20,104,-258
0,2023-03-01T18:55:53.149123,1942684,1340,1870,-576,-1771,-1703,-283,-20,104,-258
0,2023-03-01T18:55:53.155681,1942691,1340,1870,-576,-1771,-1703,-283,-20,104,-258
0,2023-03-01T18:55:53.160999,1942696,1340,1870,-576,-1771,-1703,-283,-20,104,-258
0,2023-03-01T18:55:53.167440,1942703,1330,1868,-522,-1758,-1600,-293,-20,104,-258
0,2023-03-01T18:55:53.173980,1942710,1330,1868,-522,-1758,-1600,-293,-20,104,-258
0,2023-03-01T18:55:53.179476,1942715,1330,1868,-522,-1758,-1600,-293,-20,104,-258
0,2023-03-01T18:55:53.184933,1942720,1330,1868,-522,-1758,-1600,-293,-20,104,-258
0,2023-03-01T18:55:53.190155,1942726,1352,1888,-579,-1943,-1577,-326,-20,104,-258
0,2023-03-01T18:55:53.196059,1942731,1352,1888,-579,-1943,-1577,-326,-20,104,-258
0,2023-03-01T18:55:53.201184,1942736,1352,1888,-579,-1943,-1577,-326,-20,104,-258
0,2023-03-01T18:55:53.207903,1942744,1334,1861,-536,-1885,-1631,-292,-20,104,-258
0,2023-03-01T18:55:53.213832,1942750,1334,1861,-536,-1885,-1631,-292,-20,104,-258
0,2023-03-01T18:55:53.218849,1942755,1334,1861,-536,-1885,-1631,-292,-20,104,-258
0,2023-03-01T18:55:53.225074,1942760,1334,1861,-536,-1885,-1631,-292,-20,104,-258
0,2023-03-01T18:55:53.232833,1942768,1337,1879,-572,-1804,-1728,-291,-20,104,-258
0,2023-03-01T18:55:53.239114,1942774,1337,1879,-572,-1804,-1728,-291,-20,104,-258
0,2023-03-01T18:55:53.245244,1942781,1337,1879,-572,-1804,-1728,-291,-20,104,-258
0,2023-03-01T18:55:53.250187,1942786,1324,1860,-533,-1865,-1664,-310,-20,104,-258
0,2023-03-01T18:55:53.256315,1942792,1324,1860,-533,-1865,-1664,-310,-20,104,-258
0,2023-03-01T18:55:53.261385,1942797,1324,1860,-533,-1865,-1664,-310,-20,104,-258
0,2023-03-01T18:55:53.267710,1942804,1343,1884,-565,-1930,-1660,-324,-20,110,-254
0,2023-03-01T18:55:53.274081,1942810,1343,1884,-565,-1930,-1660,-324,-20,110,-254
0,2023-03-01T18:55:53.279554,1942815,1343,1884,-565,-1930,-1660,-324,-20,110,-254
0,2023-03-01T18:55:53.285982,1942821,1343,1884,-565,-1930,-1660,-324,-20,110,-254
0,2023-03-01T18:55:53.291314,1942827,1323,1865,-535,-1831,-1630,-293,-20,110,-254
0,2023-03-01T18:55:53.296892,1942833,1323,1865,-535,-1831,-1630,-293,-20,110,-254
0,2023-03-01T18:55:53.301872,1942838,1323,1865,-535,-1831,-1630,-293,-20,110,-254
0,2023-03-01T18:55:53.308370,1942844,1339,1889,-549,-1891,-1596,-347,-20,110,-254
0,2023-03-01T18:55:53.314381,1942850,1339,1889,-549,-1891,-1596,-347,-20,110,-254
0,2023-03-01T18:55:53.319809,1942855,1339,1889,-549,-1891,-1596,-347,-20,110,-254
0,2023-03-01T18:55:53.326200,1942861,1339,1889,-549,-1891,-1596,-347,-20,110,-254
0,2023-03-01T18:55:53.331193,1942866,1329,1862,-551,-1820,-1683,-275,-20,110,-254
0,2023-03-01T18:55:53.337861,1942873,1329,1862,-551,-1820,-1683,-275,-20,110,-254
0,2023-03-01T18:55:53.344302,1942880,1329,1862,-551,-1820,-1683,-275,-20,110,-254
0,2023-03-01T18:55:53.350502,1942886,1347,1887,-567,-1897,-1616,-323,-20,110,-254
0,2023-03-01T18:55:53.356132,1942892,1347,1887,-567,-1897,-1616,-323,-20,110,-254
0,2023-03-01T18:55:53.361159,1942897,1347,1887,-567,-1897,-1616,-323,-20,110,-254
0,2023-03-01T18:55:53.368399,1942903,1326,1867,-534,-1851,-1642,-305,-20,110,-254
0,2023-03-01T18:55:53.374848,1942910,1326,1867,-534,-1851,-1642,-305,-20,110,-254
0,2023-03-01T18:55:53.379556,1942916,1326,1867,-534,-1851,-1642,-305,-20,110,-254
0,2023-03-01T18:55:53.385405,1942922,1326,1867,-534,-1851,-1642,-305,-20,110,-254
0,2023-03-01T18:55:53.390241,1942926,1333,1872,-556,-1902,-1711,-298,-21,105,-251
0,2023-03-01T18:55:53.395872,1942932,1333,1872,-556,-1902,-1711,-298,-21,105,-251
0,2023-03-01T18:55:53.401036,1942936,1333,1872,-556,-1902,-1711,-298,-21,105,-251
0,2023-03-01T18:55:53.407264,1942942,1333,1885,-534,-1924,-1722,-322,-21,105,-251
0,2023-03-01T18:55:53.412973,1942949,1333,1885,-534,-1924,-1722,-322,-21,105,-251
0,2023-03-01T18:55:53.417867,1942953,1333,1885,-534,-1924,-1722,-322,-21,105,-251
0,2023-03-01T18:55:53.423632,1942960,1333,1885,-534,-1924,-1722,-322,-21,105,-251
0,2023-03-01T18:55:53.428847,1942965,1333,1885,-534,-1924,-1722,-322,-21,105,-251
0,2023-03-01T18:55:53.434065,1942970,1333,1885,-534,-1924,-1722,-322,-21,105,-251
0,2023-03-01T18:55:53.439348,1942975,1333,1885,-534,-1924,-1722,-322,-21,105,-251
0,2023-03-01T18:55:53.445687,1942982,1333,1885,-534,-1924,-1722,-322,-21,105,-251
0,2023-03-01T18:55:53.450910,1942986,1329,1885,-529,-1920,-1612,-340,-21,105,-251
0,2023-03-01T18:55:53.456666,1942992,1329,1885,-529,-1920,-1612,-340,-21,105,-251
0,2023-03-01T18:55:53.461694,1942998,1329,1885,-529,-1920,-1612,-340,-21,105,-251
0,2023-03-01T18:55:53.468786,1943005,1318,1876,-561,-1780,-1650,-288,-21,105,-251
0,2023-03-01T18:55:53.474596,1943011,1318,1876,-561,-1780,-1650,-288,-21,105,-251
0,2023-03-01T18:55:53.480242,1943015,1318,1876,-561,-1780,-1650,-288,-21,105,-251
0,2023-03-01T18:55:53.486320,1943022,1318,1876,-561,-1780,-1650,-288,-21,105,-251
0,2023-03-01T18:55:53.491255,1943027,1342,1902,-527,-1894,-1427,-350,-21,105,-251
0,2023-03-01T18:55:53.496985,1943032,1342,1902,-527,-1894,-1427,-350,-21,105,-251
0,2023-03-01T18:55:53.501887,1943037,1342,1902,-527,-1894,-1427,-350,-21,105,-251
0,2023-03-01T18:55:53.507499,1943044,1315,1860,-543,-1779,-1579,-281,-29,101,-257
0,2023-03-01T18:55:53.514453,1943050,1315,1860,-543,-1779,-1579,-281,-29,101,-257
0,2023-03-01T18:55:53.519900,1943056,1315,1860,-543,-1779,-1579,-281,-29,101,-257
0,2023-03-01T18:55:53.526045,1943062,1315,1860,-543,-1779,-1579,-281,-29,101,-257
0,2023-03-01T18:55:53.531224,1943067,1348,1893,-562,-1721,-1632,-279,-29,101,-257
0,2023-03-01T18:55:53.537105,1943072,1348,1893,-562,-1721,-1632,-279,-29,101,-257
0,2023-03-01T18:55:53.542811,1943078,1348,1893,-562,-1721,-1632,-279,-29,101,-257
0,2023-03-01T18:55:53.547462,1943084,1318,1847,-551,-1753,-1587,-287,-29,101,-257
0,2023-03-01T18:55:53.553114,1943089,1318,1847,-551,-1753,-1587,-287,-29,101,-257
0,2023-03-01T18:55:53.558477,1943094,1318,1847,-551,-1753,-1587,-287,-29,101,-257
0,2023-03-01T18:55:53.565002,1943100,1318,1847,-551,-1753,-1587,-287,-29,101,-257
0,2023-03-01T18:55:53.570335,1943106,1341,1893,-546,-1872,-1548,-345,-29,101,-257
0,2023-03-01T18:55:53.576056,1943112,1341,1893,-546,-1872,-1548,-345,-29,101,-257
0,2023-03-01T18:55:53.581141,1943117,1341,1893,-546,-1872,-1548,-345,-29,101,-257
0,2023-03-01T18:55:53.587187,1943122,1317,1858,-537,-1855,-1661,-295,-29,101,-257
0,2023-03-01T18:55:53.593048,1943129,1317,1858,-537,-1855,-1661,-295,-29,101,-257
0,2023-03-01T18:55:53.597917,1943134,1317,1858,-537,-1855,-1661,-295,-29,101,-257
0,2023-03-01T18:55:53.603115,1943139,1317,1858,-537,-1855,-1661,-295,-29,101,-257
0,2023-03-01T18:55:53.609111,1943145,1334,1899,-536,-1926,-1627,-358,-29,101,-257
0,2023-03-01T18:55:53.614670,1943151,1334,1899,-536,-1926,-1627,-358,-29,101,-257
0,2023-03-01T18:55:53.619431,1943155,1334,1899,-536,-1926,-1627,-358,-29,101,-257
0,2023-03-01T18:55:53.626211,1943161,1334,1899,-536,-1926,-1627,-358,-29,101,-257
0,2023-03-01T18:55:53.631758,1943168,1310,1865,-547,-1854,-1682,-295,-29,101,-257
0,2023-03-01T18:55:53.637778,1943174,1310,1865,-547,-1854,-1682,-295,-29,101,-257
0,2023-03-01T18:55:53.643403,1943180,1310,1865,-547,-1854,-1682,-295,-29,101,-257
0,2023-03-01T18:55:53.648604,1943184,1327,1886,-526,-1830,-1559,-331,-30,110,-254
0,2023-03-01T18:55:53.654138,1943190,1327,1886,-526,-1830,-1559,-331,-30,110,-254
0,2023-03-01T18:55:53.659308,1943195,1327,1886,-526,-1830,-1559,-331,-30,110,-254
0,2023-03-01T18:55:53.665423,1943201,1327,1886,-526,-1830,-1559,-331,-30,110,-254
0,2023-03-01T18:55:53.671274,1943207,1318,1876,-533,-1782,-1559,-312,-30,110,-254
0,2023-03-01T18:55:53.677330,1943213,1318,1876,-533,-1782,-1559,-312,-30,110,-254
0,2023-03-01T18:55:53.682446,1943218,1318,1876,-533,-1782,-1559,-312,-30,110,-254
0,2023-03-01T18:55:53.688956,1943225,1322,1880,-535,-1802,-1586,-297,-30,110,-254
0,2023-03-01T18:55:53.694542,1943230,1322,1880,-535,-1802,-1586,-297,-30,110,-254
0,2023-03-01T18:55:53.699448,1943235,1322,1880,-535,-1802,-1586,-297,-30,110,-254
0,2023-03-01T18:55:53.704324,1943240,1322,1880,-535,-1802,-1586,-297,-30,110,-254
0,2023-03-01T18:55:53.709064,1943245,1324,1870,-555,-1810,-1585,-302,-30,110,-254
0,2023-03-01T18:55:53.715054,1943250,1324,1870,-555,-1810,-1585,-302,-30,110,-254
0,2023-03-01T18:55:53.720219,1943256,1324,1870,-555,-1810,-1585,-302,-30,110,-254
0,2023-03-01T18:55:53.726055,1943262,1324,1870,-555,-1810,-1585,-302,-30,110,-254
0,2023-03-01T18:55:53.730797,1943267,1328,1878,-535,-1810,-1559,-323,-30,110,-254
0,2023-03-01T18:55:53.736108,1943272,1328,1878,-535,-1810,-1559,-323,-30,110,-254
0,2023-03-01T18:55:53.741269,1943277,1328,1878,-535,-1810,-1559,-323,-30,110,-254
0,2023-03-01T18:55:53.747622,1943283,1328,1878,-535,-1810,-1559,-323,-30,110,-254
0,2023-03-01T18:55:53.752438,1943288,1328,1878,-535,-1810,-1559,-323,-30,110,-254
0,2023-03-01T18:55:53.757540,1943293,1328,1878,-535,-1810,-1559,-323,-30,110,-254
0,2023-03-01T18:55:53.762853,1943299,1328,1878,-535,-1810,-1559,-323,-30,110,-254
0,2023-03-01T18:55:53.767642,1943304,1322,1878,-532,-1882,-1673,-320,-18,110,-248
0,2023-03-01T18:55:53.773365,1943309,1322,1878,-532,-1882,-1673,-320,-18,110,-248
0,2023-03-01T18:55:53.778955,1943314,1322,1878,-532,-1882,-1673,-320,-18,110,-248
0,2023-03-01T18:55:53.784876,1943321,1322,1878,-532,-1882,-1673,-320,-18,110,-248
0,2023-03-01T18:55:53.789864,1943326,1322,1877,-543,-1892,-1661,-323,-18,110,-248
0,2023-03-01T18:55:53.795212,1943331,1322,1877,-543,-1892,-1661,-323,-18,110,-248
0,2023-03-01T18:55:53.799870,1943335,1322,1877,-543,-1892,-1661,-323,-18,110,-248
0,2023-03-01T18:55:53.804766,1943341,1322,1877,-543,-1892,-1661,-323,-18,110,-248
0,2023-03-01T18:55:53.809971,1943346,1315,1878,-536,-1844,-1577,-328,-18,110,-248
0,2023-03-01T18:55:53.815352,1943352,1315,1878,-536,-1844,-1577,-328,-18,110,-248
0,2023-03-01T18:55:53.820368,1943356,1315,1878,-536,-1844,-1577,-328,-18,110,-248
0,2023-03-01T18:55:53.825758,1943361,1315,1878,-536,-1844,-1577,-328,-18,110,-248
0,2023-03-01T18:55:53.830763,1943366,1322,1885,-535,-1793,-1516,-336,-18,110,-248
0,2023-03-01T18:55:53.836346,1943372,1322,1885,-535,-1793,-1516,-336,-18,110,-248
0,2023-03-01T18:55:53.841247,1943376,1322,1885,-535,-1793,-1516,-336,-18,110,-248
0,2023-03-01T18:55:53.847350,1943384,1318,1877,-528,-1758,-1519,-311,-18,110,-248
0,2023-03-01T18:55:53.853128,1943389,1318,1877,-528,-1758,-1519,-311,-18,110,-248
0,2023-03-01T18:55:53.858095,1943394,1318,1877,-528,-1758,-1519,-311,-18,110,-248
0,2023-03-01T18:55:53.863605,1943399,1318,1877,-528,-1758,-1519,-311,-18,110,-248
0,2023-03-01T18:55:53.868798,1943404,1326,1882,-537,-1767,-1547,-306,-18,110,-248
0,2023-03-01T18:55:53.874115,1943410,1326,1882,-537,-1767,-1547,-306,-18,110,-248
0,2023-03-01T18:55:53.879506,1943415,1326,1882,-537,-1767,-1547,-306,-18,110,-248
0,2023-03-01T18:55:53.886090,1943421,1326,1882,-537,-1767,-1547,-306,-18,110,-248
0,2023-03-01T18:55:53.891983,1943428,1322,1862,-544,-1779,-1571,-295,-18,110,-248
0,2023-03-01T18:55:53.897630,1943434,1322,1862,-544,-1779,-1571,-295,-18,110,-248
0,2023-03-01T18:55:53.903174,1943439,1322,1862,-544,-1779,-1571,-295,-18,110,-248
0,2023-03-01T18:55:53.908775,1943445,1329,1889,-550,-1818,-1534,-334,-23,121,-253
0,2023-03-01T18:55:53.914388,1943450,1329,1889,-550,-1818,-1534,-334,-23,121,-253
0,2023-03-01T18:55:53.919241,1943455,1329,1889,-550,-1818,-1534,-334,-23,121,-253
0,2023-03-01T18:55:53.924550,1943460,1329,1889,-550,-1818,-1534,-334,-23,121,-253
0,2023-03-01T18:55:53.929467,1943465,1309,1866,-529,-1807,-1530,-315,-23,121,-253
0,2023-03-01T18:55:53.934466,1943471,1309,1866,-529,-1807,-1530,-315,-23,121,-253
0,2023-03-01T18:55:53.939201,1943475,1309,1866,-529,-1807,-1530,-315,-23,121,-253
0,2023-03-01T18:55:53.945043,1943481,1309,1866,-529,-1807,-1530,-315,-23,121,-253
0,2023-03-01T18:55:53.951034,1943486,1326,1897,-523,-1848,-1529,-344,-23,121,-253
0,2023-03-01T18:55:53.956633,1943493,1326,1897,-523,-1848,-1529,-344,-23,121,-253
0,2023-03-01T18:55:53.961531,1943497,1326,1897,-523,-1848,-1529,-344,-23,121,-253
0,2023-03-01T18:55:53.967415,1943503,1302,1863,-521,-1801,-1625,-290,-23,121,-253
0,2023-03-01T18:55:53.973202,1943508,1302,1863,-521,-1801,-1625,-290,-23,121,-253
0,2023-03-01T18:55:53.978256,1943514,1302,1863,-521,-1801,-1625,-290,-23,121,-253
0,2023-03-01T18:55:53.983733,1943520,1302,1863,-521,-1801,-1625,-290,-23,121,-253
0,2023-03-01T18:55:53.989181,1943525,1337,1912,-535,-1947,-1533,-359,-23,121,-253
0,2023-03-01T18:55:53.995035,1943531,1337,1912,-535,-1947,-1533,-359,-23,121,-253
0,2023-03-01T18:55:54.000201,1943536,1337,1912,-535,-1947,-1533,-359,-23,121,-253
0,2023-03-01T18:55:54.006094,1943542,1337,1912,-535,-1947,-1533,-359,-23,121,-253
0,2023-03-01T18:55:54.010846,1943546,1310,1867,-533,-1817,-1628,-292,-23,121,-253
0,2023-03-01T18:55:54.016517,1943553,1310,1867,-533,-1817,-1628,-292,-23,121,-253
0,2023-03-01T18:55:54.021692,1943558,1310,1867,-533,-1817,-1628,-292,-23,121,-253
0,2023-03-01T18:55:54.028276,1943564,1322,1884,-544,-1760,-1664,-298,-23,103,-255
0,2023-03-01T18:55:54.034059,1943570,1322,1884,-544,-1760,-1664,-298,-23,103,-255
0,2023-03-01T18:55:54.039445,1943575,1322,1884,-544,-1760,-1664,-298,-23,103,-255
0,2023-03-01T18:55:54.045024,1943581,1322,1884,-544,-1760,-1664,-298,-23,103,-255
0,2023-03-01T18:55:54.050389,1943585,1319,1872,-533,-1864,-1633,-333,-23,103,-255
0,2023-03-01T18:55:54.056713,1943592,1319,1872,-533,-1864,-1633,-333,-23,103,-255
0,2023-03-01T18:55:54.061635,1943598,1319,1872,-533,-1864,-1633,-333,-23,103,-255
0,2023-03-01T18:55:54.068038,1943604,1319,1886,-524,-1894,-1642,-334,-23,103,-255
0,2023-03-01T18:55:54.073870,1943610,1319,1886,-524,-1894,-1642,-334,-23,103,-255
0,2023-03-01T18:55:54.078830,1943615,1319,1886,-524,-1894,-1642,-334,-23,103,-255
0,2023-03-01T18:55:54.084824,1943620,1319,1886,-524,-1894,-1642,-334,-23,103,-255
0,2023-03-01T18:55:54.090096,1943625,1312,1874,-541,-1865,-1707,-306,-23,103,-255
0,2023-03-01T18:55:54.096113,1943631,1312,1874,-541,-1865,-1707,-306,-23,103,-255
0,2023-03-01T18:55:54.101068,1943636,1312,1874,-541,-1865,-1707,-306,-23,103,-255
0,2023-03-01T18:55:54.107545,1943643,1312,1874,-541,-1865,-1707,-306,-23,103,-255
0,2023-03-01T18:55:54.113201,1943649,1319,1896,-518,-1884,-1622,-340,-23,103,-255
0,2023-03-01T18:55:54.118345,1943654,1319,1896,-518,-1884,-1622,-340,-23,103,-255
0,2023-03-01T18:55:54.124105,1943660,1319,1896,-518,-1884,-1622,-340,-23,103,-255
0,2023-03-01T18:55:54.130069,1943666,1300,1864,-522,-1829,-1640,-290,-23,103,-255
0,2023-03-01T18:55:54.136180,1943671,1300,1864,-522,-1829,-1640,-290,-23,103,-255
0,2023-03-01T18:55:54.141451,1943677,1300,1864,-522,-1829,-1640,-290,-23,103,-255
0,2023-03-01T18:55:54.147725,1943684,1331,1904,-525,-1893,-1586,-351,-23,103,-255
0,2023-03-01T18:55:54.153584,1943689,1331,1904,-525,-1893,-1586,-351,-23,103,-255
0,2023-03-01T18:55:54.158289,1943694,1331,1904,-525,-1893,-1586,-351,-23,103,-255
0,2023-03-01T18:55:54.164112,1943700,1331,1904,-525,-1893,-1586,-351,-23,103,-255
0,2023-03-01T18:55:54.170262,1943706,1313,1883,-542,-1812,-1712,-285,-22,108,-262
0,2023-03-01T18:55:54.176190,1943712,1313,1883,-542,-1812,-1712,-285,-22,108,-262
0,2023-03-01T18:55:54.181129,1943717,1313,1883,-542,-1812,-1712,-285,-22,108,-262
0,2023-03-01T18:55:54.187588,1943724,1313,1883,-542,-1812,-1712,-285,-22,108,-262
0,2023-03-01T18:55:54.193033,1943729,1313,1868,-533,-1883,-1613,-315,-22,108,-262
0,2023-03-01T18:55:54.198599,1943735,1313,1868,-533,-1883,-1613,-315,-22,108,-262
0,2023-03-01T18:55:54.204385,1943740,1313,1868,-533,-1883,-1613,-315,-22,108,-262
0,2023-03-01T18:55:54.210077,1943746,1324,1896,-520,-1901,-1620,-357,-22,108,-262
0,2023-03-01T18:55:54.215528,1943751,1324,1896,-520,-1901,-1620,-357,-22,108,-262
0,2023-03-01T18:55:54.221034,1943756,1324,1896,-520,-1901,-1620,-357,-22,108,-262
0,2023-03-01T18:55:54.228164,1943763,1313,1875,-535,-1855,-1742,-295,-22,108,-262
0,2023-03-01T18:55:54.234022,1943770,1313,1875,-535,-1855,-1742,-295,-22,108,-262
0,2023-03-01T18:55:54.238971,1943775,1313,1875,-535,-1855,-1742,-295,-22,108,-262
0,2023-03-01T18:55:54.244728,1943781,1313,1875,-535,-1855,-1742,-295,-22,108,-262
0,2023-03-01T18:55:54.250792,1943786,1324,1902,-522,-1959,-1703,-363,-22,108,-262
0,2023-03-01T18:55:54.256349,1943792,1324,1902,-522,-1959,-1703,-363,-22,108,-262
0,2023-03-01T18:55:54.261058,1943797,1324,1902,-522,-1959,-1703,-363,-22,108,-262
0,2023-03-01T18:55:54.266848,1943802,1324,1902,-522,-1959,-1703,-363,-22,108,-262
0,2023-03-01T18:55:54.271852,1943808,1305,1861,-535,-1883,-1746,-304,-22,108,-262
0,2023-03-01T18:55:54.277583,1943814,1305,1861,-535,-1883,-1746,-304,-22,108,-262
0,2023-03-01T18:55:54.282979,1943819,1305,1861,-535,-1883,-1746,-304,-22,108,-262
0,2023-03-01T18:55:54.288710,1943825,1333,1921,-525,-1928,-1576,-372,-21,109,-261
0,2023-03-01T18:55:54.293993,1943830,1333,1921,-525,-1928,-1576,-372,-21,109,-261
0,2023-03-01T18:55:54.298986,1943835,1333,1921,-525,-1928,-1576,-372,-21,109,-261
0,2023-03-01T18:55:54.305228,1943841,1333,1921,-525,-1928,-1576,-372,-21,109,-261
0,2023-03-01T18:55:54.309985,1943846,1298,1881,-517,-1758,-1581,-307,-21,109,-261
0,2023-03-01T18:55:54.315607,1943852,1298,1881,-517,-1758,-1581,-307,-21,109,-261
0,2023-03-01T18:55:54.321521,1943857,1298,1881,-517,-1758,-1581,-307,-21,109,-261
0,2023-03-01T18:55:54.328649,1943864,1298,1881,-517,-1758,-1581,-307,-21,109,-261
0,2023-03-01T18:55:54.334472,1943870,1311,1896,-512,-1790,-1494,-322,-21,109,-261
0,2023-03-01T18:55:54.340374,1943876,1311,1896,-512,-1790,-1494,-322,-21,109,-261
0,2023-03-01T18:55:54.346755,1943882,1311,1896,-512,-1790,-1494,-322,-21,109,-261
0,2023-03-01T18:55:54.352493,1943887,1313,1895,-525,-1760,-1591,-308,-21,109,-261
0,2023-03-01T18:55:54.359515,1943895,1313,1895,-525,-1760,-1591,-308,-21,109,-261
0,2023-03-01T18:55:54.365056,1943901,1313,1895,-525,-1760,-1591,-308,-21,109,-261
0,2023-03-01T18:55:54.369797,1943906,1312,1877,-550,-1800,-1613,-305,-21,109,-261
0,2023-03-01T18:55:54.375815,1943911,1312,1877,-550,-1800,-1613,-305,-21,109,-261
0,2023-03-01T18:55:54.381332,1943917,1312,1877,-550,-1800,-1613,-305,-21,109,-261
0,2023-03-01T18:55:54.387439,1943923,1312,1877,-550,-1800,-1613,-305,-21,109,-261
0,2023-03-01T18:55:54.392860,1943928,1317,1888,-523,-1828,-1559,-347,-21,109,-261
0,2023-03-01T18:55:54.399068,1943934,1317,1888,-523,-1828,-1559,-347,-21,109,-261
0,2023-03-01T18:55:54.405199,1943941,1317,1888,-523,-1828,-1559,-347,-21,109,-261
0,2023-03-01T18:55:54.410241,1943946,1318,1889,-534,-1832,-1626,-338,-24,104,-256
0,2023-03-01T18:55:54.416146,1943952,1318,1889,-534,-1832,-1626,-338,-24,104,-256
0,2023-03-01T18:55:54.421378,1943957,1318,1889,-534,-1832,-1626,-338,-24,104,-256
0,2023-03-01T18:55:54.426767,1943963,1318,1889,-534,-1832,-1626,-338,-24,104,-256
0,2023-03-01T18:55:54.432247,1943967,1311,1894,-494,-1884,-1628,-340,-24,104,-256
0,2023-03-01T18:55:54.439549,1943974,1311,1894,-494,-1884,-1628,-340,-24,104,-256
0,2023-03-01T18:55:54.444778,1943981,1311,1894,-494,-1884,-1628,-340,-24,104,-256
0,2023-03-01T18:55:54.450857,1943987,1316,1896,-540,-1903,-1673,-337,-24,104,-256
0,2023-03-01T18:55:54.457425,1943993,1316,1896,-540,-1903,-1673,-337,-24,104,-256
0,2023-03-01T18:55:54.462872,1943999,1316,1896,-540,-1903,-1673,-337,-24,104,-256
0,2023-03-01T18:55:54.469002,1944004,1305,1892,-497,-1819,-1582,-322,-24,104,-256
0,2023-03-01T18:55:54.475025,1944011,1305,1892,-497,-1819,-1582,-322,-24,104,-256
0,2023-03-01T18:55:54.479999,1944015,1305,1892,-497,-1819,-1582,-322,-24,104,-256
0,2023-03-01T18:55:54.485701,1944022,1305,1892,-497,-1819,-1582,-322,-24,104,-256
0,2023-03-01T18:55:54.490658,1944027,1310,1891,-522,-1787,-1543,-330,-24,104,-256
0,2023-03-01T18:55:54.496772,1944032,1310,1891,-522,-1787,-1543,-330,-24,104,-256
0,2023-03-01T18:55:54.502120,1944038,1310,1891,-522,-1787,-1543,-330,-24,104,-256
0,2023-03-01T18:55:54.508268,1944044,1308,1894,-500,-1791,-1541,-330,-24,104,-256
0,2023-03-01T18:55:54.514011,1944049,1308,1894,-500,-1791,-1541,-330,-24,104,-256
0,2023-03-01T18:55:54.519217,1944055,1308,1894,-500,-1791,-1541,-330,-24,104,-256
0,2023-03-01T18:55:54.524955,1944060,1308,1894,-500,-1791,-1541,-330,-24,104,-256
0,2023-03-01T18:55:54.530117,1944066,1304,1877,-544,-1740,-1649,-282,-24,104,-256
0,2023-03-01T18:55:54.535721,1944072,1304,1877,-544,-1740,-1649,-282,-24,104,-256
0,2023-03-01T18:55:54.540512,1944077,1304,1877,-544,-1740,-1649,-282,-24,104,-256
0,2023-03-01T18:55:54.547008,1944082,1304,1877,-544,-1740,-1649,-282,-24,104,-256
0,2023-03-01T18:55:54.552874,1944088,1330,1908,-509,-1849,-1487,-368,-18,112,-254
0,2023-03-01T18:55:54.558552,1944094,1330,1908,-509,-1849,-1487,-368,-18,112,-254
0,2023-03-01T18:55:54.564331,1944100,1330,1908,-509,-1849,-1487,-368,-18,112,-254
0,2023-03-01T18:55:54.569650,1944105,1302,1879,-518,-1811,-1622,-308,-18,112,-254
0,2023-03-01T18:55:54.575476,1944111,1302,1879,-518,-1811,-1622,-308,-18,112,-254
0,2023-03-01T18:55:54.580720,1944117,1302,1879,-518,-1811,-1622,-308,-18,112,-254
0,2023-03-01T18:55:54.587021,1944123,1302,1879,-518,-1811,-1622,-308,-18,112,-254
0,2023-03-01T18:55:54.591720,1944128,1308,1875,-506,-1872,-1625,-339,-18,112,-254
0,2023-03-01T18:55:54.597386,1944133,1308,1875,-506,-1872,-1625,-339,-18,112,-254
0,2023-03-01T18:55:54.602380,1944138,1308,1875,-506,-1872,-1625,-339,-18,112,-254
0,2023-03-01T18:55:54.607565,1944143,1308,1875,-506,-1872,-1625,-339,-18,112,-254
0,2023-03-01T18:55:54.612800,1944148,1311,1905,-503,-1901,-1625,-376,-18,112,-254
0,2023-03-01T18:55:54.618823,1944155,1311,1905,-503,-1901,-1625,-376,-18,112,-254
0,2023-03-01T18:55:54.624873,1944160,1311,1905,-503,-1901,-1625,-376,-18,112,-254
0,2023-03-01T18:55:54.630518,1944166,1305,1888,-517,-1833,-1724,-305,-18,112,-254
0,2023-03-01T18:55:54.636656,1944172,1305,1888,-517,-1833,-1724,-305,-18,112,-254
0,2023-03-01T18:55:54.642015,1944178,1305,1888,-517,-1833,-1724,-305,-18,112,-254
0,2023-03-01T18:55:54.648538,1944184,1315,1900,-523,-1919,-1624,-364,-18,112,-254
0,2023-03-01T18:55:54.654344,1944190,1315,1900,-523,-1919,-1624,-364,-18,112,-254
0,2023-03-01T18:55:54.660136,1944196,1315,1900,-523,-1919,-1624,-364,-18,112,-254
0,2023-03-01T18:55:54.666493,1944202,1315,1900,-523,-1919,-1624,-364,-18,112,-254
0,2023-03-01T18:55:54.671782,1944208,1304,1893,-504,-1818,-1571,-340,-21,105,-255
0,2023-03-01T18:55:54.677582,1944213,1304,1893,-504,-1818,-1571,-340,-21,105,-255
0,2023-03-01T18:55:54.682431,1944218,1304,1893,-504,-1818,-1571,-340,-21,105,-255
0,2023-03-01T18:55:54.689780,1944225,1297,1887,-504,-1752,-1579,-301,-21,105,-255
0,2023-03-01T18:55:54.695862,1944231,1297,1887,-504,-1752,-1579,-301,-21,105,-255
0,2023-03-01T18:55:54.700981,1944237,1297,1887,-504,-1752,-1579,-301,-21,105,-255
0,2023-03-01T18:55:54.706646,1944243,1297,1887,-504,-1752,-1579,-301,-21,105,-255
0,2023-03-01T18:55:54.711442,1944248,1315,1908,-502,-1792,-1554,-355,-21,105,-255
0,2023-03-01T18:55:54.716812,1944253,1315,1908,-502,-1792,-1554,-355,-21,105,-255
0,2023-03-01T18:55:54.722007,1944257,1315,1908,-502,-1792,-1554,-355,-21,105,-255
0,2023-03-01T18:55:54.729049,1944265,1286,1862,-523,-1763,-1574,-293,-21,105,-255
0,2023-03-01T18:55:54.734465,1944270,1286,1862,-523,-1763,-1574,-293,-21,105,-255
0,2023-03-01T18:55:54.739276,1944275,1286,1862,-523,-1763,-1574,-293,-21,105,-255
0,2023-03-01T18:55:54.745090,1944281,1286,1862,-523,-1763,-1574,-293,-21,105,-255
0,2023-03-01T18:55:54.751284,1944287,1324,1918,-505,-1812,-1416,-381,-21,105,-255
0,2023-03-01T18:55:54.757080,1944293,1324,1918,-505,-1812,-1416,-381,-21,105,-255
0,2023-03-01T18:55:54.761423,1944298,1324,1918,-505,-1812,-1416,-381,-21,105,-255
0,2023-03-01T18:55:54.767392,1944303,1324,1918,-505,-1812,-1416,-381,-21,105,-255
0,2023-03-01T18:55:54.772550,1944308,1293,1882,-504,-1717,-1552,-309,-21,105,-255
0,2023-03-01T18:55:54.779112,1944315,1293,1882,-504,-1717,-1552,-309,-21,105,-255
0,2023-03-01T18:55:54.784847,1944321,1293,1882,-504,-1717,-1552,-309,-21,105,-255
0,2023-03-01T18:55:54.790503,1944327,1311,1890,-512,-1782,-1569,-323,-21,105,-255
0,2023-03-01T18:55:54.795907,1944332,1311,1890,-512,-1782,-1569,-323,-21,105,-255
0,2023-03-01T18:55:54.801424,1944337,1311,1890,-512,-1782,-1569,-323,-21,105,-255
0,2023-03-01T18:55:54.807825,1944344,1311,1890,-512,-1782,-1569,-323,-21,105,-255
0,2023-03-01T18:55:54.812350,1944348,1303,1890,-511,-1799,-1575,-342,-25,107,-269
0,2023-03-01T18:55:54.817868,1944353,1303,1890,-511,-1799,-1575,-342,-25,107,-269
0,2023-03-01T18:55:54.823858,1944359,1303,1890,-511,-1799,-1575,-342,-25,107,-269
0,2023-03-01T18:55:54.828643,1944365,1311,1896,-507,-1826,-1584,-332,-25,107,-269
0,2023-03-01T18:55:54.834513,1944371,1311,1896,-507,-1826,-1584,-332,-25,107,-269
0,2023-03-01T18:55:54.839330,1944375,1311,1896,-507,-1826,-1584,-332,-25,107,-269
0,2023-03-01T18:55:54.844879,1944381,1311,1896,-507,-1826,-1584,-332,-25,107,-269
0,2023-03-01T18:55:54.849901,1944386,1303,1887,-507,-1850,-1646,-332,-25,107,-269
0,2023-03-01T18:55:54.855688,1944391,1303,1887,-507,-1850,-1646,-332,-25,107,-269
0,2023-03-01T18:55:54.861064,1944397,1303,1887,-507,-1850,-1646,-332,-25,107,-269
0,2023-03-01T18:55:54.867028,1944403,1303,1887,-507,-1850,-1646,-332,-25,107,-269
0,2023-03-01T18:55:54.871971,1944408,1308,1905,-524,-1887,-1651,-352,-25,107,-269
0,2023-03-01T18:55:54.877246,1944413,1308,1905,-524,-1887,-1651,-352,-25,107,-269
0,2023-03-01T18:55:54.882875,1944418,1308,1905,-524,-1887,-1651,-352,-25,107,-269
0,2023-03-01T18:55:54.888763,1944425,1294,1881,-500,-1846,-1641,-317,-25,107,-269
0,2023-03-01T18:55:54.894516,1944430,1294,1881,-500,-1846,-1641,-317,-25,107,-269
0,2023-03-01T18:55:54.899547,1944435,1294,1881,-500,-1846,-1641,-317,-25,107,-269
0,2023-03-01T18:55:54.904941,1944441,1294,1881,-500,-1846,-1641,-317,-25,107,-269
0,2023-03-01T18:55:54.910331,1944446,1307,1907,-517,-1879,-1634,-365,-25,107,-269
0,2023-03-01T18:55:54.916268,1944452,1307,1907,-517,-1879,-1634,-365,-25,107,-269
0,2023-03-01T18:55:54.921049,1944457,1307,1907,-517,-1879,-1634,-365,-25,107,-269
0,2023-03-01T18:55:54.927559,1944463,1307,1907,-517,-1879,-1634,-365,-25,107,-269
0,2023-03-01T18:55:54.932900,1944468,1295,1898,-493,-1861,-1664,-327,-21,105,-261
0,2023-03-01T18:55:54.937796,1944474,1295,1898,-493,-1861,-1664,-327,-21,105,-261
0,2023-03-01T18:55:54.943480,1944479,1295,1898,-493,-1861,-1664,-327,-21,105,-261
0,2023-03-01T18:55:54.948321,1944484,1295,1898,-493,-1861,-1664,-327,-21,105,-261
0,2023-03-01T18:55:54.953205,1944489,1297,1882,-533,-1862,-1683,-319,-21,105,-261
0,2023-03-01T18:55:54.958709,1944495,1297,1882,-533,-1862,-1683,-319,-21,105,-261
0,2023-03-01T18:55:54.963964,1944500,1297,1882,-533,-1862,-1683,-319,-21,105,-261
0,2023-03-01T18:55:54.969055,1944505,1311,1914,-480,-1858,-1557,-371,-21,105,-261
0,2023-03-01T18:55:54.975009,1944511,1311,1914,-480,-1858,-1557,-371,-21,105,-261
0,2023-03-01T18:55:54.979985,1944516,1311,1914,-480,-1858,-1557,-371,-21,105,-261
0,2023-03-01T18:55:54.985323,1944521,1311,1914,-480,-1858,-1557,-371,-21,105,-261
0,2023-03-01T18:55:54.990158,1944526,1291,1876,-514,-1814,-1688,-309,-21,105,-261
0,2023-03-01T18:55:54.997840,1944534,1291,1876,-514,-1814,-1688,-309,-21,105,-261
0,2023-03-01T18:55:55.002672,1944539,1291,1876,-514,-1814,-1688,-309,-21,105,-261
0,2023-03-01T18:55:55.007858,1944544,1291,1876,-514,-1814,-1688,-309,-21,105,-261
0,2023-03-01T18:55:55.012804,1944549,1313,1914,-497,-1885,-1636,-365,-21,105,-261
0,2023-03-01T18:55:55.019459,1944555,1313,1914,-497,-1885,-1636,-365,-21,105,-261
0,2023-03-01T18:55:55.025267,1944561,1313,1914,-497,-1885,-1636,-365,-21,105,-261
0,2023-03-01T18:55:55.031438,1944567,1284,1870,-517,-1835,-1703,-308,-21,105,-261
0,2023-03-01T18:55:55.036953,1944572,1284,1870,-517,-1835,-1703,-308,-21,105,-261
0,2023-03-01T18:55:55.042748,1944579,1284,1870,-517,-1835,-1703,-308,-21,105,-261
0,2023-03-01T18:55:55.049877,1944586,1311,1920,-494,-1909,-1593,-383,-21,105,-261
0,2023-03-01T18:55:55.055937,1944592,1311,1920,-494,-1909,-1593,-383,-21,105,-261
0,2023-03-01T18:55:55.060947,1944597,1311,1920,-494,-1909,-1593,-383,-21,105,-261
0,2023-03-01T18:55:55.066229,1944602,1311,1920,-494,-1909,-1593,-383,-21,105,-261
0,2023-03-01T18:55:55.071120,1944607,1294,1894,-512,-1847,-1744,-323,-20,106,-264
0,2023-03-01T18:55:55.077071,1944612,1294,1894,-512,-1847,-1744,-323,-20,106,-264
0,2023-03-01T18:55:55.082402,1944619,1294,1894,-512,-1847,-1744,-323,-20,106,-264
0,2023-03-01T18:55:55.088794,1944625,1296,1887,-501,-1940,-1714,-340,-20,106,-264
0,2023-03-01T18:55:55.094207,1944630,1296,1887,-501,-1940,-1714,-340,-20,106,-264
0,2023-03-01T18:55:55.099591,1944635,1296,1887,-501,-1940,-1714,-340,-20,106,-264
0,2023-03-01T18:55:55.106522,1944642,1296,1887,-501,-1940,-1714,-340,-20,106,-264
0,2023-03-01T18:55:55.111820,1944647,1302,1908,-510,-1948,-1727,-365,-20,106,-264
0,2023-03-01T18:55:55.117349,1944653,1302,1908,-510,-1948,-1727,-365,-20,106,-264
0,2023-03-01T18:55:55.122436,1944658,1302,1908,-510,-1948,-1727,-365,-20,106,-264
0,2023-03-01T18:55:55.128024,1944664,1302,1908,-510,-1948,-1727,-365,-20,106,-264
0,2023-03-01T18:55:55.133658,1944670,1291,1888,-520,-1840,-1683,-318,-20,106,-264
0,2023-03-01T18:55:55.140061,1944676,1291,1888,-520,-1840,-1683,-318,-20,106,-264
0,2023-03-01T18:55:55.145620,1944682,1291,1888,-520,-1840,-1683,-318,-20,106,-264
0,2023-03-01T18:55:55.151656,1944687,1302,1923,-477,-1830,-1453,-389,-20,106,-264
0,2023-03-01T18:55:55.157639,1944693,1302,1923,-477,-1830,-1453,-389,-20,106,-264
0,2023-03-01T18:55:55.163209,1944698,1302,1923,-477,-1830,-1453,-389,-20,106,-264
0,2023-03-01T18:55:55.169354,1944706,1287,1885,-478,-1722,-1550,-319,-20,106,-264
0,2023-03-01T18:55:55.174944,1944711,1287,1885,-478,-1722,-1550,-319,-20,106,-264
0,2023-03-01T18:55:55.180152,1944716,1287,1885,-478,-1722,-1550,-319,-20,106,-264
0,2023-03-01T18:55:55.185987,1944722,1287,1885,-478,-1722,-1550,-319,-20,106,-264
0,2023-03-01T18:55:55.191018,1944727,1304,1905,-500,-1798,-1614,-322,-27,109,-263
0,2023-03-01T18:55:55.197405,1944733,1304,1905,-500,-1798,-1614,-322,-27,109,-263
0,2023-03-01T18:55:55.202597,1944738,1304,1905,-500,-1798,-1614,-322,-27,109,-263
0,2023-03-01T18:55:55.208794,1944744,1304,1905,-500,-1798,-1614,-322,-27,109,-263
0,2023-03-01T18:55:55.215918,1944752,1292,1879,-523,-1764,-1606,-325,-27,109,-263
0,2023-03-01T18:55:55.222436,1944758,1292,1879,-523,-1764,-1606,-325,-27,109,-263
0,2023-03-01T18:55:55.228924,1944765,1304,1902,-502,-1785,-1518,-343,-27,109,-263
0,2023-03-01T18:55:55.233734,1944770,1304,1902,-502,-1785,-1518,-343,-27,109,-263
0,2023-03-01T18:55:55.238743,1944774,1304,1902,-502,-1785,-1518,-343,-27,109,-263
0,2023-03-01T18:55:55.243461,1944779,1304,1902,-502,-1785,-1518,-343,-27,109,-263
0,2023-03-01T18:55:55.248709,1944784,1304,1902,-502,-1785,-1518,-343,-27,109,-263
0,2023-03-01T18:55:55.254117,1944790,1290,1887,-498,-1843,-1618,-342,-27,109,-263
0,2023-03-01T18:55:55.259962,1944796,1290,1887,-498,-1843,-1618,-342,-27,109,-263
0,2023-03-01T18:55:55.265001,1944801,1290,1887,-498,-1843,-1618,-342,-27,109,-263
0,2023-03-01T18:55:55.270318,1944807,1296,1906,-504,-1912,-1671,-358,-27,109,-263
0,2023-03-01T18:55:55.275833,1944812,1296,1906,-504,-1912,-1671,-358,-27,109,-263
0,2023-03-01T18:55:55.281364,1944817,1296,1906,-504,-1912,-1671,-358,-27,109,-263
0,2023-03-01T18:55:55.287698,1944823,1296,1906,-504,-1912,-1671,-358,-27,109,-263
0,2023-03-01T18:55:55.292615,1944828,1290,1895,-504,-1873,-1639,-344,-27,109,-263
0,2023-03-01T18:55:55.297992,1944834,1290,1895,-504,-1873,-1639,-344,-27,109,-263
0,2023-03-01T18:55:55.303730,1944840,1290,1895,-504,-1873,-1639,-344,-27,109,-263
0,2023-03-01T18:55:55.309131,1944845,1290,1895,-504,-1873,-1639,-344,-27,109,-263
0,2023-03-01T18:55:55.314437,1944850,1295,1913,-480,-1830,-1545,-364,-19,101,-263
0,2023-03-01T18:55:55.320270,1944856,1295,1913,-480,-1830,-1545,-364,-19,101,-263
0,2023-03-01T18:55:55.327059,1944862,1295,1913,-480,-1830,-1545,-364,-19,101,-263
0,2023-03-01T18:55:55.333761,1944869,1288,1889,-481,-1795,-1590,-330,-19,101,-263
0,2023-03-01T18:55:55.339399,1944876,1288,1889,-481,-1795,-1590,-330,-19,101,-263
0,2023-03-01T18:55:55.345204,1944881,1288,1889,-481,-1795,-1590,-330,-19,101,-263
0,2023-03-01T18:55:55.350814,1944887,1306,1915,-492,-1792,-1563,-350,-19,101,-263
0,2023-03-01T18:55:55.356485,1944893,1306,1915,-492,-1792,-1563,-350,-19,101,-263
0,2023-03-01T18:55:55.361595,1944897,1306,1915,-492,-1792,-1563,-350,-19,101,-263
0,2023-03-01T18:55:55.368115,1944904,1306,1915,-492,-1792,-1563,-350,-19,101,-263
0,2023-03-01T18:55:55.373780,1944909,1282,1882,-501,-1736,-1555,-312,-19,101,-263
0,2023-03-01T18:55:55.379263,1944915,1282,1882,-501,-1736,-1555,-312,-19,101,-263
0,2023-03-01T18:55:55.384927,1944921,1282,1882,-501,-1736,-1555,-312,-19,101,-263
0,2023-03-01T18:55:55.390532,1944926,1309,1919,-489,-1804,-1510,-364,-19,101,-263
0,2023-03-01T18:55:55.396345,1944932,1309,1919,-489,-1804,-1510,-364,-19,101,-263
0,2023-03-01T18:55:55.401845,1944938,1309,1919,-489,-1804,-1510,-364,-19,101,-263
0,2023-03-01T18:55:55.407182,1944943,1309,1919,-489,-1804,-1510,-364,-19,101,-263
0,2023-03-01T18:55:55.412457,1944948,1286,1888,-503,-1811,-1628,-332,-19,101,-263
0,2023-03-01T18:55:55.418293,1944954,1286,1888,-503,-1811,-1628,-332,-19,101,-263
0,2023-03-01T18:55:55.423900,1944960,1286,1888,-503,-1811,-1628,-332,-19,101,-263
0,2023-03-01T18:55:55.428840,1944965,1286,1888,-503,-1811,-1628,-332,-19,101,-263
0,2023-03-01T18:55:55.435425,1944971,1298,1908,-484,-1878,-1613,-357,-19,101,-263
0,2023-03-01T18:55:55.441125,1944977,1298,1908,-484,-1878,-1613,-357,-19,101,-263
0,2023-03-01T18:55:55.447303,1944983,1298,1908,-484,-1878,-1613,-357,-19,101,-263
0,2023-03-01T18:55:55.452491,1944988,1290,1898,-492,-1886,-1676,-347,-22,104,-254
0,2023-03-01T18:55:55.458329,1944994,1290,1898,-492,-1886,-1676,-347,-22,104,-254
0,2023-03-01T18:55:55.462902,1944998,1290,1898,-492,-1886,-1676,-347,-22,104,-254
0,2023-03-01T18:55:55.468116,1945004,1290,1898,-492,-1886,-1676,-347,-22,104,-254
0,2023-03-01T18:55:55.473320,1945009,1294,1907,-479,-1898,-1684,-353,-22,104,-254
0,2023-03-01T18:55:55.479360,1945015,1294,1907,-479,-1898,-1684,-353,-22,104,-254
0,2023-03-01T18:55:55.484673,1945021,1294,1907,-479,-1898,-1684,-353,-22,104,-254
0,2023-03-01T18:55:55.489573,1945025,1289,1901,-506,-1891,-1700,-343,-22,104,-254
0,2023-03-01T18:55:55.495495,1945031,1289,1901,-506,-1891,-1700,-343,-22,104,-254
0,2023-03-01T18:55:55.500660,1945036,1289,1901,-506,-1891,-1700,-343,-22,104,-254
0,2023-03-01T18:55:55.506936,1945042,1289,1901,-506,-1891,-1700,-343,-22,104,-254
0,2023-03-01T18:55:55.513752,1945050,1292,1909,-486,-1827,-1575,-345,-22,104,-254
0,2023-03-01T18:55:55.519705,1945056,1292,1909,-486,-1827,-1575,-345,-22,104,-254
0,2023-03-01T18:55:55.525548,1945061,1292,1909,-486,-1827,-1575,-345,-22,104,-254
0,2023-03-01T18:55:55.530393,1945066,1295,1904,-492,-1773,-1526,-348,-22,104,-254
0,2023-03-01T18:55:55.536261,1945072,1295,1904,-492,-1773,-1526,-348,-22,104,-254
0,2023-03-01T18:55:55.541822,1945077,1295,1904,-492,-1773,-1526,-348,-22,104,-254
0,2023-03-01T18:55:55.548606,1945084,1295,1904,-492,-1773,-1526,-348,-22,104,-254
0,2023-03-01T18:55:55.554081,1945091,1289,1906,-474,-1767,-1538,-336,-22,104,-254
0,2023-03-01T18:55:55.559408,1945096,1289,1906,-474,-1767,-1538,-336,-22,104,-254
0,2023-03-01T18:55:55.564695,1945101,1289,1906,-474,-1767,-1538,-336,-22,104,-254
0,2023-03-01T18:55:55.569579,1945106,1292,1907,-506,-1758,-1550,-334,-28,108,-262
0,2023-03-01T18:55:55.574803,1945111,1292,1907,-506,-1758,-1550,-334,-28,108,-262
0,2023-03-01T18:55:55.579974,1945116,1292,1907,-506,-1758,-1550,-334,-28,108,-262
0,2023-03-01T18:55:55.585817,1945121,1292,1907,-506,-1758,-1550,-334,-28,108,-262
0,2023-03-01T18:55:55.591467,1945127,1287,1897,-480,-1742,-1486,-341,-28,108,-262
0,2023-03-01T18:55:55.596820,1945133,1287,1897,-480,-1742,-1486,-341,-28,108,-262
0,2023-03-01T18:55:55.602153,1945138,1287,1897,-480,-1742,-1486,-341,-28,108,-262
0,2023-03-01T18:55:55.608544,1945144,1287,1897,-480,-1742,-1486,-341,-28,108,-262
0,2023-03-01T18:55:55.613509,1945149,1291,1913,-484,-1747,-1494,-357,-28,108,-262
0,2023-03-01T18:55:55.619112,1945155,1291,1913,-484,-1747,-1494,-357,-28,108,-262
0,2023-03-01T18:55:55.624568,1945160,1291,1913,-484,-1747,-1494,-357,-28,108,-262
0,2023-03-01T18:55:55.629732,1945165,1287,1904,-485,-1792,-1537,-350,-28,108,-262
0,2023-03-01T18:55:55.635680,1945171,1287,1904,-485,-1792,-1537,-350,-28,108,-262
0,2023-03-01T18:55:55.641186,1945177,1287,1904,-485,-1792,-1537,-350,-28,108,-262
0,2023-03-01T18:55:55.647318,1945183,1287,1904,-485,-1792,-1537,-350,-28,108,-262
0,2023-03-01T18:55:55.654565,1945190,1288,1909,-482,-1815,-1570,-350,-28,108,-262
0,2023-03-01T18:55:55.660763,1945196,1288,1909,-482,-1815,-1570,-350,-28,108,-262
0,2023-03-01T18:55:55.666535,1945202,1288,1909,-482,-1815,-1570,-350,-28,108,-262
0,2023-03-01T18:55:55.672091,1945208,1285,1908,-481,-1819,-1576,-344,-28,108,-262
0,2023-03-01T18:55:55.678086,1945213,1285,1908,-481,-1819,-1576,-344,-28,108,-262
0,2023-03-01T18:55:55.683014,1945219,1285,1908,-481,-1819,-1576,-344,-28,108,-262
0,2023-03-01T18:55:55.689234,1945225,1285,1908,-481,-1819,-1576,-344,-28,108,-262
0,2023-03-01T18:55:55.694669,1945231,1286,1906,-475,-1830,-1604,-352,-28,108,-262
0,2023-03-01T18:55:55.700897,1945237,1286,1906,-475,-1830,-1604,-352,-28,108,-262
0,2023-03-01T18:55:55.706489,1945242,1286,1906,-475,-1830,-1604,-352,-28,108,-262
0,2023-03-01T18:55:55.711768,1945247,1291,1911,-488,-1856,-1652,-352,-27,109,-263
0,2023-03-01T18:55:55.717471,1945253,1291,1911,-488,-1856,-1652,-352,-27,109,-263
0,2023-03-01T18:55:55.723348,1945259,1291,1911,-488,-1856,-1652,-352,-27,109,-263
0,2023-03-01T18:55:55.729808,1945266,1293,1909,-484,-1861,-1664,-348,-27,109,-263
0,2023-03-01T18:55:55.735637,1945272,1293,1909,-484,-1861,-1664,-348,-27,109,-263
0,2023-03-01T18:55:55.740583,1945277,1293,1909,-484,-1861,-1664,-348,-27,109,-263
0,2023-03-01T18:55:55.746009,1945282,1293,1909,-484,-1861,-1664,-348,-27,109,-263
0,2023-03-01T18:55:55.751225,1945287,1290,1902,-485,-1878,-1683,-355,-27,109,-263
0,2023-03-01T18:55:55.757510,1945292,1290,1902,-485,-1878,-1683,-355,-27,109,-263
0,2023-03-01T18:55:55.762484,1945298,1290,1902,-485,-1878,-1683,-355,-27,109,-263
0,2023-03-01T18:55:55.768861,1945305,1290,1902,-485,-1878,-1683,-355,-27,109,-263
0,2023-03-01T18:55:55.773538,1945310,1288,1901,-494,-1891,-1687,-353,-27,109,-263
0,2023-03-01T18:55:55.778984,1945315,1288,1901,-494,-1891,-1687,-353,-27,109,-263
0,2023-03-01T18:55:55.784802,1945321,1288,1901,-494,-1891,-1687,-353,-27,109,-263
0,2023-03-01T18:55:55.790654,1945326,1285,1903,-479,-1865,-1624,-367,-27,109,-263
0,2023-03-01T18:55:55.796058,1945332,1285,1903,-479,-1865,-1624,-367,-27,109,-263
0,2023-03-01T18:55:55.801509,1945337,1285,1903,-479,-1865,-1624,-367,-27,109,-263
0,2023-03-01T18:55:55.807138,1945342,1285,1903,-479,-1865,-1624,-367,-27,109,-263
0,2023-03-01T18:55:55.813631,1945349,1287,1913,-470,-1838,-1601,-355,-27,109,-263
0,2023-03-01T18:55:55.819143,1945355,1287,1913,-470,-1838,-1601,-355,-27,109,-263
0,2023-03-01T18:55:55.825042,1945361,1287,1913,-470,-1838,-1601,-355,-27,109,-263
0,2023-03-01T18:55:55.830171,1945366,1281,1901,-472,-1840,-1641,-342,-29,103,-263
0,2023-03-01T18:55:55.835968,1945372,1281,1901,-472,-1840,-1641,-342,-29,103,-263
0,2023-03-01T18:55:55.840693,1945376,1281,1901,-472,-1840,-1641,-342,-29,103,-263
0,2023-03-01T18:55:55.845696,1945381,1281,1901,-472,-1840,-1641,-342,-29,103,-263
0,2023-03-01T18:55:55.850465,1945387,1285,1903,-484,-1830,-1647,-344,-29,103,-263
0,2023-03-01T18:55:55.855864,1945392,1285,1903,-484,-1830,-1647,-344,-29,103,-263
0,2023-03-01T18:55:55.860772,1945397,1285,1903,-484,-1830,-1647,-344,-29,103,-263
0,2023-03-01T18:55:55.866567,1945403,1285,1903,-484,-1830,-1647,-344,-29,103,-263
0,2023-03-01T18:55:55.872599,1945409,1288,1909,-481,-1829,-1635,-346,-29,103,-263
0,2023-03-01T18:55:55.878309,1945414,1288,1909,-481,-1829,-1635,-346,-29,103,-263
0,2023-03-01T18:55:55.884374,1945420,1288,1909,-481,-1829,-1635,-346,-29,103,-263
0,2023-03-01T18:55:55.890029,1945426,1285,1904,-482,-1860,-1669,-352,-29,103,-263
0,2023-03-01T18:55:55.895425,1945432,1285,1904,-482,-1860,-1669,-352,-29,103,-263
0,2023-03-01T18:55:55.900467,1945437,1285,1904,-482,-1860,-1669,-352,-29,103,-263
0,2023-03-01T18:55:55.905556,1945442,1285,1904,-482,-1860,-1669,-352,-29,103,-263
0,2023-03-01T18:55:55.910781,1945446,1287,1909,-483,-1895,-1702,-356,-29,103,-263
0,2023-03-01T18:55:55.916185,1945452,1287,1909,-483,-1895,-1702,-356,-29,103,-263
0,2023-03-01T18:55:55.920965,1945457,1287,1909,-483,-1895,-1702,-356,-29,103,-263
0,2023-03-01T18:55:55.926113,1945462,1287,1909,-483,-1895,-1702,-356,-29,103,-263
0,2023-03-01T18:55:55.931325,1945467,1283,1909,-481,-1912,-1719,-366,-29,103,-263
0,2023-03-01T18:55:55.937368,1945474,1283,1909,-481,-1912,-1719,-366,-29,103,-263
0,2023-03-01T18:55:55.942845,1945479,1283,1909,-481,-1912,-1719,-366,-29,103,-263
0,2023-03-01T18:55:55.948778,1945485,1283,1909,-481,-1912,-1719,-366,-29,103,-263
0,2023-03-01T18:55:55.953501,1945490,1283,1906,-484,-1926,-1740,-366,-29,103,-263
0,2023-03-01T18:55:55.959211,1945495,1283,1906,-484,-1926,-1740,-366,-29,103,-263
0,2023-03-01T18:55:55.963746,1945500,1283,1906,-484,-1926,-1740,-366,-29,103,-263
0,2023-03-01T18:55:55.970054,1945505,1283,1906,-484,-1926,-1740,-366,-29,103,-263
0,2023-03-01T18:55:55.975398,1945511,1279,1913,-480,-1885,-1648,-376,-18,104,-266
0,2023-03-01T18:55:55.982931,1945519,1279,1913,-480,-1885,-1648,-376,-18,104,-266
0,2023-03-01T18:55:55.989450,1945525,1279,1913,-480,-1885,-1648,-376,-18,104,-266
0,2023-03-01T18:55:55.994917,1945531,1280,1918,-459,-1801,-1520,-369,-18,104,-266
0,2023-03-01T18:55:56.000630,1945536,1280,1918,-459,-1801,-1520,-369,-18,104,-266
0,2023-03-01T18:55:56.006326,1945542,1280,1918,-459,-1801,-1520,-369,-18,104,-266
0,2023-03-01T18:55:56.010993,1945547,1272,1907,-453,-1759,-1527,-352,-18,104,-266
0,2023-03-01T18:55:56.016559,1945552,1272,1907,-453,-1759,-1527,-352,-18,104,-266
0,2023-03-01T18:55:56.022288,1945559,1272,1907,-453,-1759,-1527,-352,-18,104,-266
0,2023-03-01T18:55:56.028796,1945565,1272,1907,-453,-1759,-1527,-352,-18,104,-266
0,2023-03-01T18:55:56.033766,1945570,1280,1913,-476,-1767,-1581,-326,-18,104,-266
0,2023-03-01T18:55:56.039548,1945575,1280,1913,-476,-1767,-1581,-326,-18,104,-266
0,2023-03-01T18:55:56.044556,1945581,1280,1913,-476,-1767,-1581,-326,-18,104,-266
0,2023-03-01T18:55:56.049851,1945585,1280,1913,-476,-1767,-1581,-326,-18,104,-266
0,2023-03-01T18:55:56.055722,1945591,1282,1905,-483,-1762,-1570,-333,-18,104,-266
0,2023-03-01T18:55:56.061502,1945597,1282,1905,-483,-1762,-1570,-333,-18,104,-266
0,2023-03-01T18:55:56.066816,1945603,1282,1905,-483,-1762,-1570,-333,-18,104,-266
0,2023-03-01T18:55:56.071627,1945608,1288,1904,-477,-1785,-1555,-355,-18,104,-266
0,2023-03-01T18:55:56.077246,1945613,1288,1904,-477,-1785,-1555,-355,-18,104,-266
0,2023-03-01T18:55:56.082620,1945619,1288,1904,-477,-1785,-1555,-355,-18,104,-266
0,2023-03-01T18:55:56.088849,1945625,1288,1904,-477,-1785,-1555,-355,-18,104,-266
0,2023-03-01T18:55:56.093760,1945630,1286,1903,-478,-1856,-1634,-360,-23,105,-263
0,2023-03-01T18:55:56.099211,1945635,1286,1903,-478,-1856,-1634,-360,-23,105,-263
0,2023-03-01T18:55:56.104847,1945640,1286,1903,-478,-1856,-1634,-360,-23,105,-263
0,2023-03-01T18:55:56.110704,1945647,1288,1908,-475,-1899,-1658,-368,-23,105,-263
0,2023-03-01T18:55:56.116158,1945653,1288,1908,-475,-1899,-1658,-368,-23,105,-263
0,2023-03-01T18:55:56.121959,1945657,1288,1908,-475,-1899,-1658,-368,-23,105,-263
0,2023-03-01T18:55:56.127758,1945664,1288,1908,-475,-1899,-1658,-368,-23,105,-263
0,2023-03-01T18:55:56.133885,1945669,1281,1911,-464,-1880,-1638,-374,-23,105,-263
0,2023-03-01T18:55:56.139577,1945675,1281,1911,-464,-1880,-1638,-374,-23,105,-263
0,2023-03-01T18:55:56.144917,1945681,1281,1911,-464,-1880,-1638,-374,-23,105,-263
0,2023-03-01T18:55:56.150292,1945687,1277,1918,-460,-1839,-1574,-377,-23,105,-263
0,2023-03-01T18:55:56.155801,1945692,1277,1918,-460,-1839,-1574,-377,-23,105,-263
0,2023-03-01T18:55:56.160844,1945697,1277,1918,-460,-1839,-1574,-377,-23,105,-263
0,2023-03-01T18:55:56.166963,1945703,1277,1918,-460,-1839,-1574,-377,-23,105,-263
0,2023-03-01T18:55:56.172600,1945708,1273,1913,-458,-1780,-1551,-360,-23,105,-263
0,2023-03-01T18:55:56.178567,1945714,1273,1913,-458,-1780,-1551,-360,-23,105,-263
0,2023-03-01T18:55:56.184521,1945720,1273,1913,-458,-1780,-1551,-360,-23,105,-263
0,2023-03-01T18:55:56.190824,1945726,1280,1914,-467,-1763,-1568,-342,-23,105,-263
0,2023-03-01T18:55:56.196823,1945733,1280,1914,-467,-1763,-1568,-342,-23,105,-263
0,2023-03-01T18:55:56.203400,1945739,1280,1914,-467,-1763,-1568,-342,-23,105,-263
0,2023-03-01T18:55:56.209766,1945746,1280,1914,-467,-1763,-1568,-342,-23,105,-263
0,2023-03-01T18:55:56.215504,1945751,1282,1909,-481,-1747,-1554,-348,-20,108,-268
0,2023-03-01T18:55:56.221534,1945757,1282,1909,-481,-1747,-1554,-348,-20,108,-268
0,2023-03-01T18:55:56.226658,1945762,1282,1909,-481,-1747,-1554,-348,-20,108,-268
0,2023-03-01T18:55:56.231924,1945767,1283,1911,-471,-1768,-1543,-361,-20,108,-268
0,2023-03-01T18:55:56.237763,1945774,1283,1911,-471,-1768,-1543,-361,-20,108,-268
0,2023-03-01T18:55:56.242334,1945779,1283,1911,-471,-1768,-1543,-361,-20,108,-268
0,2023-03-01T18:55:56.248470,1945784,1283,1911,-471,-1768,-1543,-361,-20,108,-268
0,2023-03-01T18:55:56.254249,1945790,1283,1911,-471,-1768,-1543,-361,-20,108,-268
0,2023-03-01T18:55:56.259189,1945795,1283,1911,-471,-1768,-1543,-361,-20,108,-268
0,2023-03-01T18:55:56.265161,1945801,1283,1911,-471,-1768,-1543,-361,-20,108,-268
0,2023-03-01T18:55:56.269742,1945806,1283,1911,-471,-1768,-1543,-361,-20,108,-268
0,2023-03-01T18:55:56.275073,1945810,1276,1906,-459,-1876,-1647,-365,-20,108,-268
0,2023-03-01T18:55:56.281182,1945818,1276,1906,-459,-1876,-1647,-365,-20,108,-268
0,2023-03-01T18:55:56.286778,1945823,1276,1906,-459,-1876,-1647,-365,-20,108,-268
0,2023-03-01T18:55:56.292616,1945828,1275,1917,-460,-1899,-1706,-375,-20,108,-268
0,2023-03-01T18:55:56.298853,1945835,1275,1917,-460,-1899,-1706,-375,-20,108,-268
0,2023-03-01T18:55:56.306106,1945841,1275,1917,-460,-1899,-1706,-375,-20,108,-268
0,2023-03-01T18:55:56.312725,1945848,1276,1917,-464,-1905,-1719,-378,-20,108,-268
0,2023-03-01T18:55:56.318043,1945854,1276,1917,-464,-1905,-1719,-378,-20,108,-268
0,2023-03-01T18:55:56.322911,1945859,1276,1917,-464,-1905,-1719,-378,-20,108,-268
0,2023-03-01T18:55:56.329031,1945865,1276,1917,-464,-1905,-1719,-378,-20,108,-268
0,2023-03-01T18:55:56.334634,1945870,1276,1917,-464,-1905,-1719,-378,-20,108,-268
0,2023-03-01T18:55:56.339521,1945876,1276,1917,-464,-1905,-1719,-378,-20,108,-268
0,2023-03-01T18:55:56.344979,1945881,1276,1917,-464,-1905,-1719,-378,-20,108,-268
0,2023-03-01T18:55:56.350115,1945885,1276,1917,-464,-1905,-1719,-378,-20,108,-268
0,2023-03-01T18:55:56.355597,1945891,1274,1917,-441,-1799,-1539,-357,-22,104,-260
0,2023-03-01T18:55:56.361403,1945897,1274,1917,-441,-1799,-1539,-357,-22,104,-260
0,2023-03-01T18:55:56.366739,1945903,1274,1917,-441,-1799,-1539,-357,-22,104,-260
0,2023-03-01T18:55:56.371826,1945908,1276,1916,-445,-1761,-1530,-350,-22,104,-260
0,2023-03-01T18:55:56.377874,1945914,1276,1916,-445,-1761,-1530,-350,-22,104,-260
0,2023-03-01T18:55:56.383052,1945919,1276,1916,-445,-1761,-1530,-350,-22,104,-260
0,2023-03-01T18:55:56.389226,1945925,1276,1916,-445,-1761,-1530,-350,-22,104,-260
0,2023-03-01T18:55:56.394122,1945930,1277,1911,-460,-1748,-1547,-341,-22,104,-260
0,2023-03-01T18:55:56.400267,1945936,1277,1911,-460,-1748,-1547,-341,-22,104,-260
0,2023-03-01T18:55:56.405983,1945943,1277,1911,-460,-1748,-1547,-341,-22,104,-260
0,2023-03-01T18:55:56.411324,1945947,1282,1919,-478,-1742,-1521,-345,-22,104,-260
0,2023-03-01T18:55:56.418134,1945954,1282,1919,-478,-1742,-1521,-345,-22,104,-260
0,2023-03-01T18:55:56.423749,1945960,1282,1919,-478,-1742,-1521,-345,-22,104,-260
0,2023-03-01T18:55:56.428430,1945964,1282,1919,-478,-1742,-1521,-345,-22,104,-260
0,2023-03-01T18:55:56.433503,1945969,1274,1907,-463,-1745,-1478,-355,-22,104,-260
0,2023-03-01T18:55:56.439227,1945975,1274,1907,-463,-1745,-1478,-355,-22,104,-260
0,2023-03-01T18:55:56.445071,1945981,1274,1907,-463,-1745,-1478,-355,-22,104,-260
0,2023-03-01T18:55:56.449656,1945986,1274,1907,-463,-1745,-1478,-355,-22,104,-260
0,2023-03-01T18:55:56.454765,1945991,1272,1911,-458,-1767,-1505,-369,-22,104,-260
0,2023-03-01T18:55:56.460504,1945997,1272,1911,-458,-1767,-1505,-369,-22,104,-260
0,2023-03-01T18:55:56.466276,1946002,1272,1911,-458,-1767,-1505,-369,-22,104,-260
0,2023-03-01T18:55:56.472575,1946008,1272,1916,-457,-1806,-1548,-364,-21,107,-275
0,2023-03-01T18:55:56.478375,1946014,1272,1916,-457,-1806,-1548,-364,-21,107,-275
0,2023-03-01T18:55:56.483870,1946019,1272,1916,-457,-1806,-1548,-364,-21,107,-275
0,2023-03-01T18:55:56.489566,1946025,1272,1916,-457,-1806,-1548,-364,-21,107,-275
0,2023-03-01T18:55:56.494496,1946031,1274,1916,-454,-1822,-1584,-373,-21,107,-275
0,2023-03-01T18:55:56.501384,1946038,1274,1916,-454,-1822,-1584,-373,-21,107,-275
0,2023-03-01T18:55:56.506614,1946043,1274,1916,-454,-1822,-1584,-373,-21,107,-275
0,2023-03-01T18:55:56.511530,1946048,1273,1914,-449,-1831,-1610,-369,-21,107,-275
0,2023-03-01T18:55:56.517480,1946053,1273,1914,-449,-1831,-1610,-369,-21,107,-275
0,2023-03-01T18:55:56.522604,1946058,1273,1914,-449,-1831,-1610,-369,-21,107,-275
0,2023-03-01T18:55:56.528426,1946064,1273,1914,-449,-1831,-1610,-369,-21,107,-275
0,2023-03-01T18:55:56.533738,1946070,1277,1912,-455,-1836,-1634,-364,-21,107,-275
0,2023-03-01T18:55:56.539806,1946076,1277,1912,-455,-1836,-1634,-364,-21,107,-275
0,2023-03-01T18:55:56.545825,1946082,1277,1912,-455,-1836,-1634,-364,-21,107,-275
0,2023-03-01T18:55:56.552404,1946088,1277,1913,-463,-1856,-1656,-368,-21,107,-275
0,2023-03-01T18:55:56.558342,1946094,1277,1913,-463,-1856,-1656,-368,-21,107,-275
0,2023-03-01T18:55:56.563713,1946100,1277,1913,-463,-1856,-1656,-368,-21,107,-275
0,2023-03-01T18:55:56.569182,1946105,1277,1913,-463,-1856,-1656,-368,-21,107,-275
0,2023-03-01T18:55:56.574397,1946110,1277,1922,-467,-1886,-1673,-366,-21,107,-275
0,2023-03-01T18:55:56.580335,1946117,1277,1922,-467,-1886,-1673,-366,-21,107,-275
0,2023-03-01T18:55:56.586296,1946122,1277,1922,-467,-1886,-1673,-366,-21,107,-275
0,2023-03-01T18:55:56.591223,1946127,1273,1912,-450,-1899,-1680,-367,-21,107,-275
0,2023-03-01T18:55:56.596871,1946133,1273,1912,-450,-1899,-1680,-367,-21,107,-275
0,2023-03-01T18:55:56.601970,1946138,1273,1912,-450,-1899,-1680,-367,-21,107,-275
0,2023-03-01T18:55:56.608029,1946144,1273,1912,-450,-1899,-1680,-367,-21,107,-275
0,2023-03-01T18:55:56.613729,1946149,1270,1915,-455,-1905,-1675,-387,-23,103,-271
0,2023-03-01T18:55:56.619469,1946156,1270,1915,-455,-1905,-1675,-387,-23,103,-271
0,2023-03-01T18:55:56.625030,1946161,1270,1915,-455,-1905,-1675,-387,-23,103,-271
0,2023-03-01T18:55:56.630720,1946167,1270,1915,-455,-1905,-1675,-387,-23,103,-271
0,2023-03-01T18:55:56.635625,1946172,1269,1918,-440,-1876,-1646,-386,-23,103,-271
0,2023-03-01T18:55:56.641414,1946177,1269,1918,-440,-1876,-1646,-386,-23,103,-271
0,2023-03-01T18:55:56.647254,1946183,1269,1918,-440,-1876,-1646,-386,-23,103,-271
0,2023-03-01T18:55:56.653515,1946189,1265,1924,-450,-1861,-1650,-372,-23,103,-271
0,2023-03-01T18:55:56.659588,1946195,1265,1924,-450,-1861,-1650,-372,-23,103,-271
0,2023-03-01T18:55:56.665438,1946202,1265,1924,-450,-1861,-1650,-372,-23,103,-271
0,2023-03-01T18:55:56.671063,1946207,1265,1924,-450,-1861,-1650,-372,-23,103,-271
0,2023-03-01T18:55:56.675859,1946212,1265,1924,-450,-1861,-1650,-372,-23,103,-271
0,2023-03-01T18:55:56.681077,1946217,1265,1924,-450,-1861,-1650,-372,-23,103,-271
0,2023-03-01T18:55:56.686646,1946222,1265,1924,-450,-1861,-1650,-372,-23,103,-271
0,2023-03-01T18:55:56.692594,1946228,1266,1912,-451,-1841,-1639,-354,-23,103,-271
0,2023-03-01T18:55:56.698457,1946234,1266,1912,-451,-1841,-1639,-354,-23,103,-271
0,2023-03-01T18:55:56.704087,1946241,1266,1912,-451,-1841,-1639,-354,-23,103,-271
0,2023-03-01T18:55:56.710602,1946247,1266,1912,-451,-1841,-1639,-354,-23,103,-271
0,2023-03-01T18:55:56.715876,1946252,1269,1917,-456,-1855,-1654,-366,-23,103,-271
0,2023-03-01T18:55:56.721332,1946257,1269,1917,-456,-1855,-1654,-366,-23,103,-271
0,2023-03-01T18:55:56.727127,1946263,1269,1917,-456,-1855,-1654,-366,-23,103,-271
0,2023-03-01T18:55:56.731941,1946268,1273,1919,-455,-1863,-1648,-363,-17,107,-265
0,2023-03-01T18:55:56.737784,1946273,1273,1919,-455,-1863,-1648,-363,-17,107,-265
0,2023-03-01T18:55:56.742787,1946278,1273,1919,-455,-1863,-1648,-363,-17,107,-265
0,2023-03-01T18:55:56.749712,1946286,1273,1919,-455,-1863,-1648,-363,-17,107,-265
0,2023-03-01T18:55:56.754894,1946291,1272,1921,-444,-1884,-1685,-360,-17,107,-265
0,2023-03-01T18:55:56.760590,1946297,1272,1921,-444,-1884,-1685,-360,-17,107,-265
0,2023-03-01T18:55:56.766482,1946302,1272,1921,-444,-1884,-1685,-360,-17,107,-265
0,2023-03-01T18:55:56.771481,1946307,1272,1917,-453,-1928,-1740,-376,-17,107,-265
0,2023-03-01T18:55:56.776750,1946313,1272,1917,-453,-1928,-1740,-376,-17,107,-265
0,2023-03-01T18:55:56.782411,1946318,1272,1917,-453,-1928,-1740,-376,-17,107,-265
0,2023-03-01T18:55:56.788668,1946324,1272,1917,-453,-1928,-1740,-376,-17,107,-265
0,2023-03-01T18:55:56.793660,1946330,1270,1915,-450,-1925,-1710,-385,-17,107,-265
0,2023-03-01T18:55:56.800029,1946336,1270,1915,-450,-1925,-1710,-385,-17,107,-265
0,2023-03-01T18:55:56.805713,1946342,1270,1915,-450,-1925,-1710,-385,-17,107,-265
0,2023-03-01T18:55:56.811432,1946347,1268,1922,-440,-1874,-1618,-390,-17,107,-265
0,2023-03-01T18:55:56.817342,1946353,1268,1922,-440,-1874,-1618,-390,-17,107,-265
0,2023-03-01T18:55:56.822353,1946358,1268,1922,-440,-1874,-1618,-390,-17,107,-265
0,2023-03-01T18:55:56.828319,1946364,1268,1922,-440,-1874,-1618,-390,-17,107,-265
0,2023-03-01T18:55:56.833349,1946370,1264,1925,-436,-1820,-1585,-374,-17,107,-265
0,2023-03-01T18:55:56.839391,1946376,1264,1925,-436,-1820,-1585,-374,-17,107,-265
0,2023-03-01T18:55:56.845308,1946381,1264,1925,-436,-1820,-1585,-374,-17,107,-265
0,2023-03-01T18:55:56.850212,1946386,1264,1925,-436,-1820,-1585,-374,-17,107,-265
0,2023-03-01T18:55:56.855866,1946391,1262,1919,-435,-1799,-1579,-367,-17,107,-265
0,2023-03-01T18:55:56.863119,1946399,1262,1919,-435,-1799,-1579,-367,-17,107,-265
0,2023-03-01T18:55:56.869211,1946405,1262,1919,-435,-1799,-1579,-367,-17,107,-265
0,2023-03-01T18:55:56.874412,1946411,1268,1919,-443,-1777,-1573,-353,-17,107,-265
0,2023-03-01T18:55:56.879792,1946416,1268,1919,-443,-1777,-1573,-353,-17,107,-265
0,2023-03-01T18:55:56.885281,1946421,1268,1919,-443,-1777,-1573,-353,-17,107,-265
0,2023-03-01T18:55:56.891045,1946427,1268,1919,-443,-1777,-1573,-353,-17,107,-265
0,2023-03-01T18:55:56.896340,1946432,1272,1920,-451,-1779,-1581,-351,-17,107,-265
0,2023-03-01T18:55:56.901752,1946438,1272,1920,-451,-1779,-1581,-351,-17,107,-265
0,2023-03-01T18:55:56.906988,1946443,1272,1920,-451,-1779,-1581,-351,-17,107,-265
0,2023-03-01T18:55:56.912428,1946448,1272,1921,-452,-1808,-1578,-369,-17,107,-265
0,2023-03-01T18:55:56.918360,1946455,1272,1921,-452,-1808,-1578,-369,-17,107,-265
0,2023-03-01T18:55:56.922888,1946459,1272,1921,-452,-1808,-1578,-369,-17,107,-265
0,2023-03-01T18:55:56.927564,1946464,1272,1921,-452,-1808,-1578,-369,-17,107,-265
0,2023-03-01T18:55:56.932451,1946469,1269,1919,-445,-1837,-1601,-371,-17,107,-265
0,2023-03-01T18:55:56.937804,1946474,1269,1919,-445,-1837,-1601,-371,-17,107,-265
0,2023-03-01T18:55:56.942433,1946478,1269,1919,-445,-1837,-1601,-371,-17,107,-265
0,2023-03-01T18:55:56.949144,1946485,1269,1919,-445,-1837,-1601,-371,-17,107,-265
0,2023-03-01T18:55:56.954317,1946490,1261,1914,-439,-1875,-1630,-380,-17,107,-265
0,2023-03-01T18:55:56.960008,1946496,1261,1914,-439,-1875,-1630,-380,-17,107,-265
0,2023-03-01T18:55:56.966187,1946502,1261,1914,-439,-1875,-1630,-380,-17,107,-265
0,2023-03-01T18:55:56.972802,1946509,1264,1926,-440,-1884,-1622,-382,-17,107,-265
0,2023-03-01T18:55:56.978186,1946514,1264,1926,-440,-1884,-1622,-382,-17,107,-265
0,2023-03-01T18:55:56.983425,1946519,1264,1926,-440,-1884,-1622,-382,-17,107,-265
0,2023-03-01T18:55:56.989635,1946526,1264,1926,-440,-1884,-1622,-382,-17,107,-265
0,2023-03-01T18:55:56.994445,1946530,1262,1925,-427,-1829,-1548,-378,-16,106,-268
0,2023-03-01T18:55:57.000336,1946536,1262,1925,-427,-1829,-1548,-378,-16,106,-268
0,2023-03-01T18:55:57.006432,1946543,1262,1925,-427,-1829,-1548,-378,-16,106,-268
0,2023-03-01T18:55:57.011356,1946548,1263,1929,-423,-1783,-1546,-365,-16,106,-268
0,2023-03-01T18:55:57.017038,1946553,1263,1929,-423,-1783,-1546,-365,-16,106,-268
0,2023-03-01T18:55:57.022258,1946558,1263,1929,-423,-1783,-1546,-365,-16,106,-268
0,2023-03-01T18:55:57.027721,1946564,1263,1929,-423,-1783,-1546,-365,-16,106,-268
0,2023-03-01T18:55:57.032633,1946568,1262,1918,-438,-1787,-1576,-354,-16,106,-268
0,2023-03-01T18:55:57.038572,1946574,1262,1918,-438,-1787,-1576,-354,-16,106,-268
0,2023-03-01T18:55:57.044080,1946580,1262,1918,-438,-1787,-1576,-354,-16,106,-268
0,2023-03-01T18:55:57.049962,1946586,1262,1918,-438,-1787,-1576,-354,-16,106,-268
0,2023-03-01T18:55:57.055611,1946592,1267,1920,-446,-1755,-1542,-362,-16,106,-268
0,2023-03-01T18:55:57.061468,1946597,1267,1920,-446,-1755,-1542,-362,-16,106,-268
0,2023-03-01T18:55:57.067517,1946603,1267,1920,-446,-1755,-1542,-362,-16,106,-268
0,2023-03-01T18:55:57.072037,1946608,1270,1921,-440,-1778,-1532,-368,-16,106,-268
0,2023-03-01T18:55:57.077611,1946613,1270,1921,-440,-1778,-1532,-368,-16,106,-268
0,2023-03-01T18:55:57.082432,1946618,1270,1921,-440,-1778,-1532,-368,-16,106,-268
0,2023-03-01T18:55:57.088892,1946625,1270,1921,-440,-1778,-1532,-368,-16,106,-268
0,2023-03-01T18:55:57.094490,1946631,1266,1922,-438,-1820,-1592,-375,-16,106,-268
0,2023-03-01T18:55:57.099887,1946636,1266,1922,-438,-1820,-1592,-375,-16,106,-268
0,2023-03-01T18:55:57.105079,1946641,1266,1922,-438,-1820,-1592,-375,-16,106,-268
0,2023-03-01T18:55:57.110592,1946647,1266,1922,-438,-1820,-1592,-375,-16,106,-268
0,2023-03-01T18:55:57.115531,1946651,1265,1912,-429,-1881,-1662,-384,-19,103,-271
0,2023-03-01T18:55:57.121284,1946657,1265,1912,-429,-1881,-1662,-384,-19,103,-271
0,2023-03-01T18:55:57.126720,1946662,1265,1912,-429,-1881,-1662,-384,-19,103,-271
0,2023-03-01T18:55:57.131438,1946668,1263,1920,-433,-1919,-1708,-387,-19,103,-271
0,2023-03-01T18:55:57.136751,1946673,1263,1920,-433,-1919,-1708,-387,-19,103,-271
0,2023-03-01T18:55:57.142283,1946678,1263,1920,-433,-1919,-1708,-387,-19,103,-271
0,2023-03-01T18:55:57.147806,1946684,1263,1920,-433,-1919,-1708,-387,-19,103,-271
0,2023-03-01T18:55:57.153727,1946690,1262,1923,-439,-1914,-1712,-390,-19,103,-271
0,2023-03-01T18:55:57.159212,1946695,1262,1923,-439,-1914,-1712,-390,-19,103,-271
0,2023-03-01T18:55:57.164765,1946701,1262,1923,-439,-1914,-1712,-390,-19,103,-271
0,2023-03-01T18:55:57.169911,1946705,1262,1923,-439,-1914,-1712,-390,-19,103,-271
0,2023-03-01T18:55:57.175797,1946711,1265,1928,-445,-1904,-1678,-391,-19,103,-271
0,2023-03-01T18:55:57.181742,1946718,1265,1928,-445,-1904,-1678,-391,-19,103,-271
0,2023-03-01T18:55:57.188231,1946724,1265,1928,-445,-1904,-1678,-391,-19,103,-271
0,2023-03-01T18:55:57.193336,1946729,1257,1926,-428,-1842,-1564,-389,-19,103,-271
0,2023-03-01T18:55:57.199070,1946735,1257,1926,-428,-1842,-1564,-389,-19,103,-271
0,2023-03-01T18:55:57.204730,1946740,1257,1926,-428,-1842,-1564,-389,-19,103,-271
0,2023-03-01T18:55:57.209765,1946745,1257,1926,-428,-1842,-1564,-389,-19,103,-271
0,2023-03-01T18:55:57.215006,1946750,1256,1925,-413,-1766,-1505,-375,-19,103,-271
0,2023-03-01T18:55:57.221353,1946758,1256,1925,-413,-1766,-1505,-375,-19,103,-271
0,2023-03-01T18:55:57.227347,1946763,1256,1925,-413,-1766,-1505,-375,-19,103,-271
0,2023-03-01T18:55:57.233128,1946769,1261,1929,-425,-1756,-1533,-370,-19,103,-271
0,2023-03-01T18:55:57.240513,1946776,1261,1929,-425,-1756,-1533,-370,-19,103,-271
0,2023-03-01T18:55:57.246562,1946782,1261,1929,-425,-1756,-1533,-370,-19,103,-271
0,2023-03-01T18:55:57.252082,1946787,1266,1925,-440,-1742,-1531,-358,-19,103,-271
0,2023-03-01T18:55:57.258172,1946793,1266,1925,-440,-1742,-1531,-358,-23,105,-269
0,2023-03-01T18:55:57.263280,1946800,1266,1925,-440,-1742,-1531,-358,-23,105,-269
0,2023-03-01T18:55:57.269130,1946805,1266,1925,-440,-1742,-1531,-358,-23,105,-269
0,2023-03-01T18:55:57.274116,1946810,1264,1923,-438,-1750,-1522,-357,-23,105,-269
0,2023-03-01T18:55:57.279496,1946816,1264,1923,-438,-1750,-1522,-357,-23,105,-269
0,2023-03-01T18:55:57.285198,1946821,1264,1923,-438,-1750,-1522,-357,-23,105,-269
0,2023-03-01T18:55:57.290407,1946826,1264,1923,-438,-1750,-1522,-357,-23,105,-269
0,2023-03-01T18:55:57.296637,1946831,1255,1916,-441,-1783,-1531,-375,-23,105,-269
0,2023-03-01T18:55:57.303221,1946840,1255,1916,-441,-1783,-1531,-375,-23,105,-269
0,2023-03-01T18:55:57.309661,1946845,1255,1916,-441,-1783,-1531,-375,-23,105,-269
0,2023-03-01T18:55:57.314697,1946851,1257,1928,-430,-1808,-1522,-392,-23,105,-269
0,2023-03-01T18:55:57.320716,1946857,1257,1928,-430,-1808,-1522,-392,-23,105,-269
0,2023-03-01T18:55:57.326270,1946862,1257,1928,-430,-1808,-1522,-392,-23,105,-269
0,2023-03-01T18:55:57.331175,1946867,1257,1928,-430,-1808,-1522,-392,-23,105,-269
0,2023-03-01T18:55:57.336149,1946872,1252,1927,-414,-1816,-1535,-389,-23,105,-269
0,2023-03-01T18:55:57.341965,1946877,1252,1927,-414,-1816,-1535,-389,-23,105,-269
0,2023-03-01T18:55:57.347502,1946884,1252,1927,-414,-1816,-1535,-389,-23,105,-269
0,2023-03-01T18:55:57.354074,1946890,1257,1936,-417,-1827,-1585,-385,-23,105,-269
0,2023-03-01T18:55:57.359735,1946896,1257,1936,-417,-1827,-1585,-385,-23,105,-269
0,2023-03-01T18:55:57.364459,1946901,1257,1936,-417,-1827,-1585,-385,-23,105,-269
0,2023-03-01T18:55:57.369752,1946906,1257,1936,-417,-1827,-1585,-385,-23,105,-269
0,2023-03-01T18:55:57.374633,1946910,1254,1926,-422,-1815,-1622,-373,-24,112,-260
0,2023-03-01T18:55:57.380703,1946916,1254,1926,-422,-1815,-1622,-373,-24,112,-260
0,2023-03-01T18:55:57.386781,1946923,1254,1926,-422,-1815,-1622,-373,-24,112,-260
0,2023-03-01T18:55:57.391973,1946928,1253,1920,-428,-1817,-1667,-365,-24,112,-260
0,2023-03-01T18:55:57.397446,1946934,1253,1920,-428,-1817,-1667,-365,-24,112,-260
0,2023-03-01T18:55:57.402450,1946939,1253,1920,-428,-1817,-1667,-365,-24,112,-260
0,2023-03-01T18:55:57.410776,1946946,1253,1920,-428,-1817,-1667,-365,-24,112,-260
0,2023-03-01T18:55:57.415580,1946952,1274,1943,-437,-1882,-1636,-405,-24,112,-260
0,2023-03-01T18:55:57.421020,1946957,1274,1943,-437,-1882,-1636,-405,-24,112,-260
0,2023-03-01T18:55:57.426553,1946962,1274,1943,-437,-1882,-1636,-405,-24,112,-260
0,2023-03-01T18:55:57.433451,1946969,1244,1904,-417,-1842,-1676,-350,-24,112,-260
0,2023-03-01T18:55:57.439295,1946976,1244,1904,-417,-1842,-1676,-350,-24,112,-260
0,2023-03-01T18:55:57.444854,1946981,1244,1904,-417,-1842,-1676,-350,-24,112,-260
0,2023-03-01T18:55:57.449510,1946986,1244,1904,-417,-1842,-1676,-350,-24,112,-260
0,2023-03-01T18:55:57.454667,1946991,1273,1946,-435,-1934,-1633,-414,-24,112,-260
0,2023-03-01T18:55:57.460622,1946996,1273,1946,-435,-1934,-1633,-414,-24,112,-260
0,2023-03-01T18:55:57.466482,1947002,1273,1946,-435,-1934,-1633,-414,-24,112,-260
0,2023-03-01T18:55:57.471377,1947008,1273,1946,-435,-1934,-1633,-414,-24,112,-260
0,2023-03-01T18:55:57.476834,1947013,1248,1920,-411,-1863,-1654,-377,-24,112,-260
0,2023-03-01T18:55:57.482143,1947018,1248,1920,-411,-1863,-1654,-377,-24,112,-260
0,2023-03-01T18:55:57.487687,1947024,1248,1920,-411,-1863,-1654,-377,-24,112,-260
0,2023-03-01T18:55:57.492958,1947029,1248,1915,-415,-1859,-1623,-388,-24,112,-260
0,2023-03-01T18:55:57.497950,1947034,1248,1915,-415,-1859,-1623,-388,-24,112,-260
0,2023-03-01T18:55:57.503011,1947039,1248,1915,-415,-1859,-1623,-388,-24,112,-260
0,2023-03-01T18:55:57.509412,1947045,1248,1915,-415,-1859,-1623,-388,-24,112,-260
0,2023-03-01T18:55:57.515258,1947051,1258,1951,-398,-1858,-1586,-422,-21,111,-273
0,2023-03-01T18:55:57.522437,1947058,1258,1951,-398,-1858,-1586,-422,-21,111,-273
0,2023-03-01T18:55:57.528228,1947064,1258,1951,-398,-1858,-1586,-422,-21,111,-273
0,2023-03-01T18:55:57.533963,1947070,1242,1911,-433,-1784,-1702,-339,-21,111,-273
0,2023-03-01T18:55:57.539855,1947076,1242,1911,-433,-1784,-1702,-339,-21,111,-273
0,2023-03-01T18:55:57.545486,1947081,1242,1911,-433,-1784,-1702,-339,-21,111,-273
0,2023-03-01T18:55:57.550203,1947086,1242,1911,-433,-1784,-1702,-339,-21,111,-273
0,2023-03-01T18:55:57.554967,1947091,1264,1945,-422,-1862,-1591,-402,-21,111,-273
0,2023-03-01T18:55:57.560436,1947097,1264,1945,-422,-1862,-1591,-402,-21,111,-273
0,2023-03-01T18:55:57.565757,1947102,1264,1945,-422,-1862,-1591,-402,-21,111,-273
0,2023-03-01T18:55:57.571121,1947107,1264,1945,-422,-1862,-1591,-402,-21,111,-273
0,2023-03-01T18:55:57.576615,1947112,1248,1921,-428,-1802,-1677,-354,-21,111,-273
0,2023-03-01T18:55:57.582033,1947118,1248,1921,-428,-1802,-1677,-354,-21,111,-273
0,2023-03-01T18:55:57.587623,1947123,1248,1921,-428,-1802,-1677,-354,-21,111,-273
0,2023-03-01T18:55:57.592808,1947128,1259,1921,-417,-1956,-1625,-397,-21,111,-273
0,2023-03-01T18:55:57.598538,1947134,1259,1921,-417,-1956,-1625,-397,-21,111,-273
0,2023-03-01T18:55:57.603347,1947140,1259,1921,-417,-1956,-1625,-397,-21,111,-273
0,2023-03-01T18:55:57.610355,1947147,1259,1921,-417,-1956,-1625,-397,-21,111,-273
0,2023-03-01T18:55:57.615100,1947151,1256,1931,-400,-1954,-1686,-422,-21,111,-273
0,2023-03-01T18:55:57.620379,1947157,1256,1931,-400,-1954,-1686,-422,-21,111,-273
0,2023-03-01T18:55:57.625612,1947161,1256,1931,-400,-1954,-1686,-422,-21,111,-273
0,2023-03-01T18:55:57.631112,1947167,1256,1931,-400,-1954,-1686,-422,-21,111,-273
0,2023-03-01T18:55:57.635863,1947172,1262,1940,-430,-1866,-1819,-370,-24,102,-270
0,2023-03-01T18:55:57.641465,1947177,1262,1940,-430,-1866,-1819,-370,-24,102,-270
0,2023-03-01T18:55:57.647111,1947183,1262,1940,-430,-1866,-1819,-370,-24,102,-270
0,2023-03-01T18:55:57.653156,1947189,1239,1906,-409,-1875,-1711,-393,-24,102,-270
0,2023-03-01T18:55:57.659074,1947195,1239,1906,-409,-1875,-1711,-393,-24,102,-270
0,2023-03-01T18:55:57.664190,1947200,1239,1906,-409,-1875,-1711,-393,-24,102,-270
0,2023-03-01T18:55:57.668860,1947205,1239,1906,-409,-1875,-1711,-393,-24,102,-270
0,2023-03-01T18:55:57.674020,1947210,1263,1966,-411,-1890,-1553,-451,-24,102,-270
0,2023-03-01T18:55:57.679495,1947215,1263,1966,-411,-1890,-1553,-451,-24,102,-270
0,2023-03-01T18:55:57.684676,1947220,1263,1966,-411,-1890,-1553,-451,-24,102,-270
0,2023-03-01T18:55:57.689632,1947226,1263,1966,-411,-1890,-1553,-451,-24,102,-270
0,2023-03-01T18:55:57.694357,1947231,1239,1923,-393,-1771,-1595,-342,-24,102,-270
0,2023-03-01T18:55:57.699903,1947236,1239,1923,-393,-1771,-1595,-342,-24,102,-270
0,2023-03-01T18:55:57.706110,1947242,1239,1923,-393,-1771,-1595,-342,-24,102,-270
0,2023-03-01T18:55:57.711823,1947248,1239,1923,-393,-1771,-1595,-342,-24,102,-270
0,2023-03-01T18:55:57.717030,1947253,1245,1921,-422,-1788,-1586,-380,-24,102,-270
0,2023-03-01T18:55:57.723151,1947258,1245,1921,-422,-1788,-1586,-380,-24,102,-270
0,2023-03-01T18:55:57.729318,1947266,1245,1921,-422,-1788,-1586,-380,-24,102,-270
0,2023-03-01T18:55:57.735020,1947271,1256,1940,-414,-1755,-1539,-374,-24,102,-270
0,2023-03-01T18:55:57.741304,1947277,1256,1940,-414,-1755,-1539,-374,-24,102,-270
0,2023-03-01T18:55:57.746984,1947283,1256,1940,-414,-1755,-1539,-374,-24,102,-270
0,2023-03-01T18:55:57.752757,1947288,1235,1897,-418,-1745,-1569,-338,-24,102,-270
0,2023-03-01T18:55:57.758607,1947294,1235,1897,-418,-1745,-1569,-338,-23,109,-271
0,2023-03-01T18:55:57.763919,1947299,1235,1897,-418,-1745,-1569,-338,-23,109,-271
0,2023-03-01T18:55:57.769906,1947307,1235,1897,-418,-1745,-1569,-338,-23,109,-271
0,2023-03-01T18:55:57.774831,1947311,1235,1897,-418,-1745,-1569,-338,-23,109,-271
0,2023-03-01T18:55:57.779987,1947316,1235,1897,-418,-1745,-1569,-338,-23,109,-271
0,2023-03-01T18:55:57.785953,1947322,1235,1897,-418,-1745,-1569,-338,-23,109,-271
0,2023-03-01T18:55:57.791794,1947327,1235,1897,-418,-1745,-1569,-338,-23,109,-271
0,2023-03-01T18:55:57.796948,1947333,1247,1921,-429,-1793,-1670,-359,-23,109,-271
0,2023-03-01T18:55:57.802537,1947338,1247,1921,-429,-1793,-1670,-359,-23,109,-271
0,2023-03-01T18:55:57.808054,1947344,1247,1921,-429,-1793,-1670,-359,-23,109,-271
0,2023-03-01T18:55:57.813411,1947350,1249,1927,-413,-1865,-1562,-427,-23,109,-271
0,2023-03-01T18:55:57.818767,1947355,1249,1927,-413,-1865,-1562,-427,-23,109,-271
0,2023-03-01T18:55:57.824269,1947360,1249,1927,-413,-1865,-1562,-427,-23,109,-271
0,2023-03-01T18:55:57.829024,1947365,1249,1927,-413,-1865,-1562,-427,-23,109,-271
0,2023-03-01T18:55:57.834659,1947371,1246,1939,-390,-1819,-1559,-411,-23,109,-271
0,2023-03-01T18:55:57.841501,1947376,1246,1939,-390,-1819,-1559,-411,-23,109,-271
0,2023-03-01T18:55:57.848088,1947384,1246,1939,-390,-1819,-1559,-411,-23,109,-271
0,2023-03-01T18:55:57.853934,1947390,1244,1923,-394,-1785,-1575,-361,-23,109,-271
0,2023-03-01T18:55:57.859600,1947396,1244,1923,-394,-1785,-1575,-361,-23,109,-271
0,2023-03-01T18:55:57.865067,1947402,1244,1923,-394,-1785,-1575,-361,-23,109,-271
0,2023-03-01T18:55:57.870644,1947406,1244,1923,-394,-1785,-1575,-361,-23,109,-271
0,2023-03-01T18:55:57.876320,1947412,1255,1947,-400,-1813,-1548,-402,-23,109,-271
0,2023-03-01T18:55:57.881971,1947418,1255,1947,-400,-1813,-1548,-402,-23,109,-271
0,2023-03-01T18:55:57.887108,1947423,1255,1947,-400,-1813,-1548,-402,-23,109,-271
0,2023-03-01T18:55:57.891597,1947427,1255,1947,-400,-1813,-1548,-402,-23,109,-271
0,2023-03-01T18:55:57.896619,1947432,1243,1907,-410,-1737,-1608,-329,-25,101,-267
0,2023-03-01T18:55:57.902225,1947439,1243,1907,-410,-1737,-1608,-329,-25,101,-267
0,2023-03-01T18:55:57.908215,1947444,1243,1907,-410,-1737,-1608,-329,-25,101,-267
0,2023-03-01T18:55:57.913280,1947450,1277,1960,-409,-1906,-1474,-439,-25,101,-267
0,2023-03-01T18:55:57.918804,1947455,1277,1960,-409,-1906,-1474,-439,-25,101,-267
0,2023-03-01T18:55:57.924508,1947460,1277,1960,-409,-1906,-1474,-439,-25,101,-267
0,2023-03-01T18:55:57.930109,1947466,1277,1960,-409,-1906,-1474,-439,-25,101,-267
0,2023-03-01T18:55:57.935579,1947471,1241,1908,-402,-1818,-1626,-384,-25,101,-267
0,2023-03-01T18:55:57.941432,1947478,1241,1908,-402,-1818,-1626,-384,-25,101,-267
0,2023-03-01T18:55:57.946870,1947483,1241,1908,-402,-1818,-1626,-384,-25,101,-267
0,2023-03-01T18:55:57.952283,1947488,1241,1908,-402,-1818,-1626,-384,-25,101,-267
0,2023-03-01T18:55:57.957512,1947494,1254,1934,-411,-1805,-1719,-378,-25,101,-267
0,2023-03-01T18:55:57.963662,1947499,1254,1934,-411,-1805,-1719,-378,-25,101,-267
0,2023-03-01T18:55:57.969799,1947506,1254,1934,-411,-1805,-1719,-378,-25,101,-267
0,2023-03-01T18:55:57.975480,1947511,1235,1919,-398,-1889,-1714,-418,-25,101,-267
0,2023-03-01T18:55:57.981039,1947517,1235,1919,-398,-1889,-1714,-418,-25,101,-267
0,2023-03-01T18:55:57.987085,1947523,1235,1919,-398,-1889,-1714,-418,-25,101,-267
0,2023-03-01T18:55:57.992443,1947529,1235,1919,-398,-1889,-1714,-418,-25,101,-267
0,2023-03-01T18:55:57.997512,1947534,1251,1949,-401,-1946,-1686,-420,-25,101,-267
0,2023-03-01T18:55:58.002719,1947539,1251,1949,-401,-1946,-1686,-420,-25,101,-267
0,2023-03-01T18:55:58.008228,1947544,1251,1949,-401,-1946,-1686,-420,-25,101,-267
0,2023-03-01T18:55:58.013959,1947550,1233,1919,-405,-1871,-1702,-377,-22,112,-270
0,2023-03-01T18:55:58.020082,1947555,1233,1919,-405,-1871,-1702,-377,-22,112,-270
0,2023-03-01T18:55:58.025742,1947561,1233,1919,-405,-1871,-1702,-377,-22,112,-270
0,2023-03-01T18:55:58.030785,1947567,1233,1919,-405,-1871,-1702,-377,-22,112,-270
0,2023-03-01T18:55:58.036530,1947572,1250,1954,-384,-1847,-1556,-432,-22,112,-270
0,2023-03-01T18:55:58.042122,1947578,1250,1954,-384,-1847,-1556,-432,-22,112,-270
0,2023-03-01T18:55:58.048555,1947584,1250,1954,-384,-1847,-1556,-432,-22,112,-270
0,2023-03-01T18:55:58.054035,1947590,1231,1915,-380,-1756,-1539,-358,-22,112,-270
0,2023-03-01T18:55:58.060544,1947595,1231,1915,-380,-1756,-1539,-358,-22,112,-270
0,2023-03-01T18:55:58.066636,1947602,1231,1915,-380,-1756,-1539,-358,-22,112,-270
0,2023-03-01T18:55:58.072266,1947609,1231,1915,-380,-1756,-1539,-358,-22,112,-270
0,2023-03-01T18:55:58.077500,1947614,1259,1958,-380,-1798,-1446,-425,-22,112,-270
0,2023-03-01T18:55:58.083314,1947619,1259,1958,-380,-1798,-1446,-425,-22,112,-270
0,2023-03-01T18:55:58.089294,1947626,1259,1958,-380,-1798,-1446,-425,-22,112,-270
0,2023-03-01T18:55:58.094066,1947630,1243,1924,-410,-1701,-1593,-341,-22,112,-270
0,2023-03-01T18:55:58.099800,1947636,1243,1924,-410,-1701,-1593,-341,-22,112,-270
0,2023-03-01T18:55:58.105553,1947641,1243,1924,-410,-1701,-1593,-341,-22,112,-270
0,2023-03-01T18:55:58.110555,1947646,1243,1924,-410,-1701,-1593,-341,-22,112,-270
0,2023-03-01T18:55:58.115420,1947652,1251,1921,-420,-1782,-1568,-373,-22,112,-270
0,2023-03-01T18:55:58.121011,1947657,1251,1921,-420,-1782,-1568,-373,-22,112,-270
0,2023-03-01T18:55:58.126496,1947663,1251,1921,-420,-1782,-1568,-373,-22,112,-270
0,2023-03-01T18:55:58.131991,1947668,1251,1921,-420,-1782,-1568,-373,-22,112,-270
0,2023-03-01T18:55:58.136972,1947673,1248,1930,-395,-1787,-1537,-406,-22,112,-270
0,2023-03-01T18:55:58.142428,1947678,1248,1930,-395,-1787,-1537,-406,-22,112,-270
0,2023-03-01T18:55:58.148166,1947684,1248,1930,-395,-1787,-1537,-406,-22,112,-270
0,2023-03-01T18:55:58.152975,1947689,1253,1936,-406,-1829,-1577,-399,-29,107,-271
0,2023-03-01T18:55:58.158890,1947695,1253,1936,-406,-1829,-1577,-399,-29,107,-271
0,2023-03-01T18:55:58.164498,1947701,1253,1936,-406,-1829,-1577,-399,-29,107,-271
0,2023-03-01T18:55:58.170785,1947706,1253,1936,-406,-1829,-1577,-399,-29,107,-271
0,2023-03-01T18:55:58.176367,1947712,1235,1929,-366,-1850,-1591,-413,-29,107,-271
0,2023-03-01T18:55:58.181759,1947718,1235,1929,-366,-1850,-1591,-413,-29,107,-271
0,2023-03-01T18:55:58.187798,1947723,1235,1929,-366,-1850,-1591,-413,-29,107,-271
0,2023-03-01T18:55:58.193592,1947729,1242,1941,-406,-1888,-1598,-421,-29,107,-271
0,2023-03-01T18:55:58.199078,1947736,1242,1941,-406,-1888,-1598,-421,-29,107,-271
0,2023-03-01T18:55:58.204354,1947741,1242,1941,-406,-1888,-1598,-421,-29,107,-271
0,2023-03-01T18:55:58.209297,1947746,1242,1941,-406,-1888,-1598,-421,-29,107,-271
0,2023-03-01T18:55:58.214115,1947750,1236,1933,-365,-1809,-1544,-401,-29,107,-271
0,2023-03-01T18:55:58.219750,1947756,1236,1933,-365,-1809,-1544,-401,-29,107,-271
0,2023-03-01T18:55:58.225482,1947761,1236,1933,-365,-1809,-1544,-401,-29,107,-271
0,2023-03-01T18:55:58.230512,1947766,1236,1933,-365,-1809,-1544,-401,-29,107,-271
0,2023-03-01T18:55:58.235625,1947771,1231,1919,-398,-1734,-1631,-357,-29,107,-271
0,2023-03-01T18:55:58.241285,1947778,1231,1919,-398,-1734,-1631,-357,-29,107,-271
0,2023-03-01T18:55:58.248064,1947784,1231,1919,-398,-1734,-1631,-357,-29,107,-271
0,2023-03-01T18:55:58.253835,1947790,1231,1919,-398,-1734,-1631,-357,-29,107,-271
0,2023-03-01T18:55:58.258621,1947795,1231,1919,-398,-1734,-1631,-357,-29,107,-271
0,2023-03-01T18:55:58.263929,1947800,1231,1919,-398,-1734,-1631,-357,-29,107,-271
0,2023-03-01T18:55:58.270174,1947806,1231,1919,-398,-1734,-1631,-357,-29,107,-271
0,2023-03-01T18:55:58.275446,1947811,1235,1912,-408,-1841,-1685,-369,-22,106,-280
0,2023-03-01T18:55:58.281905,1947817,1235,1912,-408,-1841,-1685,-369,-22,106,-280
0,2023-03-01T18:55:58.287606,1947824,1235,1912,-408,-1841,-1685,-369,-22,106,-280
0,2023-03-01T18:55:58.292696,1947829,1235,1912,-408,-1841,-1685,-369,-22,106,-280
0,2023-03-01T18:55:58.297976,1947834,1260,1944,-402,-1790,-1664,-392,-22,106,-280
0,2023-03-01T18:55:58.303640,1947840,1260,1944,-402,-1790,-1664,-392,-22,106,-280
0,2023-03-01T18:55:58.310362,1947846,1260,1944,-402,-1790,-1664,-392,-22,106,-280
0,2023-03-01T18:55:58.315155,1947851,1233,1909,-380,-1807,-1632,-398,-22,106,-280
0,2023-03-01T18:55:58.320813,1947856,1233,1909,-380,-1807,-1632,-398,-22,106,-280
0,2023-03-01T18:55:58.326599,1947863,1233,1909,-380,-1807,-1632,-398,-22,106,-280
0,2023-03-01T18:55:58.331943,1947868,1233,1909,-380,-1807,-1632,-398,-22,106,-280
0,2023-03-01T18:55:58.337960,1947873,1263,1967,-380,-2003,-1548,-464,-22,106,-280
0,2023-03-01T18:55:58.343663,1947880,1263,1967,-380,-2003,-1548,-464,-22,106,-280
0,2023-03-01T18:55:58.349849,1947886,1263,1967,-380,-2003,-1548,-464,-22,106,-280
0,2023-03-01T18:55:58.354867,1947891,1231,1926,-372,-1860,-1656,-389,-22,106,-280
0,2023-03-01T18:55:58.360296,1947896,1231,1926,-372,-1860,-1656,-389,-22,106,-280
0,2023-03-01T18:55:58.365602,1947901,1231,1926,-372,-1860,-1656,-389,-22,106,-280
0,2023-03-01T18:55:58.370983,1947907,1231,1926,-372,-1860,-1656,-389,-22,106,-280
0,2023-03-01T18:55:58.376215,1947912,1239,1939,-391,-1752,-1677,-388,-22,106,-280
0,2023-03-01T18:55:58.382509,1947918,1239,1939,-391,-1752,-1677,-388,-22,106,-280
0,2023-03-01T18:55:58.388061,1947924,1239,1939,-391,-1752,-1677,-388,-22,106,-280
0,2023-03-01T18:55:58.395423,1947931,1232,1917,-370,-1758,-1653,-369,-22,106,-280
0,2023-03-01T18:55:58.401132,1947937,1232,1917,-370,-1758,-1653,-369,-22,106,-280
0,2023-03-01T18:55:58.406112,1947942,1232,1917,-370,-1758,-1653,-369,-22,106,-280
0,2023-03-01T18:55:58.410812,1947947,1232,1917,-370,-1758,-1653,-369,-22,106,-280
0,2023-03-01T18:55:58.415993,1947952,1257,1960,-399,-1941,-1586,-436,-26,114,-278
0,2023-03-01T18:55:58.422071,1947958,1257,1960,-399,-1941,-1586,-436,-26,114,-278
0,2023-03-01T18:55:58.427861,1947964,1257,1960,-399,-1941,-1586,-436,-26,114,-278
0,2023-03-01T18:55:58.433335,1947970,1238,1924,-381,-1874,-1689,-378,-26,114,-278
0,2023-03-01T18:55:58.439276,1947975,1238,1924,-381,-1874,-1689,-378,-26,114,-278
0,2023-03-01T18:55:58.445106,1947981,1238,1924,-381,-1874,-1689,-378,-26,114,-278
0,2023-03-01T18:55:58.451305,1947987,1238,1924,-381,-1874,-1689,-378,-26,114,-278
0,2023-03-01T18:55:58.456076,1947993,1244,1940,-395,-1836,-1782,-385,-26,114,-278
0,2023-03-01T18:55:58.461437,1947998,1244,1940,-395,-1836,-1782,-385,-26,114,-278
0,2023-03-01T18:55:58.466889,1948003,1244,1940,-395,-1836,-1782,-385,-26,114,-278
0,2023-03-01T18:55:58.472229,1948008,1244,1940,-395,-1836,-1782,-385,-26,114,-278
0,2023-03-01T18:55:58.477480,1948013,1225,1921,-367,-1924,-1754,-407,-26,114,-278
0,2023-03-01T18:55:58.483116,1948019,1225,1921,-367,-1924,-1754,-407,-26,114,-278
0,2023-03-01T18:55:58.488089,1948024,1225,1921,-367,-1924,-1754,-407,-26,114,-278
0,2023-03-01T18:55:58.492695,1948029,1225,1921,-367,-1924,-1754,-407,-26,114,-278
0,2023-03-01T18:55:58.497444,1948034,1255,1969,-408,-2075,-1683,-471,-26,114,-278
0,2023-03-01T18:55:58.502816,1948039,1255,1969,-408,-2075,-1683,-471,-26,114,-278
0,2023-03-01T18:55:58.509027,1948045,1255,1969,-408,-2075,-1683,-471,-26,114,-278
0,2023-03-01T18:55:58.515059,1948051,1227,1935,-361,-1886,-1672,-405,-26,114,-278
0,2023-03-01T18:55:58.521008,1948057,1227,1935,-361,-1886,-1672,-405,-26,114,-278
0,2023-03-01T18:55:58.525613,1948062,1227,1935,-361,-1886,-1672,-405,-26,114,-278
0,2023-03-01T18:55:58.530665,1948066,1227,1935,-361,-1886,-1672,-405,-26,114,-278
0,2023-03-01T18:55:58.535636,1948071,1228,1941,-372,-1765,-1680,-380,-24,106,-270
0,2023-03-01T18:55:58.541073,1948078,1228,1941,-372,-1765,-1680,-380,-24,106,-270
0,2023-03-01T18:55:58.546501,1948083,1228,1941,-372,-1765,-1680,-380,-24,106,-270
0,2023-03-01T18:55:58.551610,1948088,1228,1941,-372,-1765,-1680,-380,-24,106,-270
0,2023-03-01T18:55:58.556760,1948093,1232,1940,-365,-1804,-1576,-398,-24,106,-270
0,2023-03-01T18:55:58.562884,1948099,1232,1940,-365,-1804,-1576,-398,-24,106,-270
0,2023-03-01T18:55:58.568354,1948104,1232,1940,-365,-1804,-1576,-398,-24,106,-270
0,2023-03-01T18:55:58.574172,1948110,1238,1947,-386,-1751,-1530,-384,-24,106,-270
0,2023-03-01T18:55:58.579663,1948115,1238,1947,-386,-1751,-1530,-384,-24,106,-270
0,2023-03-01T18:55:58.585307,1948122,1238,1947,-386,-1751,-1530,-384,-24,106,-270
0,2023-03-01T18:55:58.590908,1948127,1238,1947,-386,-1751,-1530,-384,-24,106,-270
0,2023-03-01T18:55:58.597569,1948134,1236,1929,-374,-1702,-1477,-374,-24,106,-270
0,2023-03-01T18:55:58.603080,1948139,1236,1929,-374,-1702,-1477,-374,-24,106,-270
0,2023-03-01T18:55:58.609681,1948145,1236,1929,-374,-1702,-1477,-374,-24,106,-270
0,2023-03-01T18:55:58.616517,1948152,1243,1944,-364,-1750,-1497,-402,-24,106,-270
0,2023-03-01T18:55:58.622081,1948158,1243,1944,-364,-1750,-1497,-402,-24,106,-270
0,2023-03-01T18:55:58.627697,1948164,1243,1944,-364,-1750,-1497,-402,-24,106,-270
0,2023-03-01T18:55:58.633435,1948170,1233,1921,-393,-1816,-1613,-387,-24,106,-270
0,2023-03-01T18:55:58.638815,1948175,1233,1921,-393,-1816,-1613,-387,-24,106,-270
0,2023-03-01T18:55:58.644506,1948181,1233,1921,-393,-1816,-1613,-387,-24,106,-270
0,2023-03-01T18:55:58.649334,1948185,1233,1921,-393,-1816,-1613,-387,-24,106,-270
0,2023-03-01T18:55:58.654704,1948190,1245,1950,-379,-1885,-1556,-442,-24,114,-276
0,2023-03-01T18:55:58.660276,1948196,1245,1950,-379,-1885,-1556,-442,-24,114,-276
0,2023-03-01T18:55:58.665972,1948203,1245,1950,-379,-1885,-1556,-442,-24,114,-276
0,2023-03-01T18:55:58.670932,1948207,1245,1950,-379,-1885,-1556,-442,-24,114,-276
0,2023-03-01T18:55:58.675470,1948212,1237,1945,-371,-1783,-1597,-390,-24,114,-276
