imu,server_time,arduino_time,ax,ay,az,gx,gy,gz,mx,my,mz
0,2023-03-01T18:57:42.102615,2051644,920,1546,950,-1040,-568,-310,-41,211,-187
0,2023-03-01T18:57:42.108179,2051650,922,1549,952,-1035,-581,-318,-41,211,-187
0,2023-03-01T18:57:42.112754,2051655,922,1549,952,-1035,-581,-318,-41,211,-187
0,2023-03-01T18:57:42.118439,2051660,922,1549,952,-1035,-581,-318,-41,211,-187
0,2023-03-01T18:57:42.123064,2051665,918,1546,950,-1035,-586,-317,-41,211,-187
0,2023-03-01T18:57:42.128340,2051671,918,1546,950,-1035,-586,-317,-41,211,-187
0,2023-03-01T18:57:42.133255,2051675,918,1546,950,-1035,-586,-317,-41,211,-187
0,2023-03-01T18:57:42.138885,2051681,918,1546,950,-1035,-586,-317,-41,211,-187
0,2023-03-01T18:57:42.145066,2051687,918,1549,942,-1033,-574,-325,-41,211,-187
0,2023-03-01T18:57:42.150997,2051693,918,1549,942,-1033,-574,-325,-41,211,-187
0,2023-03-01T18:57:42.156606,2051698,918,1549,942,-1033,-574,-325,-41,211,-187
0,2023-03-01T18:57:42.162278,2051704,918,1549,942,-1033,-574,-325,-41,211,-187
0,2023-03-01T18:57:42.166880,2051708,918,1547,941,-1043,-576,-322,-41,211,-187
0,2023-03-01T18:57:42.172424,2051715,918,1547,941,-1043,-576,-322,-41,211,-187
0,2023-03-01T18:57:42.178486,2051720,918,1547,941,-1043,-576,-322,-41,211,-187
0,2023-03-01T18:57:42.183507,2051725,919,1549,941,-1038,-576,-309,-41,211,-187
0,2023-03-01T18:57:42.189214,2051731,919,1549,941,-1038,-576,-309,-41,211,-187
0,2023-03-01T18:57:42.193912,2051736,919,1549,941,-1038,-576,-309,-41,211,-187
0,2023-03-01T18:57:42.198628,2051740,919,1549,941,-1038,-576,-309,-41,211,-187
0,2023-03-01T18:57:42.203374,2051745,916,1547,948,-1042,-577,-317,-34,212,-184
0,2023-03-01T18:57:42.208943,2051750,916,1547,948,-1042,-577,-317,-34,212,-184
0,2023-03-01T18:57:42.214350,2051756,916,1547,948,-1042,-577,-317,-34,212,-184
0,2023-03-01T18:57:42.219604,2051762,916,1547,948,-1042,-577,-317,-34,212,-184
0,2023-03-01T18:57:42.224415,2051766,917,1548,943,-1036,-571,-323,-34,212,-184
0,2023-03-01T18:57:42.229582,2051772,917,1548,943,-1036,-571,-323,-34,212,-184
0,2023-03-01T18:57:42.234783,2051776,917,1548,943,-1036,-571,-323,-34,212,-184
0,2023-03-01T18:57:42.240388,2051782,917,1548,943,-1036,-571,-323,-34,212,-184
0,2023-03-01T18:57:42.245875,2051787,922,1547,945,-1034,-570,-316,-34,212,-184
0,2023-03-01T18:57:42.251720,2051793,922,1547,945,-1034,-570,-316,-34,212,-184
0,2023-03-01T18:57:42.257599,2051800,922,1547,945,-1034,-570,-316,-34,212,-184
0,2023-03-01T18:57:42.263509,2051805,920,1549,942,-1036,-572,-314,-34,212,-184
0,2023-03-01T18:57:42.269260,2051811,920,1549,942,-1036,-572,-314,-34,212,-184
0,2023-03-01T18:57:42.274138,2051816,920,1549,942,-1036,-572,-314,-34,212,-184
0,2023-03-01T18:57:42.279501,2051821,920,1549,942,-1036,-572,-314,-34,212,-184
0,2023-03-01T18:57:42.284456,2051826,919,1545,948,-1044,-571,-318,-34,212,-184
0,2023-03-01T18:57:42.290662,2051832,919,1545,948,-1044,-571,-318,-34,212,-184
0,2023-03-01T18:57:42.295781,2051837,919,1545,948,-1044,-571,-318,-34,212,-184
0,2023-03-01T18:57:42.302647,2051845,919,1545,948,-1044,-571,-318,-34,212,-184
0,2023-03-01T18:57:42.307950,2051850,922,1550,943,-1033,-569,-322,-34,212,-184
0,2023-03-01T18:57:42.313833,2051855,922,1550,943,-1033,-569,-322,-34,212,-184
0,2023-03-01T18:57:42.319720,2051861,922,1550,943,-1033,-569,-322,-34,212,-184
0,2023-03-01T18:57:42.324918,2051866,921,1548,940,-1038,-572,-325,-38,204,-178
0,2023-03-01T18:57:42.330334,2051872,921,1548,940,-1038,-572,-325,-38,204,-178
0,2023-03-01T18:57:42.335234,2051876,921,1548,940,-1038,-572,-325,-38,204,-178
0,2023-03-01T18:57:42.340627,2051883,921,1548,940,-1038,-572,-325,-38,204,-178
0,2023-03-01T18:57:42.345691,2051888,918,1551,941,-1041,-573,-324,-38,204,-178
0,2023-03-01T18:57:42.351408,2051893,918,1551,941,-1041,-573,-324,-38,204,-178
0,2023-03-01T18:57:42.357187,2051899,918,1551,941,-1041,-573,-324,-38,204,-178
0,2023-03-01T18:57:42.361841,2051904,918,1551,941,-1041,-573,-324,-38,204,-178
0,2023-03-01T18:57:42.367007,2051909,919,1547,950,-1036,-566,-323,-38,204,-178
0,2023-03-01T18:57:42.372700,2051914,919,1547,950,-1036,-566,-323,-38,204,-178
0,2023-03-01T18:57:42.378472,2051920,919,1547,950,-1036,-566,-323,-38,204,-178
0,2023-03-01T18:57:42.383420,2051926,918,1547,946,-1039,-568,-324,-38,204,-178
0,2023-03-01T18:57:42.388902,2051931,918,1547,946,-1039,-568,-324,-38,204,-178
0,2023-03-01T18:57:42.393750,2051936,918,1547,946,-1039,-568,-324,-38,204,-178
0,2023-03-01T18:57:42.398938,2051941,918,1547,946,-1039,-568,-324,-38,204,-178
0,2023-03-01T18:57:42.404365,2051946,918,1548,946,-1037,-568,-322,-38,204,-178
0,2023-03-01T18:57:42.411535,2051953,918,1548,946,-1037,-568,-322,-38,204,-178
0,2023-03-01T18:57:42.417373,2051959,918,1548,946,-1037,-568,-322,-38,204,-178
0,2023-03-01T18:57:42.422824,2051964,916,1549,947,-1041,-567,-314,-38,204,-178
0,2023-03-01T18:57:42.428387,2051970,916,1549,947,-1041,-567,-314,-38,204,-178
0,2023-03-01T18:57:42.433036,2051975,916,1549,947,-1041,-567,-314,-38,204,-178
0,2023-03-01T18:57:42.438464,2051980,916,1549,947,-1041,-567,-314,-38,204,-178
0,2023-03-01T18:57:42.444168,2051986,919,1549,938,-1041,-575,-313,-38,204,-178
0,2023-03-01T18:57:42.449932,2051992,919,1549,938,-1041,-575,-313,-38,204,-178
0,2023-03-01T18:57:42.454877,2051997,919,1549,938,-1041,-575,-313,-38,204,-178
0,2023-03-01T18:57:42.460340,2052002,919,1549,938,-1041,-575,-313,-38,204,-178
0,2023-03-01T18:57:42.464909,2052006,915,1550,950,-1033,-579,-321,-39,205,-181
0,2023-03-01T18:57:42.470590,2052013,915,1550,950,-1033,-579,-321,-39,205,-181
0,2023-03-01T18:57:42.475592,2052018,915,1550,950,-1033,-579,-321,-39,205,-181
0,2023-03-01T18:57:42.481097,2052023,915,1550,950,-1033,-579,-321,-39,205,-181
0,2023-03-01T18:57:42.486150,2052028,920,1549,949,-1033,-577,-316,-39,205,-181
0,2023-03-01T18:57:42.491957,2052034,920,1549,949,-1033,-577,-316,-39,205,-181
0,2023-03-01T18:57:42.497382,2052039,920,1549,949,-1033,-577,-316,-39,205,-181
0,2023-03-01T18:57:42.502259,2052044,920,1549,949,-1033,-577,-316,-39,205,-181
0,2023-03-01T18:57:42.506814,2052048,914,1548,943,-1032,-572,-324,-39,205,-181
0,2023-03-01T18:57:42.512321,2052055,914,1548,943,-1032,-572,-324,-39,205,-181
0,2023-03-01T18:57:42.517777,2052060,914,1548,943,-1032,-572,-324,-39,205,-181
0,2023-03-01T18:57:42.523700,2052066,918,1548,947,-1037,-573,-316,-39,205,-181
0,2023-03-01T18:57:42.529335,2052071,918,1548,947,-1037,-573,-316,-39,205,-181
0,2023-03-01T18:57:42.534021,2052076,918,1548,947,-1037,-573,-316,-39,205,-181
0,2023-03-01T18:57:42.539350,2052081,918,1548,947,-1037,-573,-316,-39,205,-181
0,2023-03-01T18:57:42.544410,2052086,914,1551,947,-1040,-577,-323,-39,205,-181
0,2023-03-01T18:57:42.549640,2052091,914,1551,947,-1040,-577,-323,-39,205,-181
0,2023-03-01T18:57:42.554375,2052097,914,1551,947,-1040,-577,-323,-39,205,-181
0,2023-03-01T18:57:42.559634,2052102,914,1551,947,-1040,-577,-323,-39,205,-181
0,2023-03-01T18:57:42.564712,2052107,918,1549,945,-1041,-573,-326,-39,205,-181
0,2023-03-01T18:57:42.570195,2052112,918,1549,945,-1041,-573,-326,-39,205,-181
0,2023-03-01T18:57:42.574807,2052117,918,1549,945,-1041,-573,-326,-39,205,-181
0,2023-03-01T18:57:42.580730,2052122,918,1549,945,-1041,-573,-326,-39,205,-181
0,2023-03-01T18:57:42.586966,2052129,916,1550,949,-1038,-579,-324,-40,208,-176
0,2023-03-01T18:57:42.592541,2052134,916,1550,949,-1038,-579,-324,-40,208,-176
0,2023-03-01T18:57:42.597859,2052140,916,1550,949,-1038,-579,-324,-40,208,-176
0,2023-03-01T18:57:42.602792,2052145,916,1550,949,-1038,-579,-324,-40,208,-176
0,2023-03-01T18:57:42.607901,2052150,915,1550,949,-1034,-579,-319,-40,208,-176
0,2023-03-01T18:57:42.613660,2052156,915,1550,949,-1034,-579,-319,-40,208,-176
0,2023-03-01T18:57:42.619602,2052161,915,1550,949,-1034,-579,-319,-40,208,-176
0,2023-03-01T18:57:42.624315,2052166,921,1548,948,-1041,-568,-313,-40,208,-176
0,2023-03-01T18:57:42.629540,2052171,921,1548,948,-1041,-568,-313,-40,208,-176
0,2023-03-01T18:57:42.634693,2052176,921,1548,948,-1041,-568,-313,-40,208,-176
0,2023-03-01T18:57:42.640488,2052183,921,1548,948,-1041,-568,-313,-40,208,-176
0,2023-03-01T18:57:42.645840,2052188,918,1552,948,-1036,-572,-320,-40,208,-176
0,2023-03-01T18:57:42.651190,2052193,918,1552,948,-1036,-572,-320,-40,208,-176
0,2023-03-01T18:57:42.656745,2052199,918,1552,948,-1036,-572,-320,-40,208,-176
0,2023-03-01T18:57:42.662164,2052204,918,1552,948,-1036,-572,-320,-40,208,-176
0,2023-03-01T18:57:42.666878,2052209,918,1548,948,-1042,-567,-322,-40,208,-176
0,2023-03-01T18:57:42.672578,2052214,918,1548,948,-1042,-567,-322,-40,208,-176
0,2023-03-01T18:57:42.678392,2052220,918,1548,948,-1042,-567,-322,-40,208,-176
0,2023-03-01T18:57:42.684750,2052226,915,1550,947,-1038,-576,-323,-40,208,-176
0,2023-03-01T18:57:42.690707,2052233,915,1550,947,-1038,-576,-323,-40,208,-176
0,2023-03-01T18:57:42.695567,2052238,915,1550,947,-1038,-576,-323,-40,208,-176
0,2023-03-01T18:57:42.701127,2052243,915,1550,947,-1038,-576,-323,-40,208,-176
0,2023-03-01T18:57:42.706118,2052248,917,1549,945,-1043,-569,-319,-31,205,-183
0,2023-03-01T18:57:42.711030,2052253,917,1549,945,-1043,-569,-319,-31,205,-183
0,2023-03-01T18:57:42.716822,2052258,917,1549,945,-1043,-569,-319,-31,205,-183
0,2023-03-01T18:57:42.722604,2052264,917,1549,945,-1043,-569,-319,-31,205,-183
0,2023-03-01T18:57:42.727439,2052270,917,1550,951,-1032,-564,-317,-31,205,-183
0,2023-03-01T18:57:42.732669,2052275,917,1550,951,-1032,-564,-317,-31,205,-183
0,2023-03-01T18:57:42.737970,2052280,917,1550,951,-1032,-564,-317,-31,205,-183
0,2023-03-01T18:57:42.743499,2052285,918,1549,949,-1040,-571,-321,-31,205,-183
0,2023-03-01T18:57:42.749414,2052291,918,1549,949,-1040,-571,-321,-31,205,-183
0,2023-03-01T18:57:42.754392,2052296,918,1549,949,-1040,-571,-321,-31,205,-183
0,2023-03-01T18:57:42.759015,2052301,918,1549,949,-1040,-571,-321,-31,205,-183
0,2023-03-01T18:57:42.764085,2052305,921,1548,949,-1040,-576,-310,-31,205,-183
0,2023-03-01T18:57:42.770560,2052313,921,1548,949,-1040,-576,-310,-31,205,-183
0,2023-03-01T18:57:42.775314,2052318,921,1548,949,-1040,-576,-310,-31,205,-183
0,2023-03-01T18:57:42.780721,2052323,921,1548,949,-1040,-576,-310,-31,205,-183
0,2023-03-01T18:57:42.785915,2052328,919,1552,947,-1043,-573,-317,-31,205,-183
0,2023-03-01T18:57:42.791326,2052333,919,1552,947,-1043,-573,-317,-31,205,-183
0,2023-03-01T18:57:42.797026,2052338,919,1552,947,-1043,-573,-317,-31,205,-183
0,2023-03-01T18:57:42.804507,2052346,915,1546,944,-1035,-572,-317,-31,205,-183
0,2023-03-01T18:57:42.810921,2052353,915,1546,944,-1035,-572,-317,-31,205,-183
0,2023-03-01T18:57:42.816501,2052359,915,1546,944,-1035,-572,-317,-31,205,-183
0,2023-03-01T18:57:42.821524,2052364,915,1546,944,-1035,-572,-317,-31,205,-183
0,2023-03-01T18:57:42.826442,2052368,918,1547,940,-1042,-569,-321,-31,205,-183
0,2023-03-01T18:57:42.831963,2052374,918,1547,940,-1042,-569,-321,-31,205,-183
0,2023-03-01T18:57:42.838231,2052379,918,1547,940,-1042,-569,-321,-31,205,-183
0,2023-03-01T18:57:42.843822,2052386,917,1545,950,-1037,-571,-321,-41,197,-183
0,2023-03-01T18:57:42.849277,2052391,917,1545,950,-1037,-571,-321,-41,197,-183
0,2023-03-01T18:57:42.854137,2052396,917,1545,950,-1037,-571,-321,-41,197,-183
0,2023-03-01T18:57:42.859988,2052402,917,1545,950,-1037,-571,-321,-41,197,-183
0,2023-03-01T18:57:42.864991,2052407,919,1550,946,-1042,-571,-317,-41,197,-183
0,2023-03-01T18:57:42.870451,2052412,919,1550,946,-1042,-571,-317,-41,197,-183
0,2023-03-01T18:57:42.875583,2052417,919,1550,946,-1042,-571,-317,-41,197,-183
0,2023-03-01T18:57:42.880688,2052422,919,1550,946,-1042,-571,-317,-41,197,-183
0,2023-03-01T18:57:42.886020,2052427,917,1547,949,-1049,-572,-326,-41,197,-183
0,2023-03-01T18:57:42.892103,2052433,917,1547,949,-1049,-572,-326,-41,197,-183
0,2023-03-01T18:57:42.898175,2052440,917,1547,949,-1049,-572,-326,-41,197,-183
0,2023-03-01T18:57:42.903399,2052445,917,1547,949,-1049,-572,-326,-41,197,-183
0,2023-03-01T18:57:42.909148,2052450,917,1549,949,-1041,-569,-333,-41,197,-183
0,2023-03-01T18:57:42.916286,2052458,917,1549,949,-1041,-569,-333,-41,197,-183
0,2023-03-01T18:57:42.922684,2052465,917,1549,949,-1041,-569,-333,-41,197,-183
0,2023-03-01T18:57:42.928032,2052470,919,1548,948,-1037,-574,-332,-41,197,-183
0,2023-03-01T18:57:42.933788,2052475,919,1548,948,-1037,-574,-332,-41,197,-183
0,2023-03-01T18:57:42.939768,2052482,919,1548,948,-1037,-574,-332,-41,197,-183
0,2023-03-01T18:57:42.944786,2052487,919,1548,945,-1039,-567,-314,-41,197,-183
0,2023-03-01T18:57:42.950109,2052492,919,1548,945,-1039,-567,-314,-41,197,-183
0,2023-03-01T18:57:42.954796,2052497,919,1548,945,-1039,-567,-314,-41,197,-183
0,2023-03-01T18:57:42.960860,2052503,919,1548,945,-1039,-567,-314,-41,197,-183
0,2023-03-01T18:57:42.965577,2052507,919,1550,941,-1032,-569,-319,-35,211,-187
0,2023-03-01T18:57:42.970983,2052513,919,1550,941,-1032,-569,-319,-35,211,-187
0,2023-03-01T18:57:42.975990,2052518,919,1550,941,-1032,-569,-319,-35,211,-187
0,2023-03-01T18:57:42.980859,2052523,919,1550,941,-1032,-569,-319,-35,211,-187
0,2023-03-01T18:57:42.987423,2052528,919,1548,943,-1037,-566,-324,-35,211,-187
0,2023-03-01T18:57:42.992399,2052534,919,1548,943,-1037,-566,-324,-35,211,-187
0,2023-03-01T18:57:42.997934,2052540,919,1548,943,-1037,-566,-324,-35,211,-187
0,2023-03-01T18:57:43.002808,2052545,919,1548,943,-1037,-566,-324,-35,211,-187
0,2023-03-01T18:57:43.008537,2052550,919,1546,949,-1033,-572,-320,-35,211,-187
0,2023-03-01T18:57:43.014051,2052556,919,1546,949,-1033,-572,-320,-35,211,-187
0,2023-03-01T18:57:43.021110,2052561,919,1546,949,-1033,-572,-320,-35,211,-187
0,2023-03-01T18:57:43.027363,2052569,917,1546,948,-1042,-581,-317,-35,211,-187
0,2023-03-01T18:57:43.032998,2052575,917,1546,948,-1042,-581,-317,-35,211,-187
0,2023-03-01T18:57:43.038675,2052581,917,1546,948,-1042,-581,-317,-35,211,-187
0,2023-03-01T18:57:43.043610,2052586,918,1551,948,-1037,-575,-328,-35,211,-187
0,2023-03-01T18:57:43.049339,2052591,918,1551,948,-1037,-575,-328,-35,211,-187
0,2023-03-01T18:57:43.055128,2052596,918,1551,948,-1037,-575,-328,-35,211,-187
0,2023-03-01T18:57:43.060601,2052602,918,1551,948,-1037,-575,-328,-35,211,-187
0,2023-03-01T18:57:43.065443,2052608,917,1548,946,-1041,-575,-322,-35,211,-187
0,2023-03-01T18:57:43.070907,2052613,917,1548,946,-1041,-575,-322,-35,211,-187
0,2023-03-01T18:57:43.075732,2052618,917,1548,946,-1041,-575,-322,-35,211,-187
0,2023-03-01T18:57:43.081750,2052623,917,1548,946,-1041,-575,-322,-35,211,-187
0,2023-03-01T18:57:43.087169,2052629,919,1549,942,-1041,-574,-320,-35,211,-187
0,2023-03-01T18:57:43.092883,2052635,919,1549,942,-1041,-574,-320,-35,211,-187
0,2023-03-01T18:57:43.098427,2052640,919,1549,942,-1041,-574,-320,-35,211,-187
0,2023-03-01T18:57:43.103881,2052645,916,1548,949,-1048,-569,-314,-35,211,-187
0,2023-03-01T18:57:43.109435,2052652,916,1548,949,-1048,-569,-314,-37,205,-179
0,2023-03-01T18:57:43.114612,2052657,916,1548,949,-1048,-569,-314,-37,205,-179
0,2023-03-01T18:57:43.120397,2052663,916,1548,949,-1048,-569,-314,-37,205,-179
0,2023-03-01T18:57:43.126106,2052668,917,1549,945,-1037,-570,-325,-37,205,-179
0,2023-03-01T18:57:43.133049,2052675,917,1549,945,-1037,-570,-325,-37,205,-179
0,2023-03-01T18:57:43.138898,2052680,917,1549,945,-1037,-570,-325,-37,205,-179
0,2023-03-01T18:57:43.144304,2052686,918,1549,952,-1035,-581,-318,-37,205,-179
0,2023-03-01T18:57:43.149537,2052691,918,1549,952,-1035,-581,-318,-37,205,-179
0,2023-03-01T18:57:43.154354,2052697,918,1549,952,-1035,-581,-318,-37,205,-179
0,2023-03-01T18:57:43.159584,2052702,918,1549,952,-1035,-581,-318,-37,205,-179
0,2023-03-01T18:57:43.164390,2052706,917,1549,945,-1031,-580,-321,-37,205,-179
0,2023-03-01T18:57:43.170439,2052712,917,1549,945,-1031,-580,-321,-37,205,-179
0,2023-03-01T18:57:43.175411,2052717,917,1549,945,-1031,-580,-321,-37,205,-179
0,2023-03-01T18:57:43.180865,2052723,917,1549,945,-1031,-580,-321,-37,205,-179
0,2023-03-01T18:57:43.185569,2052727,920,1546,944,-1033,-570,-326,-37,205,-179
0,2023-03-01T18:57:43.191172,2052732,920,1546,944,-1033,-570,-326,-37,205,-179
0,2023-03-01T18:57:43.196865,2052739,920,1546,944,-1033,-570,-326,-37,205,-179
0,2023-03-01T18:57:43.201796,2052744,920,1546,944,-1033,-570,-326,-37,205,-179
0,2023-03-01T18:57:43.206878,2052749,920,1553,952,-1034,-576,-321,-37,205,-179
0,2023-03-01T18:57:43.212436,2052754,920,1553,952,-1034,-576,-321,-37,205,-179
0,2023-03-01T18:57:43.218673,2052760,920,1553,952,-1034,-576,-321,-37,205,-179
0,2023-03-01T18:57:43.223863,2052765,920,1553,952,-1034,-576,-321,-37,205,-179
0,2023-03-01T18:57:43.228567,2052770,913,1551,954,-1030,-577,-317,-31,207,-191
0,2023-03-01T18:57:43.233947,2052776,913,1551,954,-1030,-577,-317,-31,207,-191
0,2023-03-01T18:57:43.239589,2052782,913,1551,954,-1030,-577,-317,-31,207,-191
0,2023-03-01T18:57:43.246012,2052788,915,1547,945,-1025,-575,-334,-31,207,-191
0,2023-03-01T18:57:43.251614,2052794,915,1547,945,-1025,-575,-334,-31,207,-191
0,2023-03-01T18:57:43.257168,2052799,915,1547,945,-1025,-575,-334,-31,207,-191
0,2023-03-01T18:57:43.262637,2052805,915,1547,945,-1025,-575,-334,-31,207,-191
0,2023-03-01T18:57:43.267495,2052809,918,1547,951,-1036,-574,-319,-31,207,-191
0,2023-03-01T18:57:43.273335,2052815,918,1547,951,-1036,-574,-319,-31,207,-191
0,2023-03-01T18:57:43.279558,2052822,918,1547,951,-1036,-574,-319,-31,207,-191
0,2023-03-01T18:57:43.284736,2052827,921,1549,944,-1037,-570,-320,-31,207,-191
0,2023-03-01T18:57:43.290107,2052832,921,1549,944,-1037,-570,-320,-31,207,-191
0,2023-03-01T18:57:43.294967,2052837,921,1549,944,-1037,-570,-320,-31,207,-191
0,2023-03-01T18:57:43.301054,2052842,921,1549,944,-1037,-570,-320,-31,207,-191
0,2023-03-01T18:57:43.307470,2052849,921,1547,942,-1034,-563,-319,-31,207,-191
0,2023-03-01T18:57:43.313313,2052855,921,1547,942,-1034,-563,-319,-31,207,-191
0,2023-03-01T18:57:43.318863,2052860,921,1547,942,-1034,-563,-319,-31,207,-191
0,2023-03-01T18:57:43.323474,2052866,921,1547,942,-1034,-563,-319,-31,207,-191
0,2023-03-01T18:57:43.328540,2052871,919,1547,948,-1033,-566,-321,-31,207,-191
0,2023-03-01T18:57:43.334105,2052876,919,1547,948,-1033,-566,-321,-31,207,-191
0,2023-03-01T18:57:43.340615,2052882,919,1547,948,-1033,-566,-321,-31,207,-191
0,2023-03-01T18:57:43.346808,2052888,912,1547,944,-1035,-566,-315,-31,207,-191
0,2023-03-01T18:57:43.353828,2052895,912,1547,944,-1035,-566,-315,-31,207,-191
0,2023-03-01T18:57:43.360403,2052901,912,1547,944,-1035,-566,-315,-31,207,-191
0,2023-03-01T18:57:43.366300,2052908,917,1547,944,-1030,-573,-319,-38,206,-184
0,2023-03-01T18:57:43.372394,2052915,917,1547,944,-1030,-573,-319,-38,206,-184
0,2023-03-01T18:57:43.377814,2052920,917,1547,944,-1030,-573,-319,-38,206,-184
0,2023-03-01T18:57:43.382710,2052925,917,1547,944,-1030,-573,-319,-38,206,-184
0,2023-03-01T18:57:43.387864,2052930,920,1546,943,-1042,-574,-315,-38,206,-184
0,2023-03-01T18:57:43.393380,2052935,920,1546,943,-1042,-574,-315,-38,206,-184
0,2023-03-01T18:57:43.399441,2052941,920,1546,943,-1042,-574,-315,-38,206,-184
0,2023-03-01T18:57:43.404974,2052947,918,1547,944,-1034,-572,-320,-38,206,-184
0,2023-03-01T18:57:43.410744,2052952,918,1547,944,-1034,-572,-320,-38,206,-184
0,2023-03-01T18:57:43.416074,2052958,918,1547,944,-1034,-572,-320,-38,206,-184
0,2023-03-01T18:57:43.422398,2052964,918,1547,944,-1034,-572,-320,-38,206,-184
0,2023-03-01T18:57:43.428417,2052970,918,1546,949,-1042,-569,-320,-38,206,-184
0,2023-03-01T18:57:43.433898,2052976,918,1546,949,-1042,-569,-320,-38,206,-184
0,2023-03-01T18:57:43.439282,2052981,918,1546,949,-1042,-569,-320,-38,206,-184
0,2023-03-01T18:57:43.444213,2052986,916,1549,942,-1040,-576,-316,-38,206,-184
0,2023-03-01T18:57:43.449903,2052992,916,1549,942,-1040,-576,-316,-38,206,-184
0,2023-03-01T18:57:43.454651,2052997,916,1549,942,-1040,-576,-316,-38,206,-184
0,2023-03-01T18:57:43.460468,2053003,916,1549,942,-1040,-576,-316,-38,206,-184
0,2023-03-01T18:57:43.465847,2053008,918,1549,939,-1043,-575,-326,-38,206,-184
0,2023-03-01T18:57:43.471661,2053013,918,1549,939,-1043,-575,-326,-38,206,-184
0,2023-03-01T18:57:43.477688,2053020,918,1549,939,-1043,-575,-326,-38,206,-184
0,2023-03-01T18:57:43.483267,2053025,918,1549,939,-1043,-575,-326,-38,206,-184
0,2023-03-01T18:57:43.488148,2053030,918,1545,947,-1049,-573,-325,-36,216,-186
0,2023-03-01T18:57:43.493007,2053036,918,1545,947,-1049,-573,-325,-36,216,-186
0,2023-03-01T18:57:43.498730,2053041,918,1545,947,-1049,-573,-325,-36,216,-186
0,2023-03-01T18:57:43.503756,2053046,918,1545,947,-1049,-573,-325,-36,216,-186
0,2023-03-01T18:57:43.508932,2053051,919,1548,940,-1044,-574,-319,-36,216,-186
0,2023-03-01T18:57:43.514218,2053056,919,1548,940,-1044,-574,-319,-36,216,-186
0,2023-03-01T18:57:43.519670,2053061,919,1548,940,-1044,-574,-319,-36,216,-186
0,2023-03-01T18:57:43.524819,2053067,919,1549,947,-1042,-573,-318,-36,216,-186
0,2023-03-01T18:57:43.530316,2053072,919,1549,947,-1042,-573,-318,-36,216,-186
0,2023-03-01T18:57:43.534993,2053076,919,1549,947,-1042,-573,-318,-36,216,-186
0,2023-03-01T18:57:43.540601,2053083,919,1549,947,-1042,-573,-318,-36,216,-186
0,2023-03-01T18:57:43.545949,2053088,919,1549,945,-1043,-576,-316,-36,216,-186
0,2023-03-01T18:57:43.551516,2053093,919,1549,945,-1043,-576,-316,-36,216,-186
0,2023-03-01T18:57:43.557105,2053099,919,1549,945,-1043,-576,-316,-36,216,-186
0,2023-03-01T18:57:43.562451,2053104,919,1549,945,-1043,-576,-316,-36,216,-186
0,2023-03-01T18:57:43.567468,2053109,919,1548,946,-1027,-577,-313,-36,216,-186
0,2023-03-01T18:57:43.573521,2053115,919,1548,946,-1027,-577,-313,-36,216,-186
0,2023-03-01T18:57:43.579132,2053121,919,1548,946,-1027,-577,-313,-36,216,-186
0,2023-03-01T18:57:43.584851,2053127,919,1547,947,-1032,-569,-325,-36,216,-186
0,2023-03-01T18:57:43.590590,2053133,919,1547,947,-1032,-569,-325,-36,216,-186
0,2023-03-01T18:57:43.595668,2053138,919,1547,947,-1032,-569,-325,-36,216,-186
0,2023-03-01T18:57:43.602242,2053144,919,1547,947,-1032,-569,-325,-36,216,-186
0,2023-03-01T18:57:43.606948,2053149,919,1547,945,-1040,-577,-320,-35,209,-185
0,2023-03-01T18:57:43.612533,2053154,919,1547,945,-1040,-577,-320,-35,209,-185
0,2023-03-01T18:57:43.617997,2053159,919,1547,945,-1040,-577,-320,-35,209,-185
0,2023-03-01T18:57:43.623106,2053165,919,1547,945,-1040,-577,-320,-35,209,-185
0,2023-03-01T18:57:43.628168,2053170,919,1546,946,-1039,-579,-317,-35,209,-185
0,2023-03-01T18:57:43.633684,2053176,919,1546,946,-1039,-579,-317,-35,209,-185
0,2023-03-01T18:57:43.638871,2053181,919,1546,946,-1039,-579,-317,-35,209,-185
0,2023-03-01T18:57:43.643832,2053186,919,1546,946,-1039,-579,-317,-35,209,-185
0,2023-03-01T18:57:43.648852,2053191,920,1549,947,-1035,-576,-321,-35,209,-185
0,2023-03-01T18:57:43.654353,2053196,920,1549,947,-1035,-576,-321,-35,209,-185
0,2023-03-01T18:57:43.660054,2053202,920,1549,947,-1035,-576,-321,-35,209,-185
0,2023-03-01T18:57:43.665239,2053207,920,1549,947,-1035,-576,-321,-35,209,-185
0,2023-03-01T18:57:43.670420,2053212,920,1549,947,-1035,-576,-321,-35,209,-185
0,2023-03-01T18:57:43.676313,2053218,920,1549,947,-1035,-576,-321,-35,209,-185
0,2023-03-01T18:57:43.683134,2053225,920,1549,947,-1035,-576,-321,-35,209,-185
0,2023-03-01T18:57:43.688905,2053231,919,1546,943,-1036,-571,-320,-35,209,-185
0,2023-03-01T18:57:43.694655,2053236,919,1546,943,-1036,-571,-320,-35,209,-185
0,2023-03-01T18:57:43.700321,2053242,919,1546,943,-1036,-571,-320,-35,209,-185
0,2023-03-01T18:57:43.705156,2053246,919,1545,938,-1035,-572,-327,-35,209,-185
0,2023-03-01T18:57:43.710561,2053253,919,1545,938,-1035,-572,-327,-35,209,-185
0,2023-03-01T18:57:43.715574,2053258,919,1545,938,-1035,-572,-327,-35,209,-185
0,2023-03-01T18:57:43.721076,2053263,919,1545,938,-1035,-572,-327,-35,209,-185
0,2023-03-01T18:57:43.725940,2053268,920,1547,946,-1031,-571,-325,-35,209,-185
0,2023-03-01T18:57:43.731928,2053273,920,1547,946,-1031,-571,-325,-35,209,-185
0,2023-03-01T18:57:43.737772,2053279,920,1547,946,-1031,-571,-325,-35,209,-185
0,2023-03-01T18:57:43.743158,2053285,920,1547,946,-1031,-571,-325,-35,209,-185
0,2023-03-01T18:57:43.747842,2053291,917,1549,942,-1030,-568,-321,-33,211,-183
0,2023-03-01T18:57:43.753535,2053296,917,1549,942,-1030,-568,-321,-33,211,-183
0,2023-03-01T18:57:43.759637,2053301,917,1549,942,-1030,-568,-321,-33,211,-183
0,2023-03-01T18:57:43.764581,2053307,919,1548,948,-1040,-571,-321,-33,211,-183
0,2023-03-01T18:57:43.770360,2053312,919,1548,948,-1040,-571,-321,-33,211,-183
0,2023-03-01T18:57:43.775523,2053317,919,1548,948,-1040,-571,-321,-33,211,-183
0,2023-03-01T18:57:43.780754,2053323,919,1548,948,-1040,-571,-321,-33,211,-183
0,2023-03-01T18:57:43.786779,2053328,919,1548,941,-1049,-570,-328,-33,211,-183
0,2023-03-01T18:57:43.792874,2053335,919,1548,941,-1049,-570,-328,-33,211,-183
0,2023-03-01T18:57:43.798569,2053341,919,1548,941,-1049,-570,-328,-33,211,-183
0,2023-03-01T18:57:43.804332,2053346,919,1548,941,-1049,-570,-328,-33,211,-183
0,2023-03-01T18:57:43.808977,2053351,917,1549,947,-1039,-577,-315,-33,211,-183
0,2023-03-01T18:57:43.815098,2053356,917,1549,947,-1039,-577,-315,-33,211,-183
0,2023-03-01T18:57:43.821019,2053362,917,1549,947,-1039,-577,-315,-33,211,-183
0,2023-03-01T18:57:43.826616,2053368,918,1551,944,-1042,-581,-317,-33,211,-183
0,2023-03-01T18:57:43.831859,2053373,918,1551,944,-1042,-581,-317,-33,211,-183
0,2023-03-01T18:57:43.836651,2053379,918,1551,944,-1042,-581,-317,-33,211,-183
0,2023-03-01T18:57:43.842542,2053385,918,1551,944,-1042,-581,-317,-33,211,-183
0,2023-03-01T18:57:43.847838,2053390,922,1548,949,-1037,-572,-322,-33,211,-183
0,2023-03-01T18:57:43.853396,2053396,922,1548,949,-1037,-572,-322,-33,211,-183
0,2023-03-01T18:57:43.859131,2053401,922,1548,949,-1037,-572,-322,-33,211,-183
0,2023-03-01T18:57:43.864896,2053406,919,1550,943,-1042,-576,-320,-33,211,-183
0,2023-03-01T18:57:43.870917,2053413,919,1550,943,-1042,-576,-320,-39,201,-183
0,2023-03-01T18:57:43.875897,2053417,919,1550,943,-1042,-576,-320,-39,201,-183
0,2023-03-01T18:57:43.881128,2053424,919,1550,943,-1042,-576,-320,-39,201,-183
0,2023-03-01T18:57:43.886482,2053429,919,1548,948,-1035,-572,-320,-39,201,-183
0,2023-03-01T18:57:43.891965,2053434,919,1548,948,-1035,-572,-320,-39,201,-183
0,2023-03-01T18:57:43.899923,2053441,919,1548,948,-1035,-572,-320,-39,201,-183
0,2023-03-01T18:57:43.905919,2053448,916,1548,943,-1037,-571,-317,-39,201,-183
0,2023-03-01T18:57:43.911452,2053453,916,1548,943,-1037,-571,-317,-39,201,-183
0,2023-03-01T18:57:43.917073,2053458,916,1548,943,-1037,-571,-317,-39,201,-183
0,2023-03-01T18:57:43.922228,2053464,916,1548,943,-1037,-571,-317,-39,201,-183
0,2023-03-01T18:57:43.927478,2053469,920,1547,943,-1041,-572,-317,-39,201,-183
0,2023-03-01T18:57:43.932994,2053475,920,1547,943,-1041,-572,-317,-39,201,-183
0,2023-03-01T18:57:43.938155,2053480,920,1547,943,-1041,-572,-317,-39,201,-183
0,2023-03-01T18:57:43.944124,2053486,920,1547,943,-1041,-572,-317,-39,201,-183
0,2023-03-01T18:57:43.949007,2053491,919,1548,946,-1034,-575,-318,-39,201,-183
0,2023-03-01T18:57:43.954426,2053496,919,1548,946,-1034,-575,-318,-39,201,-183
0,2023-03-01T18:57:43.959869,2053501,919,1548,946,-1034,-575,-318,-39,201,-183
0,2023-03-01T18:57:43.964302,2053507,919,1548,946,-1034,-575,-318,-39,201,-183
0,2023-03-01T18:57:43.969238,2053512,918,1548,947,-1040,-571,-324,-39,201,-183
0,2023-03-01T18:57:43.974771,2053517,918,1548,947,-1040,-571,-324,-39,201,-183
0,2023-03-01T18:57:43.981113,2053523,918,1548,947,-1040,-571,-324,-39,201,-183
0,2023-03-01T18:57:43.985973,2053528,917,1550,945,-1038,-570,-319,-39,201,-183
0,2023-03-01T18:57:43.990445,2053532,917,1550,945,-1038,-570,-319,-39,201,-183
0,2023-03-01T18:57:43.995516,2053537,917,1550,945,-1038,-570,-319,-39,201,-183
0,2023-03-01T18:57:44.000753,2053542,917,1550,945,-1038,-570,-319,-39,201,-183
0,2023-03-01T18:57:44.006547,2053549,917,1550,945,-1038,-570,-319,-40,208,-184
0,2023-03-01T18:57:44.011635,2053554,917,1550,945,-1038,-570,-319,-40,208,-184
0,2023-03-01T18:57:44.016960,2053559,917,1550,945,-1038,-570,-319,-40,208,-184
0,2023-03-01T18:57:44.021580,2053564,917,1550,945,-1038,-570,-319,-40,208,-184
0,2023-03-01T18:57:44.026416,2053568,917,1547,946,-1039,-569,-311,-40,208,-184
0,2023-03-01T18:57:44.032116,2053574,917,1547,946,-1039,-569,-311,-40,208,-184
0,2023-03-01T18:57:44.037876,2053580,917,1547,946,-1039,-569,-311,-40,208,-184
0,2023-03-01T18:57:44.043428,2053585,917,1547,946,-1039,-569,-311,-40,208,-184
0,2023-03-01T18:57:44.048627,2053591,918,1548,950,-1041,-568,-313,-40,208,-184
0,2023-03-01T18:57:44.054490,2053596,918,1548,950,-1041,-568,-313,-40,208,-184
0,2023-03-01T18:57:44.059777,2053602,918,1548,950,-1041,-568,-313,-40,208,-184
0,2023-03-01T18:57:44.065001,2053607,918,1548,950,-1041,-568,-313,-40,208,-184
0,2023-03-01T18:57:44.070056,2053612,918,1547,948,-1042,-575,-316,-40,208,-184
0,2023-03-01T18:57:44.075612,2053617,918,1547,948,-1042,-575,-316,-40,208,-184
0,2023-03-01T18:57:44.080522,2053622,918,1547,948,-1042,-575,-316,-40,208,-184
0,2023-03-01T18:57:44.086261,2053627,916,1543,948,-1040,-573,-324,-40,208,-184
0,2023-03-01T18:57:44.092497,2053635,916,1543,948,-1040,-573,-324,-40,208,-184
0,2023-03-01T18:57:44.098998,2053641,916,1543,948,-1040,-573,-324,-40,208,-184
0,2023-03-01T18:57:44.104508,2053647,916,1543,948,-1040,-573,-324,-40,208,-184
0,2023-03-01T18:57:44.109426,2053651,919,1547,947,-1034,-572,-319,-40,208,-184
0,2023-03-01T18:57:44.115098,2053657,919,1547,947,-1034,-572,-319,-40,208,-184
0,2023-03-01T18:57:44.121515,2053663,919,1547,947,-1034,-572,-319,-40,208,-184
0,2023-03-01T18:57:44.127648,2053669,919,1550,950,-1040,-576,-318,-39,211,-185
0,2023-03-01T18:57:44.133392,2053676,919,1550,950,-1040,-576,-318,-39,211,-185
0,2023-03-01T18:57:44.138719,2053681,919,1550,950,-1040,-576,-318,-39,211,-185
0,2023-03-01T18:57:44.144366,2053686,919,1550,950,-1040,-576,-318,-39,211,-185
0,2023-03-01T18:57:44.149225,2053691,917,1548,943,-1041,-573,-320,-39,211,-185
0,2023-03-01T18:57:44.154895,2053697,917,1548,943,-1041,-573,-320,-39,211,-185
0,2023-03-01T18:57:44.160434,2053702,917,1548,943,-1041,-573,-320,-39,211,-185
0,2023-03-01T18:57:44.166311,2053708,920,1550,945,-1047,-569,-322,-39,211,-185
0,2023-03-01T18:57:44.171605,2053713,920,1550,945,-1047,-569,-322,-39,211,-185
0,2023-03-01T18:57:44.177215,2053719,920,1550,945,-1047,-569,-322,-39,211,-185
0,2023-03-01T18:57:44.183464,2053725,920,1550,945,-1047,-569,-322,-39,211,-185
0,2023-03-01T18:57:44.188588,2053731,917,1547,948,-1044,-574,-318,-39,211,-185
0,2023-03-01T18:57:44.194079,2053736,917,1547,948,-1044,-574,-318,-39,211,-185
0,2023-03-01T18:57:44.199434,2053741,917,1547,948,-1044,-574,-318,-39,211,-185
0,2023-03-01T18:57:44.205308,2053747,920,1550,946,-1037,-575,-319,-39,211,-185
0,2023-03-01T18:57:44.210717,2053752,920,1550,946,-1037,-575,-319,-39,211,-185
0,2023-03-01T18:57:44.215483,2053757,920,1550,946,-1037,-575,-319,-39,211,-185
0,2023-03-01T18:57:44.220516,2053763,920,1550,946,-1037,-575,-319,-39,211,-185
0,2023-03-01T18:57:44.226159,2053768,919,1549,951,-1041,-576,-325,-39,211,-185
0,2023-03-01T18:57:44.232219,2053774,919,1549,951,-1041,-576,-325,-39,211,-185
0,2023-03-01T18:57:44.238527,2053780,919,1549,951,-1041,-576,-325,-39,211,-185
0,2023-03-01T18:57:44.244432,2053786,919,1549,951,-1041,-576,-325,-39,211,-185
0,2023-03-01T18:57:44.249507,2053791,918,1548,944,-1041,-577,-319,-39,211,-185
0,2023-03-01T18:57:44.255073,2053797,918,1548,944,-1041,-577,-319,-39,211,-185
0,2023-03-01T18:57:44.260409,2053801,918,1548,944,-1041,-577,-319,-39,211,-185
0,2023-03-01T18:57:44.265615,2053808,917,1546,949,-1039,-580,-324,-39,211,-185
0,2023-03-01T18:57:44.271790,2053814,917,1546,949,-1039,-580,-324,-35,215,-195
0,2023-03-01T18:57:44.277542,2053820,917,1546,949,-1039,-580,-324,-35,215,-195
0,2023-03-01T18:57:44.283011,2053825,917,1546,949,-1039,-580,-324,-35,215,-195
0,2023-03-01T18:57:44.288532,2053830,916,1547,952,-1043,-573,-321,-35,215,-195
0,2023-03-01T18:57:44.294311,2053836,916,1547,952,-1043,-573,-321,-35,215,-195
0,2023-03-01T18:57:44.299927,2053841,916,1547,952,-1043,-573,-321,-35,215,-195
0,2023-03-01T18:57:44.304934,2053847,916,1547,952,-1043,-573,-321,-35,215,-195
0,2023-03-01T18:57:44.310267,2053852,919,1548,947,-1039,-573,-320,-35,215,-195
0,2023-03-01T18:57:44.316216,2053858,919,1548,947,-1039,-573,-320,-35,215,-195
0,2023-03-01T18:57:44.321993,2053864,919,1548,947,-1039,-573,-320,-35,215,-195
0,2023-03-01T18:57:44.328032,2053870,917,1547,947,-1039,-569,-327,-35,215,-195
0,2023-03-01T18:57:44.333920,2053876,917,1547,947,-1039,-569,-327,-35,215,-195
0,2023-03-01T18:57:44.340092,2053881,917,1547,947,-1039,-569,-327,-35,215,-195
0,2023-03-01T18:57:44.346683,2053889,917,1547,950,-1035,-574,-318,-35,215,-195
0,2023-03-01T18:57:44.352707,2053895,917,1547,950,-1035,-574,-318,-35,215,-195
0,2023-03-01T18:57:44.358401,2053901,917,1547,950,-1035,-574,-318,-35,215,-195
0,2023-03-01T18:57:44.363670,2053905,917,1547,950,-1035,-574,-318,-35,215,-195
0,2023-03-01T18:57:44.368891,2053911,918,1548,945,-1045,-572,-319,-35,215,-195
0,2023-03-01T18:57:44.374862,2053917,918,1548,945,-1045,-572,-319,-35,215,-195
0,2023-03-01T18:57:44.380509,2053922,918,1548,945,-1045,-572,-319,-35,215,-195
0,2023-03-01T18:57:44.386488,2053927,913,1547,952,-1048,-566,-321,-40,206,-186
0,2023-03-01T18:57:44.392417,2053934,913,1547,952,-1048,-566,-321,-40,206,-186
0,2023-03-01T18:57:44.398886,2053940,913,1547,952,-1048,-566,-321,-40,206,-186
0,2023-03-01T18:57:44.405382,2053947,913,1547,952,-1048,-566,-321,-40,206,-186
0,2023-03-01T18:57:44.411260,2053953,919,1549,949,-1045,-567,-317,-40,206,-186
0,2023-03-01T18:57:44.417158,2053959,919,1549,949,-1045,-567,-317,-40,206,-186
0,2023-03-01T18:57:44.423532,2053965,919,1549,949,-1045,-567,-317,-40,206,-186
0,2023-03-01T18:57:44.429504,2053971,917,1548,948,-1046,-564,-323,-40,206,-186
0,2023-03-01T18:57:44.435271,2053978,917,1548,948,-1046,-564,-323,-40,206,-186
0,2023-03-01T18:57:44.440444,2053982,917,1548,948,-1046,-564,-323,-40,206,-186
0,2023-03-01T18:57:44.446307,2053988,919,1548,946,-1046,-566,-321,-40,206,-186
0,2023-03-01T18:57:44.452863,2053995,919,1548,946,-1046,-566,-321,-40,206,-186
0,2023-03-01T18:57:44.458908,2054001,919,1548,946,-1046,-566,-321,-40,206,-186
0,2023-03-01T18:57:44.464781,2054006,919,1548,946,-1046,-566,-321,-40,206,-186
0,2023-03-01T18:57:44.469885,2054011,921,1551,941,-1039,-570,-316,-40,206,-186
0,2023-03-01T18:57:44.476328,2054019,921,1551,941,-1039,-570,-316,-40,206,-186
0,2023-03-01T18:57:44.482131,2054024,921,1551,941,-1039,-570,-316,-40,206,-186
0,2023-03-01T18:57:44.487016,2054029,921,1551,941,-1039,-570,-316,-40,206,-186
0,2023-03-01T18:57:44.491861,2054034,921,1551,941,-1039,-570,-316,-40,206,-186
0,2023-03-01T18:57:44.497554,2054039,921,1551,941,-1039,-570,-316,-40,206,-186
0,2023-03-01T18:57:44.503145,2054045,921,1551,941,-1039,-570,-316,-40,206,-186
0,2023-03-01T18:57:44.508775,2054050,917,1548,946,-1041,-568,-322,-24,214,-182
0,2023-03-01T18:57:44.514785,2054056,917,1548,946,-1041,-568,-322,-24,214,-182
0,2023-03-01T18:57:44.520459,2054063,917,1548,946,-1041,-568,-322,-24,214,-182
0,2023-03-01T18:57:44.525809,2054068,923,1546,949,-1038,-576,-327,-24,214,-182
0,2023-03-01T18:57:44.531229,2054073,923,1546,949,-1038,-576,-327,-24,214,-182
0,2023-03-01T18:57:44.536730,2054078,923,1546,949,-1038,-576,-327,-24,214,-182
0,2023-03-01T18:57:44.542356,2054084,923,1546,949,-1038,-576,-327,-24,214,-182
0,2023-03-01T18:57:44.546991,2054089,917,1549,947,-1029,-575,-324,-24,214,-182
0,2023-03-01T18:57:44.552332,2054094,917,1549,947,-1029,-575,-324,-24,214,-182
0,2023-03-01T18:57:44.558050,2054099,917,1549,947,-1029,-575,-324,-24,214,-182
0,2023-03-01T18:57:44.564454,2054106,917,1549,947,-1029,-575,-324,-24,214,-182
0,2023-03-01T18:57:44.569628,2054111,917,1550,950,-1025,-566,-308,-24,214,-182
0,2023-03-01T18:57:44.575167,2054117,917,1550,950,-1025,-566,-308,-24,214,-182
0,2023-03-01T18:57:44.580509,2054122,917,1550,950,-1025,-566,-308,-24,214,-182
0,2023-03-01T18:57:44.586013,2054128,916,1548,945,-1037,-566,-311,-24,214,-182
0,2023-03-01T18:57:44.592380,2054134,916,1548,945,-1037,-566,-311,-24,214,-182
0,2023-03-01T18:57:44.598312,2054140,916,1548,945,-1037,-566,-311,-24,214,-182
0,2023-03-01T18:57:44.603352,2054146,916,1548,945,-1037,-566,-311,-24,214,-182
0,2023-03-01T18:57:44.608196,2054151,919,1551,947,-1044,-566,-309,-24,214,-182
0,2023-03-01T18:57:44.613475,2054156,919,1551,947,-1044,-566,-309,-24,214,-182
0,2023-03-01T18:57:44.618958,2054161,919,1551,947,-1044,-566,-309,-24,214,-182
0,2023-03-01T18:57:44.624685,2054166,919,1551,947,-1044,-566,-309,-24,214,-182
0,2023-03-01T18:57:44.629951,2054172,917,1546,945,-1037,-561,-311,-24,214,-182
0,2023-03-01T18:57:44.635228,2054177,917,1546,945,-1037,-561,-311,-24,214,-182
0,2023-03-01T18:57:44.640809,2054182,917,1546,945,-1037,-561,-311,-24,214,-182
0,2023-03-01T18:57:44.645396,2054188,917,1546,945,-1037,-561,-311,-24,214,-182
0,2023-03-01T18:57:44.650133,2054193,918,1547,955,-1033,-570,-320,-38,206,-176
0,2023-03-01T18:57:44.655905,2054198,918,1547,955,-1033,-570,-320,-38,206,-176
0,2023-03-01T18:57:44.661745,2054204,918,1547,955,-1033,-570,-320,-38,206,-176
0,2023-03-01T18:57:44.667674,2054209,916,1548,950,-1031,-568,-320,-38,206,-176
0,2023-03-01T18:57:44.673516,2054215,916,1548,950,-1031,-568,-320,-38,206,-176
0,2023-03-01T18:57:44.678956,2054221,916,1548,950,-1031,-568,-320,-38,206,-176
0,2023-03-01T18:57:44.684900,2054226,916,1548,950,-1031,-568,-320,-38,206,-176
0,2023-03-01T18:57:44.689900,2054232,916,1547,948,-1041,-569,-327,-38,206,-176
0,2023-03-01T18:57:44.695130,2054237,916,1547,948,-1041,-569,-327,-38,206,-176
0,2023-03-01T18:57:44.700991,2054243,916,1547,948,-1041,-569,-327,-38,206,-176
0,2023-03-01T18:57:44.706935,2054249,920,1546,946,-1038,-577,-320,-38,206,-176
0,2023-03-01T18:57:44.712573,2054254,920,1546,946,-1038,-577,-320,-38,206,-176
0,2023-03-01T18:57:44.717696,2054260,920,1546,946,-1038,-577,-320,-38,206,-176
0,2023-03-01T18:57:44.722773,2054265,920,1546,946,-1038,-577,-320,-38,206,-176
0,2023-03-01T18:57:44.727542,2054269,918,1546,945,-1042,-571,-320,-38,206,-176
0,2023-03-01T18:57:44.732935,2054275,918,1546,945,-1042,-571,-320,-38,206,-176
0,2023-03-01T18:57:44.738377,2054281,918,1546,945,-1042,-571,-320,-38,206,-176
0,2023-03-01T18:57:44.743122,2054285,918,1546,945,-1042,-571,-320,-38,206,-176
0,2023-03-01T18:57:44.748532,2054291,921,1547,950,-1036,-572,-322,-38,206,-176
0,2023-03-01T18:57:44.753964,2054296,921,1547,950,-1036,-572,-322,-38,206,-176
0,2023-03-01T18:57:44.759801,2054301,921,1547,950,-1036,-572,-322,-38,206,-176
0,2023-03-01T18:57:44.764944,2054306,921,1547,950,-1036,-572,-322,-38,206,-176
0,2023-03-01T18:57:44.769696,2054311,921,1547,950,-1036,-572,-322,-35,205,-185
0,2023-03-01T18:57:44.774645,2054317,921,1547,950,-1036,-572,-322,-35,205,-185
0,2023-03-01T18:57:44.781400,2054323,921,1547,950,-1036,-572,-322,-35,205,-185
0,2023-03-01T18:57:44.787314,2054329,914,1550,952,-1039,-575,-324,-35,205,-185
0,2023-03-01T18:57:44.793437,2054335,914,1550,952,-1039,-575,-324,-35,205,-185
0,2023-03-01T18:57:44.798998,2054341,914,1550,952,-1039,-575,-324,-35,205,-185
0,2023-03-01T18:57:44.804553,2054346,914,1550,952,-1039,-575,-324,-35,205,-185
0,2023-03-01T18:57:44.809369,2054351,916,1546,944,-1041,-578,-327,-35,205,-185
0,2023-03-01T18:57:44.815173,2054358,916,1546,944,-1041,-578,-327,-35,205,-185
0,2023-03-01T18:57:44.820427,2054363,916,1546,944,-1041,-578,-327,-35,205,-185
0,2023-03-01T18:57:44.825420,2054368,916,1546,944,-1041,-578,-327,-35,205,-185
0,2023-03-01T18:57:44.830396,2054372,917,1548,945,-1039,-577,-322,-35,205,-185
0,2023-03-01T18:57:44.836853,2054379,917,1548,945,-1039,-577,-322,-35,205,-185
0,2023-03-01T18:57:44.842442,2054384,917,1548,945,-1039,-577,-322,-35,205,-185
0,2023-03-01T18:57:44.847452,2054389,919,1548,951,-1041,-568,-318,-35,205,-185
0,2023-03-01T18:57:44.853297,2054395,919,1548,951,-1041,-568,-318,-35,205,-185
0,2023-03-01T18:57:44.858906,2054402,919,1548,951,-1041,-568,-318,-35,205,-185
0,2023-03-01T18:57:44.864077,2054406,919,1548,951,-1041,-568,-318,-35,205,-185
0,2023-03-01T18:57:44.868921,2054411,918,1549,951,-1038,-570,-317,-35,205,-185
0,2023-03-01T18:57:44.875344,2054417,918,1549,951,-1038,-570,-317,-35,205,-185
0,2023-03-01T18:57:44.881300,2054423,918,1549,951,-1038,-570,-317,-35,205,-185
0,2023-03-01T18:57:44.886854,2054428,919,1550,948,-1034,-572,-313,-35,205,-185
0,2023-03-01T18:57:44.893704,2054435,919,1550,948,-1034,-572,-313,-35,205,-185
0,2023-03-01T18:57:44.899578,2054441,919,1550,948,-1034,-572,-313,-35,205,-185
0,2023-03-01T18:57:44.904784,2054447,919,1550,948,-1034,-572,-313,-35,205,-185
0,2023-03-01T18:57:44.910534,2054453,918,1550,956,-1041,-572,-325,-34,210,-186
0,2023-03-01T18:57:44.915968,2054458,918,1550,956,-1041,-572,-325,-34,210,-186
0,2023-03-01T18:57:44.920748,2054463,918,1550,956,-1041,-572,-325,-34,210,-186
0,2023-03-01T18:57:44.926653,2054469,920,1550,945,-1040,-568,-318,-34,210,-186
0,2023-03-01T18:57:44.932584,2054474,920,1550,945,-1040,-568,-318,-34,210,-186
0,2023-03-01T18:57:44.938191,2054479,920,1550,945,-1040,-568,-318,-34,210,-186
0,2023-03-01T18:57:44.943799,2054486,920,1550,945,-1040,-568,-318,-34,210,-186
0,2023-03-01T18:57:44.948705,2054491,917,1547,945,-1034,-575,-322,-34,210,-186
0,2023-03-01T18:57:44.954594,2054497,917,1547,945,-1034,-575,-322,-34,210,-186
0,2023-03-01T18:57:44.960588,2054502,917,1547,945,-1034,-575,-322,-34,210,-186
0,2023-03-01T18:57:44.966283,2054508,918,1546,947,-1033,-576,-316,-34,210,-186
0,2023-03-01T18:57:44.971824,2054514,918,1546,947,-1033,-576,-316,-34,210,-186
0,2023-03-01T18:57:44.977485,2054519,918,1546,947,-1033,-576,-316,-34,210,-186
0,2023-03-01T18:57:44.982648,2054524,918,1546,947,-1033,-576,-316,-34,210,-186
0,2023-03-01T18:57:44.988204,2054530,917,1547,947,-1038,-575,-316,-34,210,-186
0,2023-03-01T18:57:44.994337,2054536,917,1547,947,-1038,-575,-316,-34,210,-186
0,2023-03-01T18:57:45.002340,2054544,917,1547,947,-1038,-575,-316,-34,210,-186
0,2023-03-01T18:57:45.008516,2054550,917,1547,947,-1038,-575,-316,-34,210,-186
0,2023-03-01T18:57:45.013719,2054555,917,1547,947,-1038,-575,-316,-34,210,-186
0,2023-03-01T18:57:45.019519,2054561,917,1547,947,-1038,-575,-316,-34,210,-186
0,2023-03-01T18:57:45.024694,2054566,917,1547,947,-1038,-575,-316,-34,210,-186
0,2023-03-01T18:57:45.029704,2054572,917,1550,947,-1045,-566,-317,-34,202,-178
0,2023-03-01T18:57:45.035339,2054578,917,1550,947,-1045,-566,-317,-34,202,-178
0,2023-03-01T18:57:45.040633,2054583,917,1550,947,-1045,-566,-317,-34,202,-178
0,2023-03-01T18:57:45.045384,2054588,917,1550,947,-1045,-566,-317,-34,202,-178
0,2023-03-01T18:57:45.050560,2054592,918,1549,954,-1041,-563,-322,-34,202,-178
0,2023-03-01T18:57:45.056096,2054598,918,1549,954,-1041,-563,-322,-34,202,-178
0,2023-03-01T18:57:45.061770,2054603,918,1549,954,-1041,-563,-322,-34,202,-178
0,2023-03-01T18:57:45.066753,2054608,919,1550,954,-1041,-573,-319,-34,202,-178
0,2023-03-01T18:57:45.072732,2054615,919,1550,954,-1041,-573,-319,-34,202,-178
0,2023-03-01T18:57:45.078489,2054621,919,1550,954,-1041,-573,-319,-34,202,-178
0,2023-03-01T18:57:45.083583,2054626,919,1550,954,-1041,-573,-319,-34,202,-178
0,2023-03-01T18:57:45.088579,2054631,918,1550,948,-1045,-573,-317,-34,202,-178
0,2023-03-01T18:57:45.094401,2054636,918,1550,948,-1045,-573,-317,-34,202,-178
0,2023-03-01T18:57:45.100335,2054642,918,1550,948,-1045,-573,-317,-34,202,-178
0,2023-03-01T18:57:45.106203,2054647,918,1550,948,-1045,-573,-317,-34,202,-178
0,2023-03-01T18:57:45.111924,2054653,919,1553,948,-1038,-581,-314,-34,202,-178
0,2023-03-01T18:57:45.118224,2054661,919,1553,948,-1038,-581,-314,-34,202,-178
0,2023-03-01T18:57:45.123651,2054666,919,1553,948,-1038,-581,-314,-34,202,-178
0,2023-03-01T18:57:45.129046,2054671,918,1550,949,-1039,-576,-317,-34,202,-178
0,2023-03-01T18:57:45.134538,2054677,918,1550,949,-1039,-576,-317,-34,202,-178
0,2023-03-01T18:57:45.139780,2054682,918,1550,949,-1039,-576,-317,-34,202,-178
0,2023-03-01T18:57:45.145290,2054687,918,1550,949,-1039,-576,-317,-34,202,-178
0,2023-03-01T18:57:45.150336,2054692,918,1547,945,-1030,-572,-318,-34,202,-178
0,2023-03-01T18:57:45.156390,2054699,918,1547,945,-1030,-572,-318,-34,202,-178
0,2023-03-01T18:57:45.161600,2054704,918,1547,945,-1030,-572,-318,-34,202,-178
0,2023-03-01T18:57:45.166193,2054708,918,1547,945,-1030,-572,-318,-34,202,-178
0,2023-03-01T18:57:45.171049,2054713,920,1552,952,-1040,-580,-326,-34,212,-186
0,2023-03-01T18:57:45.176257,2054718,920,1552,952,-1040,-580,-326,-34,212,-186
0,2023-03-01T18:57:45.181899,2054724,920,1552,952,-1040,-580,-326,-34,212,-186
0,2023-03-01T18:57:45.188415,2054730,920,1550,951,-1043,-573,-324,-34,212,-186
0,2023-03-01T18:57:45.194032,2054736,920,1550,951,-1043,-573,-324,-34,212,-186
0,2023-03-01T18:57:45.199474,2054742,920,1550,951,-1043,-573,-324,-34,212,-186
0,2023-03-01T18:57:45.205383,2054748,920,1550,951,-1043,-573,-324,-34,212,-186
0,2023-03-01T18:57:45.210295,2054752,920,1546,945,-1041,-570,-315,-34,212,-186
0,2023-03-01T18:57:45.217569,2054759,920,1546,945,-1041,-570,-315,-34,212,-186
0,2023-03-01T18:57:45.223341,2054765,920,1546,945,-1041,-570,-315,-34,212,-186
0,2023-03-01T18:57:45.228503,2054770,916,1548,952,-1034,-569,-320,-34,212,-186
0,2023-03-01T18:57:45.233904,2054776,916,1548,952,-1034,-569,-320,-34,212,-186
0,2023-03-01T18:57:45.239530,2054781,916,1548,952,-1034,-569,-320,-34,212,-186
0,2023-03-01T18:57:45.245390,2054788,916,1548,952,-1034,-569,-320,-34,212,-186
0,2023-03-01T18:57:45.249893,2054792,916,1545,949,-1039,-579,-321,-34,212,-186
0,2023-03-01T18:57:45.255105,2054797,916,1545,949,-1039,-579,-321,-34,212,-186
0,2023-03-01T18:57:45.260816,2054803,916,1545,949,-1039,-579,-321,-34,212,-186
0,2023-03-01T18:57:45.266563,2054809,919,1548,947,-1036,-569,-322,-34,212,-186
0,2023-03-01T18:57:45.271971,2054814,919,1548,947,-1036,-569,-322,-34,212,-186
0,2023-03-01T18:57:45.277306,2054819,919,1548,947,-1036,-569,-322,-34,212,-186
0,2023-03-01T18:57:45.282396,2054824,919,1548,947,-1036,-569,-322,-34,212,-186
0,2023-03-01T18:57:45.286761,2054829,916,1548,941,-1034,-570,-323,-35,207,-185
0,2023-03-01T18:57:45.292405,2054835,916,1548,941,-1034,-570,-323,-35,207,-185
0,2023-03-01T18:57:45.298159,2054840,916,1548,941,-1034,-570,-323,-35,207,-185
0,2023-03-01T18:57:45.302794,2054845,916,1548,941,-1034,-570,-323,-35,207,-185
0,2023-03-01T18:57:45.307754,2054850,915,1549,951,-1033,-570,-317,-35,207,-185
0,2023-03-01T18:57:45.313427,2054855,915,1549,951,-1033,-570,-317,-35,207,-185
0,2023-03-01T18:57:45.319578,2054861,915,1549,951,-1033,-570,-317,-35,207,-185
0,2023-03-01T18:57:45.324339,2054866,915,1549,951,-1033,-570,-317,-35,207,-185
0,2023-03-01T18:57:45.329510,2054872,919,1550,946,-1028,-568,-321,-35,207,-185
0,2023-03-01T18:57:45.335375,2054878,919,1550,946,-1028,-568,-321,-35,207,-185
0,2023-03-01T18:57:45.340796,2054883,919,1550,946,-1028,-568,-321,-35,207,-185
0,2023-03-01T18:57:45.346232,2054888,919,1550,946,-1028,-568,-321,-35,207,-185
0,2023-03-01T18:57:45.351479,2054893,918,1550,944,-1036,-564,-320,-35,207,-185
0,2023-03-01T18:57:45.357075,2054899,918,1550,944,-1036,-564,-320,-35,207,-185
0,2023-03-01T18:57:45.362674,2054904,918,1550,944,-1036,-564,-320,-35,207,-185
0,2023-03-01T18:57:45.367917,2054909,917,1544,941,-1035,-560,-322,-35,207,-185
0,2023-03-01T18:57:45.373814,2054916,917,1544,941,-1035,-560,-322,-35,207,-185
0,2023-03-01T18:57:45.379573,2054922,917,1544,941,-1035,-560,-322,-35,207,-185
0,2023-03-01T18:57:45.384723,2054927,917,1544,941,-1035,-560,-322,-35,207,-185
0,2023-03-01T18:57:45.389990,2054932,919,1547,946,-1039,-568,-321,-35,207,-185
0,2023-03-01T18:57:45.395582,2054937,919,1547,946,-1039,-568,-321,-35,207,-185
0,2023-03-01T18:57:45.400986,2054942,919,1547,946,-1039,-568,-321,-35,207,-185
0,2023-03-01T18:57:45.406831,2054948,916,1548,943,-1043,-571,-322,-35,207,-185
0,2023-03-01T18:57:45.413110,2054955,916,1548,943,-1043,-571,-322,-38,204,-184
0,2023-03-01T18:57:45.418901,2054961,916,1548,943,-1043,-571,-322,-38,204,-184
0,2023-03-01T18:57:45.424027,2054966,916,1548,943,-1043,-571,-322,-38,204,-184
0,2023-03-01T18:57:45.429623,2054972,914,1548,952,-1039,-572,-319,-38,204,-184
0,2023-03-01T18:57:45.436351,2054977,914,1548,952,-1039,-572,-319,-38,204,-184
0,2023-03-01T18:57:45.442526,2054984,914,1548,952,-1039,-572,-319,-38,204,-184
0,2023-03-01T18:57:45.448355,2054990,917,1550,953,-1045,-575,-316,-38,204,-184
0,2023-03-01T18:57:45.453893,2054995,917,1550,953,-1045,-575,-316,-38,204,-184
0,2023-03-01T18:57:45.459454,2055002,917,1550,953,-1045,-575,-316,-38,204,-184
0,2023-03-01T18:57:45.466215,2055008,917,1550,953,-1045,-575,-316,-38,204,-184
0,2023-03-01T18:57:45.471341,2055013,917,1551,945,-1039,-573,-316,-38,204,-184
0,2023-03-01T18:57:45.477264,2055019,917,1551,945,-1039,-573,-316,-38,204,-184
0,2023-03-01T18:57:45.482885,2055025,917,1551,945,-1039,-573,-316,-38,204,-184
0,2023-03-01T18:57:45.489842,2055031,917,1550,955,-1034,-576,-323,-38,204,-184
0,2023-03-01T18:57:45.495945,2055037,917,1550,955,-1034,-576,-323,-38,204,-184
0,2023-03-01T18:57:45.501594,2055044,917,1550,955,-1034,-576,-323,-38,204,-184
0,2023-03-01T18:57:45.506811,2055049,917,1550,955,-1034,-576,-323,-38,204,-184
0,2023-03-01T18:57:45.512196,2055054,917,1547,948,-1035,-572,-322,-38,204,-184
0,2023-03-01T18:57:45.517237,2055059,917,1547,948,-1035,-572,-322,-38,204,-184
0,2023-03-01T18:57:45.522054,2055064,917,1547,948,-1035,-572,-322,-38,204,-184
0,2023-03-01T18:57:45.527762,2055070,916,1549,946,-1031,-571,-324,-38,204,-184
0,2023-03-01T18:57:45.533262,2055075,916,1549,946,-1031,-571,-324,-38,204,-184
0,2023-03-01T18:57:45.538783,2055080,916,1549,946,-1031,-571,-324,-38,204,-184
0,2023-03-01T18:57:45.543708,2055086,916,1549,946,-1031,-571,-324,-38,204,-184
0,2023-03-01T18:57:45.548855,2055091,917,1548,950,-1035,-571,-322,-28,210,-176
0,2023-03-01T18:57:45.555498,2055097,917,1548,950,-1035,-571,-322,-28,210,-176
0,2023-03-01T18:57:45.561301,2055103,917,1548,950,-1035,-571,-322,-28,210,-176
0,2023-03-01T18:57:45.567108,2055108,917,1548,950,-1035,-571,-322,-28,210,-176
0,2023-03-01T18:57:45.572384,2055114,915,1548,948,-1042,-576,-317,-28,210,-176
0,2023-03-01T18:57:45.578883,2055120,915,1548,948,-1042,-576,-317,-28,210,-176
0,2023-03-01T18:57:45.583793,2055126,915,1548,948,-1042,-576,-317,-28,210,-176
0,2023-03-01T18:57:45.589061,2055131,919,1547,946,-1037,-572,-312,-28,210,-176
0,2023-03-01T18:57:45.594505,2055137,919,1547,946,-1037,-572,-312,-28,210,-176
0,2023-03-01T18:57:45.600399,2055143,919,1547,946,-1037,-572,-312,-28,210,-176
0,2023-03-01T18:57:45.605195,2055147,919,1547,946,-1037,-572,-312,-28,210,-176
0,2023-03-01T18:57:45.610153,2055152,917,1548,948,-1031,-570,-314,-28,210,-176
0,2023-03-01T18:57:45.615970,2055158,917,1548,948,-1031,-570,-314,-28,210,-176
0,2023-03-01T18:57:45.621519,2055163,917,1548,948,-1031,-570,-314,-28,210,-176
0,2023-03-01T18:57:45.628744,2055171,918,1547,949,-1035,-568,-315,-28,210,-176
0,2023-03-01T18:57:45.634620,2055177,918,1547,949,-1035,-568,-315,-28,210,-176
0,2023-03-01T18:57:45.640062,2055182,918,1547,949,-1035,-568,-315,-28,210,-176
0,2023-03-01T18:57:45.645625,2055187,918,1547,949,-1035,-568,-315,-28,210,-176
0,2023-03-01T18:57:45.650802,2055193,918,1550,947,-1038,-567,-312,-28,210,-176
0,2023-03-01T18:57:45.656601,2055198,918,1550,947,-1038,-567,-312,-28,210,-176
0,2023-03-01T18:57:45.662615,2055204,918,1550,947,-1038,-567,-312,-28,210,-176
0,2023-03-01T18:57:45.667604,2055209,918,1547,949,-1034,-575,-322,-33,209,-187
0,2023-03-01T18:57:45.673001,2055215,918,1547,949,-1034,-575,-322,-33,209,-187
0,2023-03-01T18:57:45.678517,2055221,918,1547,949,-1034,-575,-322,-33,209,-187
0,2023-03-01T18:57:45.683562,2055226,918,1547,949,-1034,-575,-322,-33,209,-187
0,2023-03-01T18:57:45.688777,2055231,919,1548,946,-1031,-574,-320,-33,209,-187
0,2023-03-01T18:57:45.694334,2055236,919,1548,946,-1031,-574,-320,-33,209,-187
0,2023-03-01T18:57:45.699654,2055241,919,1548,946,-1031,-574,-320,-33,209,-187
0,2023-03-01T18:57:45.705116,2055247,919,1548,946,-1031,-574,-320,-33,209,-187
0,2023-03-01T18:57:45.710629,2055252,917,1548,947,-1028,-565,-318,-33,209,-187
0,2023-03-01T18:57:45.716126,2055259,917,1548,947,-1028,-565,-318,-33,209,-187
0,2023-03-01T18:57:45.721666,2055264,917,1548,947,-1028,-565,-318,-33,209,-187
0,2023-03-01T18:57:45.726367,2055269,917,1548,947,-1028,-565,-318,-33,209,-187
0,2023-03-01T18:57:45.731402,2055273,916,1550,947,-1037,-565,-326,-33,209,-187
0,2023-03-01T18:57:45.737161,2055279,916,1550,947,-1037,-565,-326,-33,209,-187
0,2023-03-01T18:57:45.742863,2055285,916,1550,947,-1037,-565,-326,-33,209,-187
0,2023-03-01T18:57:45.747894,2055289,918,1551,944,-1036,-568,-321,-33,209,-187
0,2023-03-01T18:57:45.753798,2055296,918,1551,944,-1036,-568,-321,-33,209,-187
0,2023-03-01T18:57:45.759675,2055302,918,1551,944,-1036,-568,-321,-33,209,-187
0,2023-03-01T18:57:45.764985,2055307,918,1551,944,-1036,-568,-321,-33,209,-187
0,2023-03-01T18:57:45.770358,2055312,922,1550,946,-1034,-565,-315,-33,209,-187
0,2023-03-01T18:57:45.775400,2055318,922,1550,946,-1034,-565,-315,-33,209,-187
0,2023-03-01T18:57:45.780803,2055323,922,1550,946,-1034,-565,-315,-33,209,-187
0,2023-03-01T18:57:45.786705,2055328,922,1550,946,-1034,-565,-315,-33,209,-187
0,2023-03-01T18:57:45.791819,2055333,918,1548,946,-1035,-566,-323,-33,209,-187
0,2023-03-01T18:57:45.797895,2055340,918,1548,946,-1035,-566,-323,-33,209,-187
0,2023-03-01T18:57:45.803384,2055346,918,1548,946,-1035,-566,-323,-33,209,-187
0,2023-03-01T18:57:45.808597,2055351,917,1548,951,-1038,-567,-317,-35,205,-189
0,2023-03-01T18:57:45.814217,2055356,917,1548,951,-1038,-567,-317,-35,205,-189
0,2023-03-01T18:57:45.819981,2055362,917,1548,951,-1038,-567,-317,-35,205,-189
0,2023-03-01T18:57:45.825724,2055368,917,1548,951,-1038,-567,-317,-35,205,-189
0,2023-03-01T18:57:45.830416,2055372,917,1549,950,-1035,-563,-319,-35,205,-189
0,2023-03-01T18:57:45.835722,2055377,917,1549,950,-1035,-563,-319,-35,205,-189
0,2023-03-01T18:57:45.840657,2055383,917,1549,950,-1035,-563,-319,-35,205,-189
0,2023-03-01T18:57:45.845309,2055388,917,1549,950,-1035,-563,-319,-35,205,-189
0,2023-03-01T18:57:45.850462,2055393,918,1547,945,-1030,-573,-320,-35,205,-189
0,2023-03-01T18:57:45.856539,2055398,918,1547,945,-1030,-573,-320,-35,205,-189
0,2023-03-01T18:57:45.861847,2055404,918,1547,945,-1030,-573,-320,-35,205,-189
0,2023-03-01T18:57:45.867723,2055410,915,1548,946,-1037,-573,-319,-35,205,-189
0,2023-03-01T18:57:45.872867,2055414,915,1548,946,-1037,-573,-319,-35,205,-189
0,2023-03-01T18:57:45.880997,2055422,915,1548,946,-1037,-573,-319,-35,205,-189
0,2023-03-01T18:57:45.886287,2055428,915,1548,946,-1037,-573,-319,-35,205,-189
0,2023-03-01T18:57:45.891525,2055434,917,1548,946,-1038,-574,-318,-35,205,-189
0,2023-03-01T18:57:45.897005,2055439,917,1548,946,-1038,-574,-318,-35,205,-189
0,2023-03-01T18:57:45.902710,2055445,917,1548,946,-1038,-574,-318,-35,205,-189
0,2023-03-01T18:57:45.908644,2055450,919,1547,942,-1035,-572,-315,-35,205,-189
0,2023-03-01T18:57:45.914419,2055456,919,1547,942,-1035,-572,-315,-35,205,-189
0,2023-03-01T18:57:45.919714,2055461,919,1547,942,-1035,-572,-315,-35,205,-189
0,2023-03-01T18:57:45.925506,2055468,919,1547,942,-1035,-572,-315,-35,205,-189
0,2023-03-01T18:57:45.930326,2055473,920,1552,941,-1039,-573,-316,-34,210,-182
0,2023-03-01T18:57:45.936195,2055478,920,1552,941,-1039,-573,-316,-34,210,-182
0,2023-03-01T18:57:45.941143,2055483,920,1552,941,-1039,-573,-316,-34,210,-182
0,2023-03-01T18:57:45.946779,2055489,920,1552,941,-1039,-573,-316,-34,210,-182
0,2023-03-01T18:57:45.951648,2055494,921,1549,947,-1029,-568,-318,-34,210,-182
0,2023-03-01T18:57:45.957453,2055499,921,1549,947,-1029,-568,-318,-34,210,-182
0,2023-03-01T18:57:45.963429,2055505,921,1549,947,-1029,-568,-318,-34,210,-182
0,2023-03-01T18:57:45.969287,2055511,917,1551,944,-1030,-566,-316,-34,210,-182
0,2023-03-01T18:57:45.975521,2055518,917,1551,944,-1030,-566,-316,-34,210,-182
0,2023-03-01T18:57:45.981343,2055523,917,1551,944,-1030,-566,-316,-34,210,-182
0,2023-03-01T18:57:45.987194,2055529,917,1551,944,-1030,-566,-316,-34,210,-182
0,2023-03-01T18:57:45.992592,2055535,920,1549,949,-1039,-566,-317,-34,210,-182
0,2023-03-01T18:57:45.999209,2055541,920,1549,949,-1039,-566,-317,-34,210,-182
0,2023-03-01T18:57:46.004416,2055546,920,1549,949,-1039,-566,-317,-34,210,-182
0,2023-03-01T18:57:46.009046,2055552,916,1552,949,-1042,-570,-324,-34,210,-182
0,2023-03-01T18:57:46.014695,2055557,916,1552,949,-1042,-570,-324,-34,210,-182
0,2023-03-01T18:57:46.020856,2055563,916,1552,949,-1042,-570,-324,-34,210,-182
0,2023-03-01T18:57:46.025781,2055568,916,1552,949,-1042,-570,-324,-34,210,-182
0,2023-03-01T18:57:46.030710,2055573,916,1547,947,-1047,-569,-321,-34,210,-182
0,2023-03-01T18:57:46.036567,2055578,916,1547,947,-1047,-569,-321,-34,210,-182
0,2023-03-01T18:57:46.042346,2055584,916,1547,947,-1047,-569,-321,-34,210,-182
0,2023-03-01T18:57:46.048327,2055590,918,1547,941,-1040,-567,-325,-34,210,-182
0,2023-03-01T18:57:46.053956,2055596,918,1547,941,-1040,-567,-325,-34,210,-182
0,2023-03-01T18:57:46.059160,2055602,918,1547,941,-1040,-567,-325,-34,210,-182
0,2023-03-01T18:57:46.064045,2055606,918,1547,941,-1040,-567,-325,-34,210,-182
0,2023-03-01T18:57:46.068748,2055611,914,1552,949,-1037,-573,-319,-39,211,-183
0,2023-03-01T18:57:46.074376,2055616,914,1552,949,-1037,-573,-319,-39,211,-183
0,2023-03-01T18:57:46.080331,2055622,914,1552,949,-1037,-573,-319,-39,211,-183
0,2023-03-01T18:57:46.085289,2055627,914,1552,949,-1037,-573,-319,-39,211,-183
0,2023-03-01T18:57:46.090130,2055632,917,1547,953,-1030,-568,-321,-39,211,-183
0,2023-03-01T18:57:46.095836,2055638,917,1547,953,-1030,-568,-321,-39,211,-183
0,2023-03-01T18:57:46.101748,2055644,917,1547,953,-1030,-568,-321,-39,211,-183
0,2023-03-01T18:57:46.107565,2055650,917,1548,947,-1035,-574,-320,-39,211,-183
0,2023-03-01T18:57:46.112909,2055655,917,1548,947,-1035,-574,-320,-39,211,-183
0,2023-03-01T18:57:46.118713,2055660,917,1548,947,-1035,-574,-320,-39,211,-183
0,2023-03-01T18:57:46.123780,2055666,917,1548,947,-1035,-574,-320,-39,211,-183
0,2023-03-01T18:57:46.128754,2055670,918,1550,947,-1030,-574,-319,-39,211,-183
0,2023-03-01T18:57:46.134714,2055676,918,1550,947,-1030,-574,-319,-39,211,-183
0,2023-03-01T18:57:46.139238,2055682,918,1550,947,-1030,-574,-319,-39,211,-183
0,2023-03-01T18:57:46.144920,2055687,918,1550,947,-1030,-574,-319,-39,211,-183
0,2023-03-01T18:57:46.149882,2055692,917,1547,945,-1039,-574,-315,-39,211,-183
0,2023-03-01T18:57:46.155615,2055698,917,1547,945,-1039,-574,-315,-39,211,-183
0,2023-03-01T18:57:46.161345,2055703,917,1547,945,-1039,-574,-315,-39,211,-183
0,2023-03-01T18:57:46.166727,2055709,917,1547,945,-1039,-574,-315,-39,211,-183
0,2023-03-01T18:57:46.171862,2055713,917,1547,945,-1039,-574,-315,-39,211,-183
0,2023-03-01T18:57:46.176831,2055718,917,1547,945,-1039,-574,-315,-39,211,-183
0,2023-03-01T18:57:46.182552,2055725,917,1547,945,-1039,-574,-315,-39,211,-183
0,2023-03-01T18:57:46.187503,2055730,917,1547,945,-1039,-574,-315,-39,211,-183
0,2023-03-01T18:57:46.192131,2055735,919,1553,948,-1036,-560,-322,-34,212,-184
0,2023-03-01T18:57:46.197890,2055740,919,1553,948,-1036,-560,-322,-34,212,-184
0,2023-03-01T18:57:46.202796,2055745,919,1553,948,-1036,-560,-322,-34,212,-184
0,2023-03-01T18:57:46.210834,2055752,919,1548,950,-1032,-571,-315,-34,212,-184
0,2023-03-01T18:57:46.215648,2055757,919,1548,950,-1032,-571,-315,-34,212,-184
0,2023-03-01T18:57:46.221203,2055763,919,1548,950,-1032,-571,-315,-34,212,-184
0,2023-03-01T18:57:46.226405,2055768,919,1548,950,-1032,-571,-315,-34,212,-184
0,2023-03-01T18:57:46.231235,2055774,919,1549,949,-1034,-571,-316,-34,212,-184
0,2023-03-01T18:57:46.236786,2055779,919,1549,949,-1034,-571,-316,-34,212,-184
0,2023-03-01T18:57:46.242146,2055784,919,1549,949,-1034,-571,-316,-34,212,-184
0,2023-03-01T18:57:46.247138,2055789,919,1549,949,-1034,-571,-316,-34,212,-184
0,2023-03-01T18:57:46.252014,2055794,919,1549,944,-1037,-577,-318,-34,212,-184
0,2023-03-01T18:57:46.258133,2055800,919,1549,944,-1037,-577,-318,-34,212,-184
0,2023-03-01T18:57:46.263369,2055805,919,1549,944,-1037,-577,-318,-34,212,-184
0,2023-03-01T18:57:46.268374,2055811,918,1549,941,-1028,-568,-317,-34,212,-184
0,2023-03-01T18:57:46.273746,2055816,918,1549,941,-1028,-568,-317,-34,212,-184
0,2023-03-01T18:57:46.278982,2055821,918,1549,941,-1028,-568,-317,-34,212,-184
0,2023-03-01T18:57:46.284278,2055826,918,1549,941,-1028,-568,-317,-34,212,-184
0,2023-03-01T18:57:46.289228,2055831,917,1545,944,-1040,-570,-316,-34,212,-184
0,2023-03-01T18:57:46.295250,2055837,917,1545,944,-1040,-570,-316,-34,212,-184
0,2023-03-01T18:57:46.301306,2055843,917,1545,944,-1040,-570,-316,-34,212,-184
0,2023-03-01T18:57:46.306908,2055849,917,1545,944,-1040,-570,-316,-34,212,-184
0,2023-03-01T18:57:46.311679,2055854,918,1548,944,-1041,-572,-316,-38,202,-184
0,2023-03-01T18:57:46.317210,2055859,918,1548,944,-1041,-572,-316,-38,202,-184
0,2023-03-01T18:57:46.324011,2055866,918,1548,944,-1041,-572,-316,-38,202,-184
0,2023-03-01T18:57:46.329061,2055871,916,1549,946,-1043,-579,-323,-38,202,-184
0,2023-03-01T18:57:46.334052,2055876,916,1549,946,-1043,-579,-323,-38,202,-184
0,2023-03-01T18:57:46.339691,2055882,916,1549,946,-1043,-579,-323,-38,202,-184
0,2023-03-01T18:57:46.344595,2055886,916,1549,946,-1043,-579,-323,-38,202,-184
0,2023-03-01T18:57:46.349913,2055892,920,1548,950,-1035,-574,-323,-38,202,-184
0,2023-03-01T18:57:46.355378,2055898,920,1548,950,-1035,-574,-323,-38,202,-184
0,2023-03-01T18:57:46.361362,2055904,920,1548,950,-1035,-574,-323,-38,202,-184
0,2023-03-01T18:57:46.366617,2055909,920,1548,950,-1035,-574,-323,-38,202,-184
0,2023-03-01T18:57:46.371317,2055913,920,1547,944,-1035,-569,-326,-38,202,-184
0,2023-03-01T18:57:46.377006,2055919,920,1547,944,-1035,-569,-326,-38,202,-184
0,2023-03-01T18:57:46.382816,2055925,920,1547,944,-1035,-569,-326,-38,202,-184
0,2023-03-01T18:57:46.387843,2055930,919,1548,947,-1035,-567,-326,-38,202,-184
0,2023-03-01T18:57:46.393714,2055936,919,1548,947,-1035,-567,-326,-38,202,-184
0,2023-03-01T18:57:46.399654,2055942,919,1548,947,-1035,-567,-326,-38,202,-184
0,2023-03-01T18:57:46.405499,2055948,919,1548,947,-1035,-567,-326,-38,202,-184
0,2023-03-01T18:57:46.410661,2055953,916,1546,946,-1035,-573,-320,-38,202,-184
0,2023-03-01T18:57:46.416439,2055959,916,1546,946,-1035,-573,-320,-38,202,-184
0,2023-03-01T18:57:46.421699,2055964,916,1546,946,-1035,-573,-320,-38,202,-184
0,2023-03-01T18:57:46.427205,2055968,916,1546,946,-1035,-573,-320,-38,202,-184
0,2023-03-01T18:57:46.432562,2055974,920,1546,948,-1033,-574,-318,-38,202,-184
0,2023-03-01T18:57:46.439191,2055981,920,1546,948,-1033,-574,-318,-38,202,-184
0,2023-03-01T18:57:46.445513,2055988,920,1546,948,-1033,-574,-318,-38,202,-184
0,2023-03-01T18:57:46.450507,2055993,917,1550,949,-1034,-572,-321,-39,203,-185
0,2023-03-01T18:57:46.455977,2055998,917,1550,949,-1034,-572,-321,-39,203,-185
0,2023-03-01T18:57:46.461577,2056003,917,1550,949,-1034,-572,-321,-39,203,-185
0,2023-03-01T18:57:46.466737,2056008,917,1550,949,-1034,-572,-321,-39,203,-185
0,2023-03-01T18:57:46.471881,2056013,917,1547,950,-1033,-569,-313,-39,203,-185
0,2023-03-01T18:57:46.477750,2056019,917,1547,950,-1033,-569,-313,-39,203,-185
0,2023-03-01T18:57:46.484002,2056026,917,1547,950,-1033,-569,-313,-39,203,-185
0,2023-03-01T18:57:46.490330,2056032,914,1546,945,-1029,-568,-317,-39,203,-185
0,2023-03-01T18:57:46.496403,2056038,914,1546,945,-1029,-568,-317,-39,203,-185
0,2023-03-01T18:57:46.502023,2056044,914,1546,945,-1029,-568,-317,-39,203,-185
0,2023-03-01T18:57:46.507132,2056049,914,1546,945,-1029,-568,-317,-39,203,-185
0,2023-03-01T18:57:46.512188,2056054,916,1547,945,-1038,-566,-319,-39,203,-185
0,2023-03-01T18:57:46.518238,2056060,916,1547,945,-1038,-566,-319,-39,203,-185
0,2023-03-01T18:57:46.523216,2056066,916,1547,945,-1038,-566,-319,-39,203,-185
0,2023-03-01T18:57:46.528871,2056071,918,1549,945,-1036,-570,-323,-39,203,-185
0,2023-03-01T18:57:46.534406,2056077,918,1549,945,-1036,-570,-323,-39,203,-185
0,2023-03-01T18:57:46.542135,2056084,918,1549,945,-1036,-570,-323,-39,203,-185
0,2023-03-01T18:57:46.547924,2056090,919,1548,949,-1044,-562,-318,-39,203,-185
0,2023-03-01T18:57:46.553526,2056095,919,1548,949,-1044,-562,-318,-39,203,-185
0,2023-03-01T18:57:46.559020,2056101,919,1548,949,-1044,-562,-318,-39,203,-185
0,2023-03-01T18:57:46.564125,2056107,919,1548,949,-1044,-562,-318,-39,203,-185
0,2023-03-01T18:57:46.568895,2056111,918,1549,947,-1044,-570,-315,-31,211,-183
0,2023-03-01T18:57:46.574393,2056117,918,1549,947,-1044,-570,-315,-31,211,-183
0,2023-03-01T18:57:46.579892,2056122,918,1549,947,-1044,-570,-315,-31,211,-183
0,2023-03-01T18:57:46.585072,2056127,918,1549,947,-1044,-570,-315,-31,211,-183
0,2023-03-01T18:57:46.589660,2056132,918,1547,948,-1036,-575,-319,-31,211,-183
0,2023-03-01T18:57:46.595081,2056137,918,1547,948,-1036,-575,-319,-31,211,-183
0,2023-03-01T18:57:46.600509,2056142,918,1547,948,-1036,-575,-319,-31,211,-183
0,2023-03-01T18:57:46.606280,2056148,918,1547,948,-1036,-575,-319,-31,211,-183
0,2023-03-01T18:57:46.611498,2056154,918,1549,947,-1041,-571,-312,-31,211,-183
0,2023-03-01T18:57:46.617971,2056160,918,1549,947,-1041,-571,-312,-31,211,-183
0,2023-03-01T18:57:46.622676,2056165,918,1549,947,-1041,-571,-312,-31,211,-183
0,2023-03-01T18:57:46.628510,2056170,918,1549,947,-1041,-571,-312,-31,211,-183
0,2023-03-01T18:57:46.633933,2056175,918,1549,947,-1041,-571,-312,-31,211,-183
0,2023-03-01T18:57:46.640087,2056182,918,1549,947,-1041,-571,-312,-31,211,-183
0,2023-03-01T18:57:46.645977,2056187,918,1549,947,-1041,-571,-312,-31,211,-183
0,2023-03-01T18:57:46.651289,2056194,919,1551,947,-1039,-571,-310,-31,211,-183
0,2023-03-01T18:57:46.657042,2056199,919,1551,947,-1039,-571,-310,-31,211,-183
0,2023-03-01T18:57:46.661933,2056204,919,1551,947,-1039,-571,-310,-31,211,-183
0,2023-03-01T18:57:46.667147,2056209,919,1551,947,-1039,-571,-310,-31,211,-183
0,2023-03-01T18:57:46.672095,2056214,920,1549,940,-1035,-574,-317,-31,211,-183
0,2023-03-01T18:57:46.676857,2056219,920,1549,940,-1035,-574,-317,-31,211,-183
0,2023-03-01T18:57:46.681534,2056224,920,1549,940,-1035,-574,-317,-31,211,-183
0,2023-03-01T18:57:46.686832,2056228,920,1549,940,-1035,-574,-317,-31,211,-183
0,2023-03-01T18:57:46.693068,2056235,917,1547,947,-1037,-571,-320,-31,211,-183
0,2023-03-01T18:57:46.699280,2056242,917,1547,947,-1037,-571,-320,-31,211,-183
0,2023-03-01T18:57:46.704750,2056247,917,1547,947,-1037,-571,-320,-31,211,-183
0,2023-03-01T18:57:46.709560,2056252,921,1549,948,-1038,-574,-318,-34,204,-178
0,2023-03-01T18:57:46.715481,2056258,921,1549,948,-1038,-574,-318,-34,204,-178
0,2023-03-01T18:57:46.721391,2056263,921,1549,948,-1038,-574,-318,-34,204,-178
0,2023-03-01T18:57:46.727345,2056269,921,1549,948,-1038,-574,-318,-34,204,-178
0,2023-03-01T18:57:46.732505,2056274,921,1550,948,-1039,-579,-317,-34,204,-178
0,2023-03-01T18:57:46.739998,2056282,921,1550,948,-1039,-579,-317,-34,204,-178
0,2023-03-01T18:57:46.744642,2056287,921,1550,948,-1039,-579,-317,-34,204,-178
0,2023-03-01T18:57:46.749203,2056292,919,1546,942,-1042,-582,-321,-34,204,-178
0,2023-03-01T18:57:46.754942,2056297,919,1546,942,-1042,-582,-321,-34,204,-178
0,2023-03-01T18:57:46.760562,2056303,919,1546,942,-1042,-582,-321,-34,204,-178
0,2023-03-01T18:57:46.766169,2056308,919,1546,942,-1042,-582,-321,-34,204,-178
0,2023-03-01T18:57:46.771200,2056313,917,1550,941,-1039,-569,-323,-34,204,-178
0,2023-03-01T18:57:46.777008,2056320,917,1550,941,-1039,-569,-323,-34,204,-178
0,2023-03-01T18:57:46.781730,2056324,917,1550,941,-1039,-569,-323,-34,204,-178
0,2023-03-01T18:57:46.786879,2056329,917,1550,941,-1039,-569,-323,-34,204,-178
0,2023-03-01T18:57:46.791938,2056334,920,1547,946,-1042,-576,-321,-34,204,-178
0,2023-03-01T18:57:46.797702,2056340,920,1547,946,-1042,-576,-321,-34,204,-178
0,2023-03-01T18:57:46.803241,2056345,920,1547,946,-1042,-576,-321,-34,204,-178
0,2023-03-01T18:57:46.808782,2056351,919,1548,942,-1049,-573,-318,-34,204,-178
0,2023-03-01T18:57:46.814635,2056356,919,1548,942,-1049,-573,-318,-34,204,-178
0,2023-03-01T18:57:46.820252,2056363,919,1548,942,-1049,-573,-318,-34,204,-178
0,2023-03-01T18:57:46.826556,2056369,919,1548,942,-1049,-573,-318,-34,204,-178
0,2023-03-01T18:57:46.831466,2056374,919,1551,947,-1041,-572,-321,-37,207,-189
0,2023-03-01T18:57:46.836714,2056379,919,1551,947,-1041,-572,-321,-37,207,-189
0,2023-03-01T18:57:46.841812,2056384,919,1551,947,-1041,-572,-321,-37,207,-189
0,2023-03-01T18:57:46.847974,2056389,919,1551,947,-1041,-572,-321,-37,207,-189
0,2023-03-01T18:57:46.852901,2056395,917,1548,948,-1037,-567,-319,-37,207,-189
0,2023-03-01T18:57:46.859085,2056401,917,1548,948,-1037,-567,-319,-37,207,-189
0,2023-03-01T18:57:46.863774,2056406,917,1548,948,-1037,-567,-319,-37,207,-189
0,2023-03-01T18:57:46.871112,2056413,920,1544,947,-1028,-566,-318,-37,207,-189
0,2023-03-01T18:57:46.877315,2056419,920,1544,947,-1028,-566,-318,-37,207,-189
0,2023-03-01T18:57:46.883097,2056425,920,1544,947,-1028,-566,-318,-37,207,-189
0,2023-03-01T18:57:46.888131,2056430,920,1544,947,-1028,-566,-318,-37,207,-189
0,2023-03-01T18:57:46.893226,2056435,921,1546,945,-1044,-574,-317,-37,207,-189
0,2023-03-01T18:57:46.898883,2056441,921,1546,945,-1044,-574,-317,-37,207,-189
0,2023-03-01T18:57:46.903527,2056445,921,1546,945,-1044,-574,-317,-37,207,-189
0,2023-03-01T18:57:46.908657,2056451,921,1546,945,-1044,-574,-317,-37,207,-189
0,2023-03-01T18:57:46.913571,2056456,921,1547,950,-1045,-579,-320,-37,207,-189
0,2023-03-01T18:57:46.919750,2056462,921,1547,950,-1045,-579,-320,-37,207,-189
0,2023-03-01T18:57:46.925218,2056467,921,1547,950,-1045,-579,-320,-37,207,-189
0,2023-03-01T18:57:46.930556,2056473,920,1545,943,-1037,-575,-314,-37,207,-189
0,2023-03-01T18:57:46.935171,2056477,920,1545,943,-1037,-575,-314,-37,207,-189
0,2023-03-01T18:57:46.940723,2056483,920,1545,943,-1037,-575,-314,-37,207,-189
0,2023-03-01T18:57:46.945531,2056487,920,1545,943,-1037,-575,-314,-37,207,-189
0,2023-03-01T18:57:46.950715,2056493,919,1547,945,-1038,-581,-320,-37,207,-189
0,2023-03-01T18:57:46.956876,2056499,919,1547,945,-1038,-581,-320,-37,207,-189
0,2023-03-01T18:57:46.962392,2056505,919,1547,945,-1038,-581,-320,-37,207,-189
0,2023-03-01T18:57:46.967579,2056510,919,1547,945,-1038,-581,-320,-37,207,-189
0,2023-03-01T18:57:46.972725,2056515,916,1547,949,-1039,-578,-313,-36,202,-188
0,2023-03-01T18:57:46.979005,2056521,916,1547,949,-1039,-578,-313,-36,202,-188
0,2023-03-01T18:57:46.983998,2056526,916,1547,949,-1039,-578,-313,-36,202,-188
0,2023-03-01T18:57:46.989059,2056530,916,1546,946,-1038,-578,-315,-36,202,-188
0,2023-03-01T18:57:46.994901,2056537,916,1546,946,-1038,-578,-315,-36,202,-188
0,2023-03-01T18:57:47.000452,2056543,916,1546,946,-1038,-578,-315,-36,202,-188
0,2023-03-01T18:57:47.005982,2056548,916,1546,946,-1038,-578,-315,-36,202,-188
0,2023-03-01T18:57:47.010776,2056553,922,1546,950,-1039,-579,-321,-36,202,-188
0,2023-03-01T18:57:47.016195,2056558,922,1546,950,-1039,-579,-321,-36,202,-188
0,2023-03-01T18:57:47.021575,2056563,922,1546,950,-1039,-579,-321,-36,202,-188
0,2023-03-01T18:57:47.027677,2056569,922,1546,950,-1039,-579,-321,-36,202,-188
0,2023-03-01T18:57:47.032270,2056574,917,1548,949,-1043,-576,-311,-36,202,-188
0,2023-03-01T18:57:47.038906,2056581,917,1548,949,-1043,-576,-311,-36,202,-188
0,2023-03-01T18:57:47.043695,2056586,917,1548,949,-1043,-576,-311,-36,202,-188
0,2023-03-01T18:57:47.048756,2056591,918,1544,944,-1034,-572,-316,-36,202,-188
0,2023-03-01T18:57:47.054472,2056596,918,1544,944,-1034,-572,-316,-36,202,-188
0,2023-03-01T18:57:47.061082,2056603,918,1544,944,-1034,-572,-316,-36,202,-188
0,2023-03-01T18:57:47.065775,2056608,918,1544,944,-1034,-572,-316,-36,202,-188
0,2023-03-01T18:57:47.070306,2056612,917,1547,948,-1031,-572,-314,-36,202,-188
0,2023-03-01T18:57:47.075727,2056617,917,1547,948,-1031,-572,-314,-36,202,-188
0,2023-03-01T18:57:47.081566,2056624,917,1547,948,-1031,-572,-314,-36,202,-188
0,2023-03-01T18:57:47.088400,2056631,917,1547,948,-1031,-572,-314,-36,202,-188
0,2023-03-01T18:57:47.093074,2056635,917,1551,949,-1034,-577,-318,-35,209,-183
0,2023-03-01T18:57:47.099152,2056641,917,1551,949,-1034,-577,-318,-35,209,-183
0,2023-03-01T18:57:47.104261,2056646,917,1551,949,-1034,-577,-318,-35,209,-183
0,2023-03-01T18:57:47.109168,2056651,916,1548,946,-1035,-576,-326,-35,209,-183
0,2023-03-01T18:57:47.114924,2056656,916,1548,946,-1035,-576,-326,-35,209,-183
0,2023-03-01T18:57:47.120530,2056663,916,1548,946,-1035,-576,-326,-35,209,-183
0,2023-03-01T18:57:47.125298,2056668,916,1548,946,-1035,-576,-326,-35,209,-183
0,2023-03-01T18:57:47.130941,2056672,918,1549,944,-1038,-582,-322,-35,209,-183
0,2023-03-01T18:57:47.136434,2056679,918,1549,944,-1038,-582,-322,-35,209,-183
0,2023-03-01T18:57:47.142271,2056684,918,1549,944,-1038,-582,-322,-35,209,-183
0,2023-03-01T18:57:47.147985,2056690,918,1549,944,-1038,-582,-322,-35,209,-183
0,2023-03-01T18:57:47.152754,2056695,921,1549,948,-1045,-579,-314,-35,209,-183
0,2023-03-01T18:57:47.158369,2056700,921,1549,948,-1045,-579,-314,-35,209,-183
0,2023-03-01T18:57:47.163313,2056706,921,1549,948,-1045,-579,-314,-35,209,-183
0,2023-03-01T18:57:47.168011,2056710,921,1549,948,-1045,-579,-314,-35,209,-183
0,2023-03-01T18:57:47.173129,2056715,917,1549,947,-1050,-576,-317,-35,209,-183
0,2023-03-01T18:57:47.179019,2056721,917,1549,947,-1050,-576,-317,-35,209,-183
0,2023-03-01T18:57:47.183864,2056726,917,1549,947,-1050,-576,-317,-35,209,-183
0,2023-03-01T18:57:47.188891,2056731,917,1549,947,-1050,-576,-317,-35,209,-183
0,2023-03-01T18:57:47.195042,2056736,918,1547,948,-1040,-567,-316,-35,209,-183
0,2023-03-01T18:57:47.205621,2056748,918,1547,948,-1040,-567,-316,-35,209,-183
0,2023-03-01T18:57:47.210745,2056753,914,1548,948,-1043,-573,-319,-36,210,-182
0,2023-03-01T18:57:47.216116,2056758,914,1548,948,-1043,-573,-319,-36,210,-182
0,2023-03-01T18:57:47.221838,2056764,914,1548,948,-1043,-573,-319,-36,210,-182
0,2023-03-01T18:57:47.226955,2056769,914,1548,948,-1043,-573,-319,-36,210,-182
0,2023-03-01T18:57:47.232054,2056774,920,1551,945,-1035,-574,-323,-36,210,-182
0,2023-03-01T18:57:47.237864,2056779,920,1551,945,-1035,-574,-323,-36,210,-182
0,2023-03-01T18:57:47.243431,2056785,920,1551,945,-1035,-574,-323,-36,210,-182
0,2023-03-01T18:57:47.248367,2056791,920,1551,945,-1035,-574,-323,-36,210,-182
0,2023-03-01T18:57:47.253523,2056796,916,1545,945,-1036,-568,-322,-36,210,-182
0,2023-03-01T18:57:47.259918,2056802,916,1545,945,-1036,-568,-322,-36,210,-182
0,2023-03-01T18:57:47.264914,2056807,916,1545,945,-1036,-568,-322,-36,210,-182
0,2023-03-01T18:57:47.270138,2056812,919,1544,943,-1024,-566,-323,-36,210,-182
0,2023-03-01T18:57:47.275827,2056818,919,1544,943,-1024,-566,-323,-36,210,-182
0,2023-03-01T18:57:47.281472,2056823,919,1544,943,-1024,-566,-323,-36,210,-182
0,2023-03-01T18:57:47.288118,2056829,919,1544,943,-1024,-566,-323,-36,210,-182
0,2023-03-01T18:57:47.293677,2056836,919,1547,949,-1032,-564,-316,-36,210,-182
0,2023-03-01T18:57:47.300262,2056843,919,1547,949,-1032,-564,-316,-36,210,-182
0,2023-03-01T18:57:47.306139,2056848,919,1547,949,-1032,-564,-316,-36,210,-182
0,2023-03-01T18:57:47.312566,2056854,919,1547,942,-1035,-571,-312,-36,210,-182
0,2023-03-01T18:57:47.318896,2056860,919,1547,942,-1035,-571,-312,-36,210,-182
0,2023-03-01T18:57:47.324518,2056866,919,1547,942,-1035,-571,-312,-36,210,-182
0,2023-03-01T18:57:47.329172,2056871,917,1547,947,-1034,-569,-313,-36,210,-182
0,2023-03-01T18:57:47.334733,2056877,917,1547,947,-1034,-569,-313,-36,210,-182
0,2023-03-01T18:57:47.340386,2056883,917,1547,947,-1034,-569,-313,-36,210,-182
0,2023-03-01T18:57:47.345236,2056887,917,1547,947,-1034,-569,-313,-36,210,-182
0,2023-03-01T18:57:47.350913,2056893,918,1550,947,-1035,-572,-317,-31,201,-177
0,2023-03-01T18:57:47.356910,2056899,918,1550,947,-1035,-572,-317,-31,201,-177
0,2023-03-01T18:57:47.362387,2056904,918,1550,947,-1035,-572,-317,-31,201,-177
0,2023-03-01T18:57:47.367594,2056909,918,1550,947,-1035,-572,-317,-31,201,-177
0,2023-03-01T18:57:47.372831,2056914,918,1550,947,-1035,-572,-317,-31,201,-177
0,2023-03-01T18:57:47.378420,2056921,918,1550,947,-1035,-572,-317,-31,201,-177
0,2023-03-01T18:57:47.383756,2056926,918,1550,947,-1035,-572,-317,-31,201,-177
0,2023-03-01T18:57:47.388889,2056931,918,1550,947,-1035,-572,-317,-31,201,-177
0,2023-03-01T18:57:47.394750,2056937,916,1547,945,-1031,-564,-325,-31,201,-177
0,2023-03-01T18:57:47.400848,2056943,916,1547,945,-1031,-564,-325,-31,201,-177
0,2023-03-01T18:57:47.406409,2056948,916,1547,945,-1031,-564,-325,-31,201,-177
0,2023-03-01T18:57:47.411207,2056953,915,1549,945,-1046,-571,-323,-31,201,-177
0,2023-03-01T18:57:47.417021,2056960,915,1549,945,-1046,-571,-323,-31,201,-177
0,2023-03-01T18:57:47.422995,2056965,915,1549,945,-1046,-571,-323,-31,201,-177
0,2023-03-01T18:57:47.427895,2056970,915,1549,945,-1046,-571,-323,-31,201,-177
0,2023-03-01T18:57:47.433272,2056976,920,1549,949,-1040,-575,-322,-31,201,-177
0,2023-03-01T18:57:47.438791,2056981,920,1549,949,-1040,-575,-322,-31,201,-177
0,2023-03-01T18:57:47.443840,2056986,920,1549,949,-1040,-575,-322,-31,201,-177
0,2023-03-01T18:57:47.448780,2056990,920,1549,949,-1040,-575,-322,-31,201,-177
0,2023-03-01T18:57:47.453888,2056996,921,1549,952,-1039,-574,-319,-31,201,-177
0,2023-03-01T18:57:47.460101,2057003,921,1549,952,-1039,-574,-319,-31,201,-177
0,2023-03-01T18:57:47.466002,2057008,921,1549,952,-1039,-574,-319,-31,201,-177
0,2023-03-01T18:57:47.470909,2057013,917,1547,953,-1036,-571,-319,-39,211,-181
0,2023-03-01T18:57:47.476261,2057019,917,1547,953,-1036,-571,-319,-39,211,-181
0,2023-03-01T18:57:47.482058,2057024,917,1547,953,-1036,-571,-319,-39,211,-181
0,2023-03-01T18:57:47.487126,2057029,917,1547,953,-1036,-571,-319,-39,211,-181
0,2023-03-01T18:57:47.492075,2057034,918,1549,949,-1039,-568,-317,-39,211,-181
0,2023-03-01T18:57:47.496687,2057038,918,1549,949,-1039,-568,-317,-39,211,-181
0,2023-03-01T18:57:47.502338,2057044,918,1549,949,-1039,-568,-317,-39,211,-181
0,2023-03-01T18:57:47.507973,2057050,918,1549,949,-1039,-568,-317,-39,211,-181
0,2023-03-01T18:57:47.513181,2057055,917,1548,946,-1031,-564,-322,-39,211,-181
0,2023-03-01T18:57:47.520067,2057062,917,1548,946,-1031,-564,-322,-39,211,-181
0,2023-03-01T18:57:47.525362,2057067,917,1548,946,-1031,-564,-322,-39,211,-181
0,2023-03-01T18:57:47.530783,2057073,918,1548,944,-1025,-576,-321,-39,211,-181
0,2023-03-01T18:57:47.536334,2057078,918,1548,944,-1025,-576,-321,-39,211,-181
0,2023-03-01T18:57:47.541814,2057084,918,1548,944,-1025,-576,-321,-39,211,-181
0,2023-03-01T18:57:47.546881,2057089,918,1548,944,-1025,-576,-321,-39,211,-181
0,2023-03-01T18:57:47.552018,2057094,918,1548,944,-1025,-576,-321,-39,211,-181
0,2023-03-01T18:57:47.556700,2057099,918,1548,944,-1025,-576,-321,-39,211,-181
0,2023-03-01T18:57:47.562423,2057104,918,1548,944,-1025,-576,-321,-39,211,-181
0,2023-03-01T18:57:47.567306,2057109,918,1548,944,-1025,-576,-321,-39,211,-181
0,2023-03-01T18:57:47.572419,2057114,919,1549,948,-1032,-566,-333,-39,211,-181
0,2023-03-01T18:57:47.579657,2057122,919,1549,948,-1032,-566,-333,-39,211,-181
0,2023-03-01T18:57:47.585278,2057127,919,1549,948,-1032,-566,-333,-39,211,-181
0,2023-03-01T18:57:47.591361,2057134,914,1548,943,-1034,-577,-323,-39,211,-181
0,2023-03-01T18:57:47.597153,2057140,914,1548,943,-1034,-577,-323,-39,211,-181
0,2023-03-01T18:57:47.602866,2057145,914,1548,943,-1034,-577,-323,-39,211,-181
0,2023-03-01T18:57:47.608117,2057151,914,1548,943,-1034,-577,-323,-39,211,-181
0,2023-03-01T18:57:47.612536,2057155,921,1549,947,-1036,-577,-321,-40,218,-184
0,2023-03-01T18:57:47.618518,2057160,921,1549,947,-1036,-577,-321,-40,218,-184
0,2023-03-01T18:57:47.623821,2057165,921,1549,947,-1036,-577,-321,-40,218,-184
0,2023-03-01T18:57:47.629974,2057172,923,1549,944,-1044,-579,-318,-40,218,-184
0,2023-03-01T18:57:47.635715,2057178,923,1549,944,-1044,-579,-318,-40,218,-184
0,2023-03-01T18:57:47.641265,2057184,923,1549,944,-1044,-579,-318,-40,218,-184
0,2023-03-01T18:57:47.646502,2057188,923,1549,944,-1044,-579,-318,-40,218,-184
0,2023-03-01T18:57:47.651814,2057194,917,1545,946,-1039,-568,-310,-40,218,-184
0,2023-03-01T18:57:47.657723,2057200,917,1545,946,-1039,-568,-310,-40,218,-184
0,2023-03-01T18:57:47.663853,2057205,917,1545,946,-1039,-568,-310,-40,218,-184
0,2023-03-01T18:57:47.668610,2057210,917,1545,946,-1039,-568,-310,-40,218,-184
0,2023-03-01T18:57:47.673800,2057216,919,1550,946,-1039,-573,-314,-40,218,-184
0,2023-03-01T18:57:47.679410,2057222,919,1550,946,-1039,-573,-314,-40,218,-184
0,2023-03-01T18:57:47.685164,2057227,919,1550,946,-1039,-573,-314,-40,218,-184
0,2023-03-01T18:57:47.690899,2057233,919,1550,951,-1037,-578,-321,-40,218,-184
0,2023-03-01T18:57:47.696904,2057239,919,1550,951,-1037,-578,-321,-40,218,-184
0,2023-03-01T18:57:47.702263,2057245,919,1550,951,-1037,-578,-321,-40,218,-184
0,2023-03-01T18:57:47.707712,2057250,919,1550,951,-1037,-578,-321,-40,218,-184
0,2023-03-01T18:57:47.713059,2057254,918,1549,947,-1037,-569,-318,-40,218,-184
0,2023-03-01T18:57:47.719210,2057261,918,1549,947,-1037,-569,-318,-40,218,-184
0,2023-03-01T18:57:47.724532,2057267,918,1549,947,-1037,-569,-318,-40,218,-184
0,2023-03-01T18:57:47.730101,2057272,916,1548,945,-1035,-572,-316,-34,206,-184
0,2023-03-01T18:57:47.735782,2057278,916,1548,945,-1035,-572,-316,-34,206,-184
0,2023-03-01T18:57:47.741416,2057283,916,1548,945,-1035,-572,-316,-34,206,-184
0,2023-03-01T18:57:47.748199,2057290,916,1548,945,-1035,-572,-316,-34,206,-184
0,2023-03-01T18:57:47.753175,2057295,918,1547,946,-1035,-569,-312,-34,206,-184
0,2023-03-01T18:57:47.759325,2057302,918,1547,946,-1035,-569,-312,-34,206,-184
0,2023-03-01T18:57:47.764805,2057307,918,1547,946,-1035,-569,-312,-34,206,-184
0,2023-03-01T18:57:47.769766,2057312,918,1549,952,-1036,-575,-321,-34,206,-184
0,2023-03-01T18:57:47.775179,2057318,918,1549,952,-1036,-575,-321,-34,206,-184
0,2023-03-01T18:57:47.781063,2057323,918,1549,952,-1036,-575,-321,-34,206,-184
0,2023-03-01T18:57:47.787046,2057329,918,1549,952,-1036,-575,-321,-34,206,-184
0,2023-03-01T18:57:47.792872,2057335,917,1552,944,-1036,-571,-326,-34,206,-184
0,2023-03-01T18:57:47.799255,2057341,917,1552,944,-1036,-571,-326,-34,206,-184
0,2023-03-01T18:57:47.804329,2057347,917,1552,944,-1036,-571,-326,-34,206,-184
0,2023-03-01T18:57:47.810110,2057352,916,1550,945,-1048,-579,-316,-34,206,-184
0,2023-03-01T18:57:47.816535,2057359,916,1550,945,-1048,-579,-316,-34,206,-184
0,2023-03-01T18:57:47.822914,2057365,916,1550,945,-1048,-579,-316,-34,206,-184
0,2023-03-01T18:57:47.827876,2057370,916,1550,945,-1048,-579,-316,-34,206,-184
0,2023-03-01T18:57:47.832983,2057375,916,1548,946,-1041,-581,-327,-34,206,-184
0,2023-03-01T18:57:47.839459,2057381,916,1548,946,-1041,-581,-327,-34,206,-184
0,2023-03-01T18:57:47.845210,2057387,916,1548,946,-1041,-581,-327,-34,206,-184
0,2023-03-01T18:57:47.850439,2057393,918,1546,947,-1038,-576,-317,-34,206,-184
0,2023-03-01T18:57:47.857512,2057399,918,1546,947,-1038,-576,-317,-34,206,-184
0,2023-03-01T18:57:47.863641,2057406,918,1546,947,-1038,-576,-317,-34,206,-184
0,2023-03-01T18:57:47.869489,2057411,918,1546,947,-1038,-576,-317,-34,206,-184
0,2023-03-01T18:57:47.874694,2057416,918,1547,949,-1044,-572,-326,-40,210,-182
0,2023-03-01T18:57:47.881199,2057423,918,1547,949,-1044,-572,-326,-40,210,-182
0,2023-03-01T18:57:47.886936,2057428,918,1547,949,-1044,-572,-326,-40,210,-182
0,2023-03-01T18:57:47.892356,2057434,917,1547,943,-1036,-570,-321,-40,210,-182
0,2023-03-01T18:57:47.899262,2057441,917,1547,943,-1036,-570,-321,-40,210,-182
0,2023-03-01T18:57:47.905757,2057448,917,1547,943,-1036,-570,-321,-40,210,-182
0,2023-03-01T18:57:47.911486,2057454,916,1548,940,-1038,-574,-320,-40,210,-182
0,2023-03-01T18:57:47.917138,2057459,916,1548,940,-1038,-574,-320,-40,210,-182
0,2023-03-01T18:57:47.922688,2057465,916,1548,940,-1038,-574,-320,-40,210,-182
0,2023-03-01T18:57:47.929361,2057472,916,1548,940,-1038,-574,-320,-40,210,-182
0,2023-03-01T18:57:47.934803,2057477,916,1548,947,-1039,-570,-323,-40,210,-182
0,2023-03-01T18:57:47.941198,2057484,916,1548,947,-1039,-570,-323,-40,210,-182
0,2023-03-01T18:57:47.946911,2057488,916,1548,947,-1039,-570,-323,-40,210,-182
0,2023-03-01T18:57:47.952018,2057494,919,1550,944,-1043,-574,-323,-40,210,-182
0,2023-03-01T18:57:47.958743,2057501,919,1550,944,-1043,-574,-323,-40,210,-182
0,2023-03-01T18:57:47.964989,2057506,919,1550,944,-1043,-574,-323,-40,210,-182
0,2023-03-01T18:57:47.969956,2057512,918,1552,947,-1042,-574,-319,-40,210,-182
0,2023-03-01T18:57:47.975479,2057518,918,1552,947,-1042,-574,-319,-40,210,-182
0,2023-03-01T18:57:47.981877,2057524,918,1552,947,-1042,-574,-319,-40,210,-182
0,2023-03-01T18:57:47.987969,2057530,918,1552,947,-1042,-574,-319,-40,210,-182
0,2023-03-01T18:57:47.993038,2057535,918,1548,944,-1041,-581,-319,-36,206,-186
0,2023-03-01T18:57:47.999004,2057541,918,1548,944,-1041,-581,-319,-36,206,-186
0,2023-03-01T18:57:48.004478,2057546,918,1548,944,-1041,-581,-319,-36,206,-186
0,2023-03-01T18:57:48.009177,2057551,918,1548,944,-1041,-581,-319,-36,206,-186
0,2023-03-01T18:57:48.014601,2057556,916,1549,950,-1041,-583,-331,-36,206,-186
0,2023-03-01T18:57:48.021326,2057563,916,1549,950,-1041,-583,-331,-36,206,-186
0,2023-03-01T18:57:48.026932,2057569,916,1549,950,-1041,-583,-331,-36,206,-186
0,2023-03-01T18:57:48.032100,2057574,918,1548,950,-1036,-576,-325,-36,206,-186
0,2023-03-01T18:57:48.037733,2057580,918,1548,950,-1036,-576,-325,-36,206,-186
0,2023-03-01T18:57:48.044050,2057586,918,1548,950,-1036,-576,-325,-36,206,-186
0,2023-03-01T18:57:48.049011,2057591,918,1548,950,-1036,-576,-325,-36,206,-186
0,2023-03-01T18:57:48.054080,2057596,918,1547,949,-1036,-571,-313,-36,206,-186
0,2023-03-01T18:57:48.060143,2057603,918,1547,949,-1036,-571,-313,-36,206,-186
0,2023-03-01T18:57:48.065141,2057608,918,1547,949,-1036,-571,-313,-36,206,-186
0,2023-03-01T18:57:48.071567,2057613,919,1547,945,-1034,-568,-311,-36,206,-186
0,2023-03-01T18:57:48.077780,2057620,919,1547,945,-1034,-568,-311,-36,206,-186
0,2023-03-01T18:57:48.083523,2057625,919,1547,945,-1034,-568,-311,-36,206,-186
0,2023-03-01T18:57:48.088637,2057630,919,1547,945,-1034,-568,-311,-36,206,-186
0,2023-03-01T18:57:48.093910,2057636,919,1550,939,-1034,-573,-320,-36,206,-186
0,2023-03-01T18:57:48.100241,2057643,919,1550,939,-1034,-573,-320,-36,206,-186
0,2023-03-01T18:57:48.105262,2057648,919,1550,939,-1034,-573,-320,-36,206,-186
0,2023-03-01T18:57:48.110218,2057653,915,1549,937,-1034,-576,-321,-30,208,-186
0,2023-03-01T18:57:48.115666,2057658,915,1549,937,-1034,-576,-321,-30,208,-186
0,2023-03-01T18:57:48.121259,2057663,915,1549,937,-1034,-576,-321,-30,208,-186
0,2023-03-01T18:57:48.126558,2057668,915,1549,937,-1034,-576,-321,-30,208,-186
0,2023-03-01T18:57:48.131690,2057673,914,1545,947,-1036,-571,-326,-30,208,-186
0,2023-03-01T18:57:48.137319,2057679,914,1545,947,-1036,-571,-326,-30,208,-186
0,2023-03-01T18:57:48.142704,2057684,914,1545,947,-1036,-571,-326,-30,208,-186
0,2023-03-01T18:57:48.148406,2057690,914,1545,947,-1036,-571,-326,-30,208,-186
0,2023-03-01T18:57:48.154459,2057696,918,1550,946,-1038,-572,-320,-30,208,-186
0,2023-03-01T18:57:48.160886,2057703,918,1550,946,-1038,-572,-320,-30,208,-186
0,2023-03-01T18:57:48.166825,2057709,918,1550,946,-1038,-572,-320,-30,208,-186
0,2023-03-01T18:57:48.172273,2057714,917,1549,952,-1034,-579,-322,-30,208,-186
0,2023-03-01T18:57:48.178928,2057720,917,1549,952,-1034,-579,-322,-30,208,-186
0,2023-03-01T18:57:48.185763,2057728,917,1549,952,-1034,-579,-322,-30,208,-186
0,2023-03-01T18:57:48.191678,2057734,917,1549,945,-1043,-576,-323,-30,208,-186
0,2023-03-01T18:57:48.197082,2057739,917,1549,945,-1043,-576,-323,-30,208,-186
0,2023-03-01T18:57:48.202875,2057745,917,1549,945,-1043,-576,-323,-30,208,-186
0,2023-03-01T18:57:48.209740,2057751,917,1549,945,-1043,-576,-323,-30,208,-186
0,2023-03-01T18:57:48.215183,2057757,919,1550,944,-1037,-573,-322,-30,208,-186
0,2023-03-01T18:57:48.221471,2057763,919,1550,944,-1037,-573,-322,-30,208,-186
0,2023-03-01T18:57:48.226540,2057768,919,1550,944,-1037,-573,-322,-30,208,-186
0,2023-03-01T18:57:48.231639,2057774,917,1550,940,-1041,-567,-319,-30,208,-186
0,2023-03-01T18:57:48.237972,2057779,917,1550,940,-1041,-567,-319,-30,208,-186
0,2023-03-01T18:57:48.243883,2057786,917,1550,940,-1041,-567,-319,-30,208,-186
0,2023-03-01T18:57:48.249589,2057792,917,1550,940,-1041,-567,-319,-30,208,-186
0,2023-03-01T18:57:48.254516,2057797,914,1547,947,-1036,-573,-317,-37,211,-181
0,2023-03-01T18:57:48.261425,2057802,914,1547,947,-1036,-573,-317,-37,211,-181
0,2023-03-01T18:57:48.267713,2057809,914,1547,947,-1036,-573,-317,-37,211,-181
0,2023-03-01T18:57:48.272813,2057815,915,1548,945,-1031,-575,-320,-37,211,-181
0,2023-03-01T18:57:48.279239,2057822,915,1548,945,-1031,-575,-320,-37,211,-181
0,2023-03-01T18:57:48.284179,2057827,915,1548,945,-1031,-575,-320,-37,211,-181
0,2023-03-01T18:57:48.289349,2057831,915,1548,945,-1031,-575,-320,-37,211,-181
0,2023-03-01T18:57:48.295022,2057837,921,1548,943,-1024,-575,-321,-37,211,-181
0,2023-03-01T18:57:48.301852,2057844,921,1548,943,-1024,-575,-321,-37,211,-181
0,2023-03-01T18:57:48.306132,2057848,921,1548,943,-1024,-575,-321,-37,211,-181
0,2023-03-01T18:57:48.311257,2057853,916,1549,948,-1030,-572,-321,-37,211,-181
0,2023-03-01T18:57:48.316793,2057859,916,1549,948,-1030,-572,-321,-37,211,-181
0,2023-03-01T18:57:48.322669,2057865,916,1549,948,-1030,-572,-321,-37,211,-181
0,2023-03-01T18:57:48.327883,2057870,916,1549,948,-1030,-572,-321,-37,211,-181
0,2023-03-01T18:57:48.333793,2057876,919,1548,946,-1036,-564,-320,-37,211,-181
0,2023-03-01T18:57:48.340058,2057882,919,1548,946,-1036,-564,-320,-37,211,-181
0,2023-03-01T18:57:48.344763,2057887,919,1548,946,-1036,-564,-320,-37,211,-181
0,2023-03-01T18:57:48.349917,2057891,919,1548,946,-1036,-564,-320,-37,211,-181
0,2023-03-01T18:57:48.355072,2057896,919,1547,953,-1033,-565,-318,-37,211,-181
0,2023-03-01T18:57:48.361358,2057904,919,1547,953,-1033,-565,-318,-37,211,-181
0,2023-03-01T18:57:48.366507,2057909,919,1547,953,-1033,-565,-318,-37,211,-181
0,2023-03-01T18:57:48.371514,2057914,919,1550,947,-1034,-570,-320,-32,210,-184
0,2023-03-01T18:57:48.377610,2057920,919,1550,947,-1034,-570,-320,-32,210,-184
0,2023-03-01T18:57:48.383608,2057925,919,1550,947,-1034,-570,-320,-32,210,-184
0,2023-03-01T18:57:48.389119,2057931,919,1550,947,-1034,-570,-320,-32,210,-184
0,2023-03-01T18:57:48.393921,2057936,915,1546,948,-1035,-568,-327,-32,210,-184
0,2023-03-01T18:57:48.400072,2057943,915,1546,948,-1035,-568,-327,-32,210,-184
0,2023-03-01T18:57:48.404902,2057948,915,1546,948,-1035,-568,-327,-32,210,-184
0,2023-03-01T18:57:48.409958,2057952,915,1546,948,-1035,-568,-327,-32,210,-184
0,2023-03-01T18:57:48.414991,2057957,919,1549,949,-1036,-575,-323,-32,210,-184
0,2023-03-01T18:57:48.421281,2057963,919,1549,949,-1036,-575,-323,-32,210,-184
0,2023-03-01T18:57:48.425773,2057968,919,1549,949,-1036,-575,-323,-32,210,-184
0,2023-03-01T18:57:48.430625,2057973,919,1548,942,-1037,-579,-313,-32,210,-184
0,2023-03-01T18:57:48.435818,2057978,919,1548,942,-1037,-579,-313,-32,210,-184
0,2023-03-01T18:57:48.441115,2057984,919,1548,942,-1037,-579,-313,-32,210,-184
0,2023-03-01T18:57:48.446580,2057989,919,1548,942,-1037,-579,-313,-32,210,-184
0,2023-03-01T18:57:48.451489,2057994,918,1546,948,-1031,-561,-321,-32,210,-184
0,2023-03-01T18:57:48.456481,2057999,918,1546,948,-1031,-561,-321,-32,210,-184
0,2023-03-01T18:57:48.462038,2058004,918,1546,948,-1031,-561,-321,-32,210,-184
0,2023-03-01T18:57:48.467708,2058010,918,1546,948,-1031,-561,-321,-32,210,-184
0,2023-03-01T18:57:48.472818,2058015,919,1547,948,-1030,-565,-315,-32,210,-184
0,2023-03-01T18:57:48.478381,2058020,919,1547,948,-1030,-565,-315,-32,210,-184
0,2023-03-01T18:57:48.483166,2058025,919,1547,948,-1030,-565,-315,-32,210,-184
0,2023-03-01T18:57:48.488117,2058031,919,1547,948,-1030,-565,-315,-32,210,-184
0,2023-03-01T18:57:48.494119,2058036,918,1547,947,-1036,-570,-317,-32,210,-184
0,2023-03-01T18:57:48.500475,2058043,918,1547,947,-1036,-570,-317,-32,210,-184
0,2023-03-01T18:57:48.505314,2058048,918,1547,947,-1036,-570,-317,-32,210,-184
0,2023-03-01T18:57:48.512553,2058055,920,1546,952,-1037,-568,-321,-36,214,-184
0,2023-03-01T18:57:48.518324,2058060,920,1546,952,-1037,-568,-321,-36,214,-184
0,2023-03-01T18:57:48.523848,2058065,920,1546,952,-1037,-568,-321,-36,214,-184
0,2023-03-01T18:57:48.529768,2058072,920,1546,952,-1037,-568,-321,-36,214,-184
0,2023-03-01T18:57:48.534579,2058077,917,1550,942,-1031,-567,-324,-36,214,-184
0,2023-03-01T18:57:48.540326,2058083,917,1550,942,-1031,-567,-324,-36,214,-184
0,2023-03-01T18:57:48.545402,2058088,917,1550,942,-1031,-567,-324,-36,214,-184
0,2023-03-01T18:57:48.550960,2058093,925,1548,952,-1044,-569,-319,-36,214,-184
0,2023-03-01T18:57:48.557166,2058099,925,1548,952,-1044,-569,-319,-36,214,-184
0,2023-03-01T18:57:48.562825,2058105,925,1548,952,-1044,-569,-319,-36,214,-184
0,2023-03-01T18:57:48.568036,2058110,925,1548,952,-1044,-569,-319,-36,214,-184
0,2023-03-01T18:57:48.573078,2058115,918,1547,944,-1039,-571,-325,-36,214,-184
0,2023-03-01T18:57:48.579388,2058122,918,1547,944,-1039,-571,-325,-36,214,-184
0,2023-03-01T18:57:48.584865,2058127,918,1547,944,-1039,-571,-325,-36,214,-184
0,2023-03-01T18:57:48.589815,2058132,918,1547,944,-1039,-571,-325,-36,214,-184
0,2023-03-01T18:57:48.594637,2058137,919,1549,948,-1036,-567,-322,-36,214,-184
0,2023-03-01T18:57:48.600385,2058143,919,1549,948,-1036,-567,-322,-36,214,-184
0,2023-03-01T18:57:48.605496,2058147,919,1549,948,-1036,-567,-322,-36,214,-184
0,2023-03-01T18:57:48.610993,2058153,916,1549,942,-1034,-571,-327,-36,214,-184
0,2023-03-01T18:57:48.616631,2058159,916,1549,942,-1034,-571,-327,-36,214,-184
0,2023-03-01T18:57:48.621481,2058164,916,1549,942,-1034,-571,-327,-36,214,-184
0,2023-03-01T18:57:48.626192,2058169,916,1549,942,-1034,-571,-327,-36,214,-184
0,2023-03-01T18:57:48.630845,2058173,919,1550,948,-1036,-576,-321,-40,208,-188
0,2023-03-01T18:57:48.636294,2058178,919,1550,948,-1036,-576,-321,-40,208,-188
0,2023-03-01T18:57:48.640878,2058183,919,1550,948,-1036,-576,-321,-40,208,-188
0,2023-03-01T18:57:48.646263,2058188,919,1550,948,-1036,-576,-321,-40,208,-188
0,2023-03-01T18:57:48.651481,2058193,918,1546,954,-1038,-575,-321,-40,208,-188
0,2023-03-01T18:57:48.656767,2058200,918,1546,954,-1038,-575,-321,-40,208,-188
0,2023-03-01T18:57:48.662420,2058205,918,1546,954,-1038,-575,-321,-40,208,-188
0,2023-03-01T18:57:48.667485,2058210,918,1546,954,-1038,-575,-321,-40,208,-188
0,2023-03-01T18:57:48.672333,2058215,922,1549,947,-1038,-576,-324,-40,208,-188
0,2023-03-01T18:57:48.678542,2058220,922,1549,947,-1038,-576,-324,-40,208,-188
0,2023-03-01T18:57:48.684745,2058227,922,1549,947,-1038,-576,-324,-40,208,-188
0,2023-03-01T18:57:48.690403,2058232,922,1549,947,-1038,-576,-324,-40,208,-188
0,2023-03-01T18:57:48.695937,2058237,919,1547,947,-1038,-571,-326,-40,208,-188
0,2023-03-01T18:57:48.703569,2058246,919,1547,947,-1038,-571,-326,-40,208,-188
0,2023-03-01T18:57:48.709342,2058252,919,1547,947,-1038,-571,-326,-40,208,-188
0,2023-03-01T18:57:48.714423,2058257,920,1546,942,-1038,-564,-318,-40,208,-188
0,2023-03-01T18:57:48.720481,2058263,920,1546,942,-1038,-564,-318,-40,208,-188
0,2023-03-01T18:57:48.725712,2058268,920,1546,942,-1038,-564,-318,-40,208,-188
0,2023-03-01T18:57:48.731294,2058273,916,1550,942,-1043,-566,-320,-40,208,-188
0,2023-03-01T18:57:48.736535,2058278,916,1550,942,-1043,-566,-320,-40,208,-188
0,2023-03-01T18:57:48.741801,2058285,916,1550,942,-1043,-566,-320,-40,208,-188
0,2023-03-01T18:57:48.746593,2058289,916,1550,942,-1043,-566,-320,-40,208,-188
0,2023-03-01T18:57:48.751474,2058294,920,1548,946,-1034,-565,-322,-40,208,-188
0,2023-03-01T18:57:48.757275,2058299,920,1548,946,-1034,-565,-322,-40,208,-188
0,2023-03-01T18:57:48.762788,2058305,920,1548,946,-1034,-565,-322,-40,208,-188
0,2023-03-01T18:57:48.768578,2058311,920,1548,946,-1034,-565,-322,-40,208,-188
0,2023-03-01T18:57:48.773792,2058316,919,1550,951,-1040,-572,-321,-40,212,-186
0,2023-03-01T18:57:48.779751,2058321,919,1550,951,-1040,-572,-321,-40,212,-186
0,2023-03-01T18:57:48.785376,2058328,919,1550,951,-1040,-572,-321,-40,212,-186
0,2023-03-01T18:57:48.791432,2058334,923,1547,948,-1036,-568,-328,-40,212,-186
0,2023-03-01T18:57:48.797319,2058340,923,1547,948,-1036,-568,-328,-40,212,-186
0,2023-03-01T18:57:48.802402,2058345,923,1547,948,-1036,-568,-328,-40,212,-186
0,2023-03-01T18:57:48.808805,2058351,923,1547,948,-1036,-568,-328,-40,212,-186
0,2023-03-01T18:57:48.814224,2058356,923,1547,948,-1036,-568,-328,-40,212,-186
0,2023-03-01T18:57:48.819344,2058361,923,1547,948,-1036,-568,-328,-40,212,-186
0,2023-03-01T18:57:48.824346,2058366,923,1547,948,-1036,-568,-328,-40,212,-186
0,2023-03-01T18:57:48.830434,2058373,923,1547,948,-1036,-568,-328,-40,212,-186
0,2023-03-01T18:57:48.838827,2058381,918,1547,948,-1036,-576,-318,-40,212,-186
0,2023-03-01T18:57:48.845355,2058387,918,1547,948,-1036,-576,-318,-40,212,-186
0,2023-03-01T18:57:48.851054,2058393,918,1547,948,-1036,-576,-318,-40,212,-186
0,2023-03-01T18:57:48.856117,2058398,920,1549,942,-1032,-570,-312,-40,212,-186
0,2023-03-01T18:57:48.862406,2058404,920,1549,942,-1032,-570,-312,-40,212,-186
0,2023-03-01T18:57:48.868365,2058411,920,1549,942,-1032,-570,-312,-40,212,-186
0,2023-03-01T18:57:48.873207,2058416,919,1547,948,-1038,-578,-318,-40,212,-186
0,2023-03-01T18:57:48.879386,2058422,919,1547,948,-1038,-578,-318,-40,212,-186
0,2023-03-01T18:57:48.884375,2058426,919,1547,948,-1038,-578,-318,-40,212,-186
0,2023-03-01T18:57:48.889718,2058432,919,1547,948,-1038,-578,-318,-40,212,-186
0,2023-03-01T18:57:48.894649,2058437,921,1550,951,-1033,-577,-312,-33,211,-185
0,2023-03-01T18:57:48.900859,2058443,921,1550,951,-1033,-577,-312,-33,211,-185
0,2023-03-01T18:57:48.905877,2058448,921,1550,951,-1033,-577,-312,-33,211,-185
0,2023-03-01T18:57:48.910764,2058452,921,1550,951,-1033,-577,-312,-33,211,-185
0,2023-03-01T18:57:48.915581,2058458,919,1548,947,-1026,-575,-325,-33,211,-185
0,2023-03-01T18:57:48.921932,2058464,919,1548,947,-1026,-575,-325,-33,211,-185
0,2023-03-01T18:57:48.926976,2058469,919,1548,947,-1026,-575,-325,-33,211,-185
0,2023-03-01T18:57:48.932020,2058474,917,1548,945,-1036,-571,-319,-33,211,-185
0,2023-03-01T18:57:48.937844,2058480,917,1548,945,-1036,-571,-319,-33,211,-185
0,2023-03-01T18:57:48.943197,2058485,917,1548,945,-1036,-571,-319,-33,211,-185
0,2023-03-01T18:57:48.948383,2058490,917,1548,945,-1036,-571,-319,-33,211,-185
0,2023-03-01T18:57:48.953329,2058496,919,1547,942,-1031,-569,-317,-33,211,-185
0,2023-03-01T18:57:48.959838,2058502,919,1547,942,-1031,-569,-317,-33,211,-185
0,2023-03-01T18:57:48.964731,2058507,919,1547,942,-1031,-569,-317,-33,211,-185
0,2023-03-01T18:57:48.970227,2058513,919,1547,942,-1031,-569,-317,-33,211,-185
0,2023-03-01T18:57:48.975327,2058518,919,1548,944,-1043,-570,-322,-33,211,-185
0,2023-03-01T18:57:48.981187,2058523,919,1548,944,-1043,-570,-322,-33,211,-185
0,2023-03-01T18:57:48.986111,2058528,919,1548,944,-1043,-570,-322,-33,211,-185
0,2023-03-01T18:57:48.991478,2058533,918,1551,944,-1033,-564,-321,-33,211,-185
0,2023-03-01T18:57:48.996801,2058540,918,1551,944,-1033,-564,-321,-33,211,-185
0,2023-03-01T18:57:49.002005,2058545,918,1551,944,-1033,-564,-321,-33,211,-185
0,2023-03-01T18:57:49.008453,2058550,918,1551,944,-1033,-564,-321,-33,211,-185
0,2023-03-01T18:57:49.013583,2058556,918,1551,941,-1035,-567,-324,-32,208,-182
0,2023-03-01T18:57:49.020010,2058562,918,1551,941,-1035,-567,-324,-32,208,-182
0,2023-03-01T18:57:49.024898,2058567,918,1551,941,-1035,-567,-324,-32,208,-182
0,2023-03-01T18:57:49.030080,2058572,918,1551,941,-1035,-567,-324,-32,208,-182
0,2023-03-01T18:57:49.035346,2058577,916,1550,951,-1040,-570,-319,-32,208,-182
0,2023-03-01T18:57:49.041954,2058584,916,1550,951,-1040,-570,-319,-32,208,-182
0,2023-03-01T18:57:49.048520,2058591,916,1550,951,-1040,-570,-319,-32,208,-182
0,2023-03-01T18:57:49.054008,2058596,918,1548,946,-1035,-572,-314,-32,208,-182
0,2023-03-01T18:57:49.061003,2058603,918,1548,946,-1035,-572,-314,-32,208,-182
0,2023-03-01T18:57:49.066315,2058608,918,1548,946,-1035,-572,-314,-32,208,-182
0,2023-03-01T18:57:49.071632,2058613,915,1547,943,-1035,-568,-312,-32,208,-182
0,2023-03-01T18:57:49.078011,2058620,915,1547,943,-1035,-568,-312,-32,208,-182
0,2023-03-01T18:57:49.083806,2058626,915,1547,943,-1035,-568,-312,-32,208,-182
0,2023-03-01T18:57:49.090095,2058632,915,1547,943,-1035,-568,-312,-32,208,-182
0,2023-03-01T18:57:49.095142,2058637,917,1548,944,-1041,-571,-325,-32,208,-182
0,2023-03-01T18:57:49.101821,2058644,917,1548,944,-1041,-571,-325,-32,208,-182
0,2023-03-01T18:57:49.108133,2058650,917,1548,944,-1041,-571,-325,-32,208,-182
0,2023-03-01T18:57:49.113869,2058655,917,1548,944,-1041,-571,-325,-32,208,-182
0,2023-03-01T18:57:49.120205,2058662,917,1548,944,-1041,-571,-325,-32,208,-182
0,2023-03-01T18:57:49.125314,2058668,917,1548,944,-1041,-571,-325,-32,208,-182
0,2023-03-01T18:57:49.131377,2058674,916,1546,945,-1043,-575,-320,-32,208,-182
0,2023-03-01T18:57:49.136995,2058679,916,1546,945,-1043,-575,-320,-32,208,-182
0,2023-03-01T18:57:49.143009,2058685,916,1546,945,-1043,-575,-320,-32,208,-182
0,2023-03-01T18:57:49.148067,2058690,916,1546,945,-1043,-575,-320,-32,208,-182
0,2023-03-01T18:57:49.153682,2058695,920,1550,950,-1031,-570,-315,-35,211,-181
0,2023-03-01T18:57:49.160109,2058702,920,1550,950,-1031,-570,-315,-35,211,-181
0,2023-03-01T18:57:49.166472,2058708,920,1550,950,-1031,-570,-315,-35,211,-181
0,2023-03-01T18:57:49.172408,2058715,920,1546,946,-1037,-578,-320,-35,211,-181
0,2023-03-01T18:57:49.178222,2058720,920,1546,946,-1037,-578,-320,-35,211,-181
0,2023-03-01T18:57:49.184204,2058726,920,1546,946,-1037,-578,-320,-35,211,-181
0,2023-03-01T18:57:49.189924,2058732,920,1546,946,-1037,-578,-320,-35,211,-181
0,2023-03-01T18:57:49.194914,2058737,920,1548,945,-1043,-577,-316,-35,211,-181
0,2023-03-01T18:57:49.201025,2058743,920,1548,945,-1043,-577,-316,-35,211,-181
0,2023-03-01T18:57:49.205915,2058748,920,1548,945,-1043,-577,-316,-35,211,-181
0,2023-03-01T18:57:49.210995,2058753,920,1548,945,-1043,-577,-316,-35,211,-181
0,2023-03-01T18:57:49.216282,2058758,919,1548,945,-1031,-578,-314,-35,211,-181
0,2023-03-01T18:57:49.222499,2058765,919,1548,945,-1031,-578,-314,-35,211,-181
0,2023-03-01T18:57:49.228120,2058770,919,1548,945,-1031,-578,-314,-35,211,-181
0,2023-03-01T18:57:49.233025,2058775,919,1549,945,-1038,-574,-321,-35,211,-181
0,2023-03-01T18:57:49.239567,2058781,919,1549,945,-1038,-574,-321,-35,211,-181
0,2023-03-01T18:57:49.244609,2058786,919,1549,945,-1038,-574,-321,-35,211,-181
0,2023-03-01T18:57:49.249382,2058791,919,1549,945,-1038,-574,-321,-35,211,-181
0,2023-03-01T18:57:49.254417,2058797,915,1545,947,-1036,-570,-315,-35,211,-181
0,2023-03-01T18:57:49.261677,2058804,915,1545,947,-1036,-570,-315,-35,211,-181
0,2023-03-01T18:57:49.266772,2058809,915,1545,947,-1036,-570,-315,-35,211,-181
0,2023-03-01T18:57:49.272241,2058814,917,1549,948,-1030,-568,-321,-43,213,-187
0,2023-03-01T18:57:49.278308,2058821,917,1549,948,-1030,-568,-321,-43,213,-187
0,2023-03-01T18:57:49.284493,2058826,917,1549,948,-1030,-568,-321,-43,213,-187
0,2023-03-01T18:57:49.289836,2058831,917,1549,948,-1030,-568,-321,-43,213,-187
0,2023-03-01T18:57:49.295116,2058838,917,1549,947,-1040,-574,-325,-43,213,-187
0,2023-03-01T18:57:49.301243,2058844,917,1549,947,-1040,-574,-325,-43,213,-187
0,2023-03-01T18:57:49.306677,2058849,917,1549,947,-1040,-574,-325,-43,213,-187
0,2023-03-01T18:57:49.312639,2058855,916,1550,943,-1033,-573,-320,-43,213,-187
0,2023-03-01T18:57:49.318385,2058860,916,1550,943,-1033,-573,-320,-43,213,-187
0,2023-03-01T18:57:49.324085,2058866,916,1550,943,-1033,-573,-320,-43,213,-187
0,2023-03-01T18:57:49.330381,2058872,916,1550,943,-1033,-573,-320,-43,213,-187
0,2023-03-01T18:57:49.335790,2058877,919,1549,949,-1029,-572,-320,-43,213,-187
0,2023-03-01T18:57:49.342286,2058885,919,1549,949,-1029,-572,-320,-43,213,-187
0,2023-03-01T18:57:49.348096,2058890,919,1549,949,-1029,-572,-320,-43,213,-187
0,2023-03-01T18:57:49.354010,2058896,915,1545,949,-1025,-566,-308,-43,213,-187
0,2023-03-01T18:57:49.360280,2058902,915,1545,949,-1025,-566,-308,-43,213,-187
0,2023-03-01T18:57:49.365846,2058908,915,1545,949,-1025,-566,-308,-43,213,-187
0,2023-03-01T18:57:49.372131,2058914,920,1547,943,-1035,-569,-321,-43,213,-187
0,2023-03-01T18:57:49.377966,2058920,920,1547,943,-1035,-569,-321,-43,213,-187
0,2023-03-01T18:57:49.383631,2058926,920,1547,943,-1035,-569,-321,-43,213,-187
0,2023-03-01T18:57:49.389029,2058931,920,1547,943,-1035,-569,-321,-43,213,-187
0,2023-03-01T18:57:49.393944,2058936,918,1548,947,-1034,-566,-311,-43,213,-187
0,2023-03-01T18:57:49.400048,2058942,918,1548,947,-1034,-566,-311,-43,213,-187
0,2023-03-01T18:57:49.405929,2058948,918,1548,947,-1034,-566,-311,-43,213,-187
0,2023-03-01T18:57:49.411551,2058954,919,1550,948,-1032,-558,-316,-43,213,-187
0,2023-03-01T18:57:49.417511,2058959,919,1550,948,-1032,-558,-316,-37,211,-185
0,2023-03-01T18:57:49.423290,2058966,919,1550,948,-1032,-558,-316,-37,211,-185
0,2023-03-01T18:57:49.428543,2058971,919,1550,948,-1032,-558,-316,-37,211,-185
0,2023-03-01T18:57:49.433852,2058976,917,1549,948,-1036,-567,-319,-37,211,-185
0,2023-03-01T18:57:49.439924,2058982,917,1549,948,-1036,-567,-319,-37,211,-185
0,2023-03-01T18:57:49.445272,2058988,917,1549,948,-1036,-567,-319,-37,211,-185
0,2023-03-01T18:57:49.450856,2058993,917,1549,948,-1036,-567,-319,-37,211,-185
0,2023-03-01T18:57:49.455587,2058998,918,1549,938,-1039,-578,-316,-37,211,-185
0,2023-03-01T18:57:49.463305,2059005,918,1549,938,-1039,-578,-316,-37,211,-185
0,2023-03-01T18:57:49.468092,2059011,918,1549,938,-1039,-578,-316,-37,211,-185
0,2023-03-01T18:57:49.473261,2059016,914,1550,946,-1035,-575,-325,-37,211,-185
0,2023-03-01T18:57:49.479327,2059022,914,1550,946,-1035,-575,-325,-37,211,-185
0,2023-03-01T18:57:49.483810,2059026,914,1550,946,-1035,-575,-325,-37,211,-185
0,2023-03-01T18:57:49.489090,2059031,914,1550,946,-1035,-575,-325,-37,211,-185
0,2023-03-01T18:57:49.494786,2059036,916,1547,949,-1035,-569,-325,-37,211,-185
0,2023-03-01T18:57:49.501772,2059044,916,1547,949,-1035,-569,-325,-37,211,-185
0,2023-03-01T18:57:49.506941,2059049,916,1547,949,-1035,-569,-325,-37,211,-185
0,2023-03-01T18:57:49.511804,2059054,918,1547,948,-1038,-569,-311,-37,211,-185
0,2023-03-01T18:57:49.518014,2059060,918,1547,948,-1038,-569,-311,-37,211,-185
0,2023-03-01T18:57:49.523705,2059066,918,1547,948,-1038,-569,-311,-37,211,-185
0,2023-03-01T18:57:49.529220,2059071,918,1547,948,-1038,-569,-311,-37,211,-185
0,2023-03-01T18:57:49.534385,2059076,916,1549,947,-1032,-574,-313,-38,210,-184
0,2023-03-01T18:57:49.540039,2059082,916,1549,947,-1032,-574,-313,-38,210,-184
0,2023-03-01T18:57:49.544848,2059087,916,1549,947,-1032,-574,-313,-38,210,-184
0,2023-03-01T18:57:49.549993,2059091,916,1549,947,-1032,-574,-313,-38,210,-184
0,2023-03-01T18:57:49.554897,2059098,920,1549,941,-1035,-569,-321,-38,210,-184
0,2023-03-01T18:57:49.560508,2059103,920,1549,941,-1035,-569,-321,-38,210,-184
0,2023-03-01T18:57:49.565319,2059108,920,1549,941,-1035,-569,-321,-38,210,-184
0,2023-03-01T18:57:49.570429,2059113,920,1549,941,-1035,-569,-321,-38,210,-184
0,2023-03-01T18:57:49.575775,2059118,916,1548,952,-1037,-574,-320,-38,210,-184
0,2023-03-01T18:57:49.581396,2059123,916,1548,952,-1037,-574,-320,-38,210,-184
0,2023-03-01T18:57:49.586901,2059128,916,1548,952,-1037,-574,-320,-38,210,-184
0,2023-03-01T18:57:49.592553,2059134,920,1548,947,-1037,-576,-316,-38,210,-184
0,2023-03-01T18:57:49.598622,2059141,920,1548,947,-1037,-576,-316,-38,210,-184
0,2023-03-01T18:57:49.606385,2059149,920,1548,947,-1037,-576,-316,-38,210,-184
0,2023-03-01T18:57:49.611206,2059154,920,1548,947,-1037,-576,-316,-38,210,-184
0,2023-03-01T18:57:49.616288,2059159,916,1546,947,-1039,-573,-312,-38,210,-184
0,2023-03-01T18:57:49.622175,2059164,916,1546,947,-1039,-573,-312,-38,210,-184
0,2023-03-01T18:57:49.628592,2059170,916,1546,947,-1039,-573,-312,-38,210,-184
0,2023-03-01T18:57:49.633979,2059176,919,1547,949,-1035,-570,-316,-38,210,-184
0,2023-03-01T18:57:49.639873,2059183,919,1547,949,-1035,-570,-316,-38,210,-184
0,2023-03-01T18:57:49.644807,2059187,919,1547,949,-1035,-570,-316,-38,210,-184
0,2023-03-01T18:57:49.649895,2059192,919,1547,949,-1035,-570,-316,-38,210,-184
0,2023-03-01T18:57:49.655714,2059197,917,1551,944,-1036,-578,-313,-36,204,-180
0,2023-03-01T18:57:49.662052,2059204,917,1551,944,-1036,-578,-313,-36,204,-180
0,2023-03-01T18:57:49.666909,2059209,917,1551,944,-1036,-578,-313,-36,204,-180
0,2023-03-01T18:57:49.671517,2059213,917,1551,944,-1036,-578,-313,-36,204,-180
0,2023-03-01T18:57:49.676079,2059218,917,1546,944,-1041,-571,-308,-36,204,-180
0,2023-03-01T18:57:49.682068,2059225,917,1546,944,-1041,-571,-308,-36,204,-180
0,2023-03-01T18:57:49.686971,2059229,917,1546,944,-1041,-571,-308,-36,204,-180
0,2023-03-01T18:57:49.691989,2059235,918,1546,951,-1039,-572,-311,-36,204,-180
0,2023-03-01T18:57:49.697516,2059240,918,1546,951,-1039,-572,-311,-36,204,-180
0,2023-03-01T18:57:49.702924,2059245,918,1546,951,-1039,-572,-311,-36,204,-180
0,2023-03-01T18:57:49.709463,2059251,918,1546,951,-1039,-572,-311,-36,204,-180
0,2023-03-01T18:57:49.716159,2059258,916,1548,945,-1037,-572,-311,-36,204,-180
0,2023-03-01T18:57:49.723055,2059266,916,1548,945,-1037,-572,-311,-36,204,-180
0,2023-03-01T18:57:49.728426,2059271,916,1548,945,-1037,-572,-311,-36,204,-180
0,2023-03-01T18:57:49.733263,2059276,916,1548,945,-1037,-572,-311,-36,204,-180
0,2023-03-01T18:57:49.739165,2059281,916,1548,945,-1037,-572,-311,-36,204,-180
0,2023-03-01T18:57:49.744251,2059286,916,1548,945,-1037,-572,-311,-36,204,-180
0,2023-03-01T18:57:49.749622,2059292,916,1548,945,-1037,-572,-311,-36,204,-180
0,2023-03-01T18:57:49.754251,2059296,920,1551,941,-1034,-573,-316,-36,204,-180
0,2023-03-01T18:57:49.759857,2059302,920,1551,941,-1034,-573,-316,-36,204,-180
0,2023-03-01T18:57:49.764601,2059307,920,1551,941,-1034,-573,-316,-36,204,-180
0,2023-03-01T18:57:49.769524,2059312,920,1551,941,-1034,-573,-316,-36,204,-180
0,2023-03-01T18:57:49.774568,2059317,918,1546,948,-1031,-576,-319,-36,204,-180
0,2023-03-01T18:57:49.780979,2059323,918,1546,948,-1031,-576,-319,-36,204,-180
0,2023-03-01T18:57:49.786236,2059328,918,1546,948,-1031,-576,-319,-36,204,-180
0,2023-03-01T18:57:49.791568,2059334,918,1546,948,-1031,-576,-319,-36,204,-180
0,2023-03-01T18:57:49.796535,2059338,919,1550,948,-1032,-572,-321,-41,211,-191
0,2023-03-01T18:57:49.802879,2059345,919,1550,948,-1032,-572,-321,-41,211,-191
0,2023-03-01T18:57:49.808808,2059352,919,1550,948,-1032,-572,-321,-41,211,-191
0,2023-03-01T18:57:49.813978,2059357,921,1548,947,-1031,-573,-317,-41,211,-191
0,2023-03-01T18:57:49.820017,2059362,921,1548,947,-1031,-573,-317,-41,211,-191
0,2023-03-01T18:57:49.825563,2059367,921,1548,947,-1031,-573,-317,-41,211,-191
0,2023-03-01T18:57:49.833865,2059375,917,1550,948,-1040,-577,-328,-41,211,-191
0,2023-03-01T18:57:49.840226,2059382,917,1550,948,-1040,-577,-328,-41,211,-191
0,2023-03-01T18:57:49.845505,2059387,917,1550,948,-1040,-577,-328,-41,211,-191
0,2023-03-01T18:57:49.851534,2059394,917,1550,948,-1040,-577,-328,-41,211,-191
0,2023-03-01T18:57:49.856624,2059399,920,1549,945,-1032,-573,-314,-41,211,-191
0,2023-03-01T18:57:49.863119,2059405,920,1549,945,-1032,-573,-314,-41,211,-191
0,2023-03-01T18:57:49.868551,2059411,920,1549,945,-1032,-573,-314,-41,211,-191
0,2023-03-01T18:57:49.873398,2059415,918,1544,942,-1039,-574,-312,-41,211,-191
0,2023-03-01T18:57:49.879863,2059422,918,1544,942,-1039,-574,-312,-41,211,-191
0,2023-03-01T18:57:49.885047,2059427,918,1544,942,-1039,-574,-312,-41,211,-191
0,2023-03-01T18:57:49.891112,2059433,918,1544,942,-1039,-574,-312,-41,211,-191
0,2023-03-01T18:57:49.896152,2059439,917,1545,946,-1045,-573,-319,-41,211,-191
0,2023-03-01T18:57:49.901770,2059444,917,1545,946,-1045,-573,-319,-41,211,-191
0,2023-03-01T18:57:49.906746,2059449,917,1545,946,-1045,-573,-319,-41,211,-191
0,2023-03-01T18:57:49.912320,2059454,917,1545,946,-1045,-573,-319,-41,211,-191
0,2023-03-01T18:57:49.918543,2059460,918,1547,947,-1038,-574,-325,-32,206,-184
0,2023-03-01T18:57:49.924771,2059467,918,1547,947,-1038,-574,-325,-32,206,-184
0,2023-03-01T18:57:49.930654,2059472,918,1547,947,-1038,-574,-325,-32,206,-184
0,2023-03-01T18:57:49.935875,2059478,918,1549,949,-1040,-576,-329,-32,206,-184
0,2023-03-01T18:57:49.942765,2059485,918,1549,949,-1040,-576,-329,-32,206,-184
0,2023-03-01T18:57:49.948509,2059491,918,1549,949,-1040,-576,-329,-32,206,-184
0,2023-03-01T18:57:49.953429,2059496,919,1546,949,-1032,-574,-328,-32,206,-184
0,2023-03-01T18:57:49.959532,2059502,919,1546,949,-1032,-574,-328,-32,206,-184
0,2023-03-01T18:57:49.964244,2059506,919,1546,949,-1032,-574,-328,-32,206,-184
0,2023-03-01T18:57:49.969507,2059511,919,1546,949,-1032,-574,-328,-32,206,-184
0,2023-03-01T18:57:49.974673,2059516,919,1546,944,-1036,-574,-321,-32,206,-184
0,2023-03-01T18:57:49.980964,2059524,919,1546,944,-1036,-574,-321,-32,206,-184
0,2023-03-01T18:57:49.985744,2059528,919,1546,944,-1036,-574,-321,-32,206,-184
0,2023-03-01T18:57:49.990835,2059533,919,1546,944,-1036,-574,-321,-32,206,-184
0,2023-03-01T18:57:49.996374,2059539,917,1548,948,-1035,-578,-316,-32,206,-184
0,2023-03-01T18:57:50.003023,2059545,917,1548,948,-1035,-578,-316,-32,206,-184
0,2023-03-01T18:57:50.007699,2059550,917,1548,948,-1035,-578,-316,-32,206,-184
0,2023-03-01T18:57:50.012697,2059554,922,1551,948,-1042,-578,-324,-32,206,-184
0,2023-03-01T18:57:50.018544,2059560,922,1551,948,-1042,-578,-324,-32,206,-184
0,2023-03-01T18:57:50.024381,2059567,922,1551,948,-1042,-578,-324,-32,206,-184
0,2023-03-01T18:57:50.029870,2059572,922,1551,948,-1042,-578,-324,-32,206,-184
0,2023-03-01T18:57:50.034572,2059577,919,1549,947,-1039,-573,-323,-32,206,-184
0,2023-03-01T18:57:50.041030,2059583,919,1549,947,-1039,-573,-323,-32,206,-184
0,2023-03-01T18:57:50.046888,2059589,919,1549,947,-1039,-573,-323,-32,206,-184
0,2023-03-01T18:57:50.052529,2059594,919,1549,947,-1039,-573,-323,-32,206,-184
0,2023-03-01T18:57:50.057814,2059600,920,1548,949,-1034,-569,-318,-34,206,-184
0,2023-03-01T18:57:50.063240,2059606,920,1548,949,-1034,-569,-318,-34,206,-184
0,2023-03-01T18:57:50.068917,2059611,920,1548,949,-1034,-569,-318,-34,206,-184
0,2023-03-01T18:57:50.073725,2059616,920,1546,950,-1043,-578,-324,-34,206,-184
0,2023-03-01T18:57:50.080003,2059622,920,1546,950,-1043,-578,-324,-34,206,-184
0,2023-03-01T18:57:50.084761,2059627,920,1546,950,-1043,-578,-324,-34,206,-184
0,2023-03-01T18:57:50.090298,2059633,920,1546,950,-1043,-578,-324,-34,206,-184
0,2023-03-01T18:57:50.095080,2059637,917,1549,947,-1038,-573,-322,-34,206,-184
0,2023-03-01T18:57:50.100799,2059643,917,1549,947,-1038,-573,-322,-34,206,-184
0,2023-03-01T18:57:50.105626,2059648,917,1549,947,-1038,-573,-322,-34,206,-184
0,2023-03-01T18:57:50.111885,2059654,917,1549,947,-1038,-573,-322,-34,206,-184
0,2023-03-01T18:57:50.116537,2059659,919,1548,947,-1041,-577,-320,-34,206,-184
0,2023-03-01T18:57:50.122258,2059665,919,1548,947,-1041,-577,-320,-34,206,-184
0,2023-03-01T18:57:50.128041,2059670,919,1548,947,-1041,-577,-320,-34,206,-184
0,2023-03-01T18:57:50.132398,2059675,920,1548,944,-1043,-579,-328,-34,206,-184
0,2023-03-01T18:57:50.137829,2059680,920,1548,944,-1043,-579,-328,-34,206,-184
0,2023-03-01T18:57:50.143682,2059685,920,1548,944,-1043,-579,-328,-34,206,-184
0,2023-03-01T18:57:50.148179,2059691,920,1548,944,-1043,-579,-328,-34,206,-184
0,2023-03-01T18:57:50.153392,2059696,919,1549,941,-1035,-572,-323,-34,206,-184
0,2023-03-01T18:57:50.159802,2059702,919,1549,941,-1035,-572,-323,-34,206,-184
0,2023-03-01T18:57:50.165551,2059708,919,1549,941,-1035,-572,-323,-34,206,-184
0,2023-03-01T18:57:50.170780,2059713,919,1549,941,-1035,-572,-323,-34,206,-184
0,2023-03-01T18:57:50.175844,2059718,920,1549,953,-1035,-571,-315,-33,205,-185
0,2023-03-01T18:57:50.181762,2059724,920,1549,953,-1035,-571,-315,-33,205,-185
0,2023-03-01T18:57:50.186809,2059729,920,1549,953,-1035,-571,-315,-33,205,-185
0,2023-03-01T18:57:50.191915,2059734,920,1549,953,-1035,-571,-315,-33,205,-185
0,2023-03-01T18:57:50.197077,2059740,917,1550,954,-1042,-573,-317,-33,205,-185
0,2023-03-01T18:57:50.203958,2059747,917,1550,954,-1042,-573,-317,-33,205,-185
0,2023-03-01T18:57:50.208635,2059751,917,1550,954,-1042,-573,-317,-33,205,-185
0,2023-03-01T18:57:50.213601,2059756,917,1545,949,-1027,-573,-321,-33,205,-185
0,2023-03-01T18:57:50.219802,2059762,917,1545,949,-1027,-573,-321,-33,205,-185
0,2023-03-01T18:57:50.225011,2059767,917,1545,949,-1027,-573,-321,-33,205,-185
0,2023-03-01T18:57:50.230792,2059773,917,1545,949,-1027,-573,-321,-33,205,-185
0,2023-03-01T18:57:50.235782,2059778,921,1548,950,-1036,-566,-325,-33,205,-185
0,2023-03-01T18:57:50.241688,2059784,921,1548,950,-1036,-566,-325,-33,205,-185
0,2023-03-01T18:57:50.246686,2059789,921,1548,950,-1036,-566,-325,-33,205,-185
0,2023-03-01T18:57:50.252262,2059794,921,1548,950,-1036,-566,-325,-33,205,-185
0,2023-03-01T18:57:50.257229,2059800,915,1545,949,-1040,-575,-327,-33,205,-185
0,2023-03-01T18:57:50.263319,2059805,915,1545,949,-1040,-575,-327,-33,205,-185
0,2023-03-01T18:57:50.269812,2059811,915,1545,949,-1040,-575,-327,-33,205,-185
0,2023-03-01T18:57:50.274846,2059817,922,1547,950,-1039,-576,-327,-33,205,-185
0,2023-03-01T18:57:50.280837,2059824,922,1547,950,-1039,-576,-327,-33,205,-185
0,2023-03-01T18:57:50.285468,2059828,922,1547,950,-1039,-576,-327,-33,205,-185
0,2023-03-01T18:57:50.290716,2059833,922,1547,950,-1039,-576,-327,-33,205,-185
0,2023-03-01T18:57:50.296193,2059838,920,1549,941,-1029,-571,-328,-33,205,-185
0,2023-03-01T18:57:50.304050,2059845,920,1549,941,-1029,-571,-328,-33,205,-185
0,2023-03-01T18:57:50.309050,2059851,920,1549,941,-1029,-571,-328,-33,205,-185
0,2023-03-01T18:57:50.314536,2059856,915,1549,951,-1035,-570,-324,-32,208,-176
0,2023-03-01T18:57:50.320327,2059863,915,1549,951,-1035,-570,-324,-32,208,-176
0,2023-03-01T18:57:50.326091,2059868,915,1549,951,-1035,-570,-324,-32,208,-176
0,2023-03-01T18:57:50.331953,2059874,915,1549,951,-1035,-570,-324,-32,208,-176
0,2023-03-01T18:57:50.337349,2059879,919,1547,952,-1040,-572,-325,-32,208,-176
0,2023-03-01T18:57:50.343264,2059885,919,1547,952,-1040,-572,-325,-32,208,-176
0,2023-03-01T18:57:50.349280,2059891,919,1547,952,-1040,-572,-325,-32,208,-176
0,2023-03-01T18:57:50.354496,2059896,918,1547,946,-1037,-570,-321,-32,208,-176
0,2023-03-01T18:57:50.361039,2059904,918,1547,946,-1037,-570,-321,-32,208,-176
0,2023-03-01T18:57:50.365995,2059909,918,1547,946,-1037,-570,-321,-32,208,-176
0,2023-03-01T18:57:50.370948,2059913,918,1547,946,-1037,-570,-321,-32,208,-176
0,2023-03-01T18:57:50.375980,2059918,914,1546,947,-1038,-576,-312,-32,208,-176
0,2023-03-01T18:57:50.382594,2059925,914,1546,947,-1038,-576,-312,-32,208,-176
0,2023-03-01T18:57:50.389024,2059930,914,1546,947,-1038,-576,-312,-32,208,-176
0,2023-03-01T18:57:50.394429,2059936,915,1549,949,-1036,-571,-323,-32,208,-176
0,2023-03-01T18:57:50.400551,2059942,915,1549,949,-1036,-571,-323,-32,208,-176
0,2023-03-01T18:57:50.405535,2059948,915,1549,949,-1036,-571,-323,-32,208,-176
0,2023-03-01T18:57:50.411723,2059954,915,1549,949,-1036,-571,-323,-32,208,-176
0,2023-03-01T18:57:50.416577,2059959,916,1546,942,-1027,-566,-321,-32,208,-176
0,2023-03-01T18:57:50.422217,2059965,916,1546,942,-1027,-566,-321,-32,208,-176
0,2023-03-01T18:57:50.426927,2059969,916,1546,942,-1027,-566,-321,-32,208,-176
0,2023-03-01T18:57:50.431565,2059974,916,1546,942,-1027,-566,-321,-32,208,-176
0,2023-03-01T18:57:50.436200,2059978,918,1548,945,-1039,-571,-322,-31,209,-181
0,2023-03-01T18:57:50.442910,2059985,918,1548,945,-1039,-571,-322,-31,209,-181
0,2023-03-01T18:57:50.448852,2059991,918,1548,945,-1039,-571,-322,-31,209,-181
0,2023-03-01T18:57:50.453743,2059996,919,1548,945,-1045,-572,-321,-31,209,-181
0,2023-03-01T18:57:50.459926,2060002,919,1548,945,-1045,-572,-321,-31,209,-181
0,2023-03-01T18:57:50.465137,2060007,919,1548,945,-1045,-572,-321,-31,209,-181
0,2023-03-01T18:57:50.470298,2060013,919,1548,945,-1045,-572,-321,-31,209,-181
0,2023-03-01T18:57:50.475522,2060018,916,1551,946,-1033,-575,-321,-31,209,-181
0,2023-03-01T18:57:50.481764,2060024,916,1551,946,-1033,-575,-321,-31,209,-181
0,2023-03-01T18:57:50.486824,2060028,916,1551,946,-1033,-575,-321,-31,209,-181
0,2023-03-01T18:57:50.492892,2060035,916,1551,946,-1033,-575,-321,-31,209,-181
0,2023-03-01T18:57:50.498053,2060040,916,1551,946,-1033,-575,-321,-31,209,-181
0,2023-03-01T18:57:50.503832,2060046,916,1551,946,-1033,-575,-321,-31,209,-181
0,2023-03-01T18:57:50.508723,2060051,916,1551,946,-1033,-575,-321,-31,209,-181
