imu,server_time,arduino_time,ax,ay,az,gx,gy,gz,mx,my,mz
0,2023-03-01T18:58:37.593598,2107139,1052,1141,-2011,-734,-1474,457,35,109,-403
0,2023-03-01T18:58:37.599974,2107145,1052,1141,-2011,-734,-1474,457,35,109,-403
0,2023-03-01T18:58:37.604730,2107150,1052,1141,-2011,-734,-1474,457,35,109,-403
0,2023-03-01T18:58:37.609845,2107155,1052,1141,-2011,-734,-1474,457,35,109,-403
0,2023-03-01T18:58:37.615571,2107160,1042,1129,-2017,-746,-1477,480,35,109,-403
0,2023-03-01T18:58:37.620950,2107166,1042,1129,-2017,-746,-1477,480,35,109,-403
0,2023-03-01T18:58:37.625695,2107170,1042,1129,-2017,-746,-1477,480,35,109,-403
0,2023-03-01T18:58:37.630563,2107175,1042,1129,-2017,-746,-1477,480,35,109,-403
0,2023-03-01T18:58:37.635501,2107181,1036,1122,-2012,-761,-1459,467,35,109,-403
0,2023-03-01T18:58:37.640476,2107186,1036,1122,-2012,-761,-1459,467,35,109,-403
0,2023-03-01T18:58:37.645487,2107190,1036,1122,-2012,-761,-1459,467,35,109,-403
0,2023-03-01T18:58:37.650482,2107195,1036,1122,-2012,-761,-1459,467,35,109,-403
0,2023-03-01T18:58:37.655806,2107201,1053,1137,-2019,-766,-1449,442,40,112,-406
0,2023-03-01T18:58:37.661392,2107206,1053,1137,-2019,-766,-1449,442,40,112,-406
0,2023-03-01T18:58:37.666355,2107211,1053,1137,-2019,-766,-1449,442,40,112,-406
0,2023-03-01T18:58:37.672738,2107217,1047,1135,-2020,-775,-1486,500,40,112,-406
0,2023-03-01T18:58:37.677218,2107223,1047,1135,-2020,-775,-1486,500,40,112,-406
0,2023-03-01T18:58:37.682238,2107228,1047,1135,-2020,-775,-1486,500,40,112,-406
0,2023-03-01T18:58:37.686789,2107232,1047,1135,-2020,-775,-1486,500,40,112,-406
0,2023-03-01T18:58:37.691341,2107236,1047,1135,-2020,-775,-1486,500,40,112,-406
0,2023-03-01T18:58:37.697707,2107242,1038,1122,-2024,-789,-1505,543,40,112,-406
0,2023-03-01T18:58:37.703438,2107248,1038,1122,-2024,-789,-1505,543,40,112,-406
0,2023-03-01T18:58:37.708188,2107253,1038,1122,-2024,-789,-1505,543,40,112,-406
0,2023-03-01T18:58:37.714093,2107259,1047,1131,-2037,-784,-1486,502,40,112,-406
0,2023-03-01T18:58:37.719581,2107265,1047,1131,-2037,-784,-1486,502,40,112,-406
0,2023-03-01T18:58:37.724637,2107270,1047,1131,-2037,-784,-1486,502,40,112,-406
0,2023-03-01T18:58:37.729703,2107274,1047,1131,-2037,-784,-1486,502,40,112,-406
0,2023-03-01T18:58:37.735466,2107280,1035,1126,-2033,-777,-1492,522,40,112,-406
0,2023-03-01T18:58:37.741210,2107286,1035,1126,-2033,-777,-1492,522,40,112,-406
0,2023-03-01T18:58:37.746156,2107291,1035,1126,-2033,-777,-1492,522,40,112,-406
0,2023-03-01T18:58:37.750848,2107295,1035,1126,-2033,-777,-1492,522,40,112,-406
0,2023-03-01T18:58:37.756033,2107301,1034,1117,-2036,-791,-1499,558,40,112,-406
0,2023-03-01T18:58:37.761597,2107307,1034,1117,-2036,-791,-1499,558,40,112,-406
0,2023-03-01T18:58:37.766531,2107312,1034,1117,-2036,-791,-1499,558,40,112,-406
0,2023-03-01T18:58:37.771588,2107317,1034,1117,-2036,-791,-1499,558,40,112,-406
0,2023-03-01T18:58:37.777042,2107322,1038,1119,-2043,-799,-1503,549,37,111,-405
0,2023-03-01T18:58:37.782593,2107328,1038,1119,-2043,-799,-1503,549,37,111,-405
0,2023-03-01T18:58:37.788002,2107332,1038,1119,-2043,-799,-1503,549,37,111,-405
0,2023-03-01T18:58:37.794031,2107339,1026,1108,-2034,-794,-1505,562,37,111,-405
0,2023-03-01T18:58:37.800403,2107345,1026,1108,-2034,-794,-1505,562,37,111,-405
0,2023-03-01T18:58:37.805139,2107351,1026,1108,-2034,-794,-1505,562,37,111,-405
0,2023-03-01T18:58:37.811107,2107356,1026,1108,-2034,-794,-1505,562,37,111,-405
0,2023-03-01T18:58:37.817106,2107362,1028,1108,-2036,-809,-1516,581,37,111,-405
0,2023-03-01T18:58:37.822510,2107368,1028,1108,-2036,-809,-1516,581,37,111,-405
0,2023-03-01T18:58:37.827244,2107372,1028,1108,-2036,-809,-1516,581,37,111,-405
0,2023-03-01T18:58:37.832010,2107377,1028,1108,-2036,-809,-1516,581,37,111,-405
0,2023-03-01T18:58:37.837552,2107382,1031,1110,-2051,-818,-1522,594,37,111,-405
0,2023-03-01T18:58:37.842976,2107387,1031,1110,-2051,-818,-1522,594,37,111,-405
0,2023-03-01T18:58:37.848080,2107393,1031,1110,-2051,-818,-1522,594,37,111,-405
0,2023-03-01T18:58:37.854768,2107400,1020,1101,-2037,-819,-1512,589,37,111,-405
0,2023-03-01T18:58:37.860189,2107405,1020,1101,-2037,-819,-1512,589,37,111,-405
0,2023-03-01T18:58:37.865465,2107410,1020,1101,-2037,-819,-1512,589,37,111,-405
0,2023-03-01T18:58:37.870836,2107415,1020,1101,-2037,-819,-1512,589,37,111,-405
0,2023-03-01T18:58:37.876832,2107421,1023,1104,-2058,-819,-1524,576,37,111,-405
0,2023-03-01T18:58:37.882589,2107427,1023,1104,-2058,-819,-1524,576,37,111,-405
0,2023-03-01T18:58:37.887531,2107432,1023,1104,-2058,-819,-1524,576,37,111,-405
0,2023-03-01T18:58:37.892465,2107438,1023,1104,-2058,-819,-1524,576,37,111,-405
0,2023-03-01T18:58:37.898768,2107443,1020,1097,-2061,-804,-1507,578,37,111,-405
0,2023-03-01T18:58:37.904526,2107449,1020,1097,-2061,-804,-1507,578,37,111,-405
0,2023-03-01T18:58:37.909708,2107455,1020,1097,-2061,-804,-1507,578,37,111,-405
0,2023-03-01T18:58:37.914227,2107459,1011,1089,-2046,-769,-1490,551,42,112,-414
0,2023-03-01T18:58:37.919595,2107464,1011,1089,-2046,-769,-1490,551,42,112,-414
0,2023-03-01T18:58:37.924759,2107469,1011,1089,-2046,-769,-1490,551,42,112,-414
0,2023-03-01T18:58:37.929578,2107474,1011,1089,-2046,-769,-1490,551,42,112,-414
0,2023-03-01T18:58:37.934320,2107480,1023,1090,-2059,-768,-1491,546,42,112,-414
0,2023-03-01T18:58:37.940299,2107485,1023,1090,-2059,-768,-1491,546,42,112,-414
0,2023-03-01T18:58:37.944965,2107490,1023,1090,-2059,-768,-1491,546,42,112,-414
0,2023-03-01T18:58:37.950138,2107495,1023,1090,-2059,-768,-1491,546,42,112,-414
0,2023-03-01T18:58:37.955680,2107500,1014,1084,-2058,-774,-1496,568,42,112,-414
0,2023-03-01T18:58:37.961684,2107506,1014,1084,-2058,-774,-1496,568,42,112,-414
0,2023-03-01T18:58:37.966596,2107511,1014,1084,-2058,-774,-1496,568,42,112,-414
0,2023-03-01T18:58:37.972378,2107516,1014,1084,-2058,-774,-1496,568,42,112,-414
0,2023-03-01T18:58:37.977705,2107523,1004,1077,-2067,-763,-1508,583,42,112,-414
0,2023-03-01T18:58:37.983783,2107528,1004,1077,-2067,-763,-1508,583,42,112,-414
0,2023-03-01T18:58:37.988636,2107534,1004,1077,-2067,-763,-1508,583,42,112,-414
0,2023-03-01T18:58:37.994517,2107540,1008,1068,-2075,-767,-1526,598,42,112,-414
0,2023-03-01T18:58:38.000333,2107545,1008,1068,-2075,-767,-1526,598,42,112,-414
0,2023-03-01T18:58:38.006216,2107551,1008,1068,-2075,-767,-1526,598,42,112,-414
0,2023-03-01T18:58:38.012160,2107556,1008,1068,-2075,-767,-1526,598,42,112,-414
0,2023-03-01T18:58:38.018015,2107563,1000,1067,-2064,-787,-1511,589,42,112,-414
0,2023-03-01T18:58:38.023347,2107569,1000,1067,-2064,-787,-1511,589,42,112,-414
0,2023-03-01T18:58:38.027974,2107573,1000,1067,-2064,-787,-1511,589,42,112,-414
0,2023-03-01T18:58:38.032494,2107578,998,1071,-2072,-787,-1528,608,46,112,-414
0,2023-03-01T18:58:38.038086,2107583,998,1071,-2072,-787,-1528,608,46,120,-424
0,2023-03-01T18:58:38.043780,2107588,998,1071,-2072,-787,-1528,608,46,120,-424
0,2023-03-01T18:58:38.048505,2107593,998,1071,-2072,-787,-1528,608,46,120,-424
0,2023-03-01T18:58:38.054663,2107599,999,1061,-2072,-790,-1547,641,46,120,-424
0,2023-03-01T18:58:38.060105,2107606,999,1061,-2072,-790,-1547,641,46,120,-424
0,2023-03-01T18:58:38.065019,2107610,999,1061,-2072,-790,-1547,641,46,120,-424
0,2023-03-01T18:58:38.069967,2107615,999,1061,-2072,-790,-1547,641,46,120,-424
0,2023-03-01T18:58:38.076225,2107621,995,1062,-2066,-804,-1528,637,46,120,-424
0,2023-03-01T18:58:38.081538,2107627,995,1062,-2066,-804,-1528,637,46,120,-424
0,2023-03-01T18:58:38.086573,2107631,995,1062,-2066,-804,-1528,637,46,120,-424
0,2023-03-01T18:58:38.091401,2107636,995,1062,-2066,-804,-1528,637,46,120,-424
0,2023-03-01T18:58:38.097456,2107642,1000,1063,-2084,-801,-1529,640,46,120,-424
0,2023-03-01T18:58:38.103024,2107648,1000,1063,-2084,-801,-1529,640,46,120,-424
0,2023-03-01T18:58:38.108190,2107653,1000,1063,-2084,-801,-1529,640,46,120,-424
0,2023-03-01T18:58:38.114597,2107659,996,1053,-2083,-801,-1528,661,46,120,-424
0,2023-03-01T18:58:38.120862,2107666,996,1053,-2083,-801,-1528,661,46,120,-424
0,2023-03-01T18:58:38.125862,2107671,996,1053,-2083,-801,-1528,661,46,120,-424
0,2023-03-01T18:58:38.130432,2107675,996,1053,-2083,-801,-1528,661,46,120,-424
0,2023-03-01T18:58:38.136038,2107681,984,1046,-2091,-797,-1516,623,46,120,-424
0,2023-03-01T18:58:38.141317,2107686,984,1046,-2091,-797,-1516,623,46,120,-424
0,2023-03-01T18:58:38.146133,2107691,984,1046,-2091,-797,-1516,623,46,120,-424
0,2023-03-01T18:58:38.152092,2107697,984,1046,-2091,-797,-1516,623,46,120,-424
0,2023-03-01T18:58:38.157589,2107703,990,1055,-2090,-760,-1442,508,43,107,-417
0,2023-03-01T18:58:38.162858,2107708,990,1055,-2090,-760,-1442,508,43,107,-417
0,2023-03-01T18:58:38.167794,2107712,990,1055,-2090,-760,-1442,508,43,107,-417
0,2023-03-01T18:58:38.173523,2107718,1001,1070,-2066,-695,-1424,471,43,107,-417
0,2023-03-01T18:58:38.180789,2107725,1001,1070,-2066,-695,-1424,471,43,107,-417
0,2023-03-01T18:58:38.185296,2107730,1001,1070,-2066,-695,-1424,471,43,107,-417
0,2023-03-01T18:58:38.191054,2107736,1001,1070,-2066,-695,-1424,471,43,107,-417
0,2023-03-01T18:58:38.196456,2107742,988,1060,-2091,-693,-1491,551,43,107,-417
0,2023-03-01T18:58:38.202068,2107747,988,1060,-2091,-693,-1491,551,43,107,-417
0,2023-03-01T18:58:38.207425,2107752,988,1060,-2091,-693,-1491,551,43,107,-417
0,2023-03-01T18:58:38.212860,2107758,983,1032,-2104,-704,-1510,604,43,107,-417
0,2023-03-01T18:58:38.219002,2107764,983,1032,-2104,-704,-1510,604,43,107,-417
0,2023-03-01T18:58:38.223836,2107768,983,1032,-2104,-704,-1510,604,43,107,-417
0,2023-03-01T18:58:38.228691,2107773,983,1032,-2104,-704,-1510,604,43,107,-417
0,2023-03-01T18:58:38.234677,2107780,981,1028,-2100,-705,-1471,565,43,107,-417
0,2023-03-01T18:58:38.240151,2107785,981,1028,-2100,-705,-1471,565,43,107,-417
0,2023-03-01T18:58:38.245331,2107790,981,1028,-2100,-705,-1471,565,43,107,-417
0,2023-03-01T18:58:38.250542,2107796,981,1028,-2100,-705,-1471,565,43,107,-417
0,2023-03-01T18:58:38.255867,2107801,985,1035,-2106,-748,-1453,546,43,107,-417
0,2023-03-01T18:58:38.261734,2107806,985,1035,-2106,-748,-1453,546,43,107,-417
0,2023-03-01T18:58:38.266861,2107811,985,1035,-2106,-748,-1453,546,43,107,-417
0,2023-03-01T18:58:38.271648,2107816,985,1035,-2106,-748,-1453,546,43,107,-417
0,2023-03-01T18:58:38.277307,2107822,985,1027,-2102,-769,-1474,590,43,107,-417
0,2023-03-01T18:58:38.282844,2107828,985,1027,-2102,-769,-1474,590,43,107,-417
0,2023-03-01T18:58:38.288096,2107833,985,1027,-2102,-769,-1474,590,43,107,-417
0,2023-03-01T18:58:38.294001,2107839,987,1039,-2097,-747,-1485,593,53,119,-415
0,2023-03-01T18:58:38.300364,2107845,987,1039,-2097,-747,-1485,593,53,119,-415
0,2023-03-01T18:58:38.305321,2107850,987,1039,-2097,-747,-1485,593,53,119,-415
0,2023-03-01T18:58:38.310253,2107855,987,1039,-2097,-747,-1485,593,53,119,-415
0,2023-03-01T18:58:38.316621,2107862,984,1038,-2111,-739,-1487,585,53,119,-415
0,2023-03-01T18:58:38.322747,2107868,984,1038,-2111,-739,-1487,585,53,119,-415
0,2023-03-01T18:58:38.327743,2107873,984,1038,-2111,-739,-1487,585,53,119,-415
0,2023-03-01T18:58:38.333824,2107878,981,1033,-2103,-692,-1492,592,53,119,-415
0,2023-03-01T18:58:38.342017,2107886,981,1033,-2103,-692,-1492,592,53,119,-415
0,2023-03-01T18:58:38.347381,2107892,981,1033,-2103,-692,-1492,592,53,119,-415
0,2023-03-01T18:58:38.352106,2107897,981,1033,-2103,-692,-1492,592,53,119,-415
0,2023-03-01T18:58:38.357568,2107902,977,1028,-2125,-681,-1496,586,53,119,-415
0,2023-03-01T18:58:38.363201,2107908,977,1028,-2125,-681,-1496,586,53,119,-415
0,2023-03-01T18:58:38.368571,2107914,977,1028,-2125,-681,-1496,586,53,119,-415
0,2023-03-01T18:58:38.374644,2107919,966,1016,-2120,-670,-1492,577,53,119,-415
0,2023-03-01T18:58:38.380592,2107925,966,1016,-2120,-670,-1492,577,53,119,-415
0,2023-03-01T18:58:38.385249,2107930,966,1016,-2120,-670,-1492,577,53,119,-415
0,2023-03-01T18:58:38.391179,2107936,966,1016,-2120,-670,-1492,577,53,119,-415
0,2023-03-01T18:58:38.396613,2107941,970,1014,-2118,-672,-1486,567,53,119,-415
0,2023-03-01T18:58:38.402602,2107948,970,1014,-2118,-672,-1486,567,53,119,-415
0,2023-03-01T18:58:38.408102,2107953,970,1014,-2118,-672,-1486,567,53,119,-415
0,2023-03-01T18:58:38.413739,2107959,964,1011,-2126,-693,-1484,588,55,121,-425
0,2023-03-01T18:58:38.419892,2107965,964,1011,-2126,-693,-1484,588,55,121,-425
0,2023-03-01T18:58:38.424823,2107970,964,1011,-2126,-693,-1484,588,55,121,-425
0,2023-03-01T18:58:38.430900,2107975,964,1011,-2126,-693,-1484,588,55,121,-425
0,2023-03-01T18:58:38.436589,2107981,964,1010,-2125,-690,-1487,595,55,121,-425
0,2023-03-01T18:58:38.442530,2107987,964,1010,-2125,-690,-1487,595,55,121,-425
0,2023-03-01T18:58:38.447571,2107993,964,1010,-2125,-690,-1487,595,55,121,-425
0,2023-03-01T18:58:38.453670,2107999,971,1009,-2130,-703,-1487,587,55,121,-425
0,2023-03-01T18:58:38.459711,2108005,971,1009,-2130,-703,-1487,587,55,121,-425
0,2023-03-01T18:58:38.465027,2108010,971,1009,-2130,-703,-1487,587,55,121,-425
0,2023-03-01T18:58:38.470028,2108015,971,1009,-2130,-703,-1487,587,55,121,-425
0,2023-03-01T18:58:38.476140,2108021,962,1006,-2140,-685,-1478,591,55,121,-425
0,2023-03-01T18:58:38.481957,2108026,962,1006,-2140,-685,-1478,591,55,121,-425
0,2023-03-01T18:58:38.486702,2108032,962,1006,-2140,-685,-1478,591,55,121,-425
0,2023-03-01T18:58:38.491434,2108037,962,1006,-2140,-685,-1478,591,55,121,-425
0,2023-03-01T18:58:38.497264,2108042,958,1000,-2129,-666,-1477,584,55,121,-425
0,2023-03-01T18:58:38.503251,2108048,958,1000,-2129,-666,-1477,584,55,121,-425
0,2023-03-01T18:58:38.508092,2108053,958,1000,-2129,-666,-1477,584,55,121,-425
0,2023-03-01T18:58:38.513744,2108059,957,1001,-2136,-671,-1482,592,55,121,-425
0,2023-03-01T18:58:38.519088,2108064,957,1001,-2136,-671,-1482,592,55,121,-425
0,2023-03-01T18:58:38.524127,2108069,957,1001,-2136,-671,-1482,592,55,121,-425
0,2023-03-01T18:58:38.529091,2108075,957,1001,-2136,-671,-1482,592,55,121,-425
0,2023-03-01T18:58:38.535771,2108081,952,988,-2141,-675,-1493,613,55,121,-425
0,2023-03-01T18:58:38.541539,2108086,952,988,-2141,-675,-1493,613,55,121,-425
0,2023-03-01T18:58:38.546454,2108092,952,988,-2141,-675,-1493,613,55,121,-425
0,2023-03-01T18:58:38.552008,2108097,952,988,-2141,-675,-1493,613,55,121,-425
0,2023-03-01T18:58:38.557608,2108102,949,979,-2136,-689,-1500,659,56,124,-426
0,2023-03-01T18:58:38.563413,2108108,949,979,-2136,-689,-1500,659,56,124,-426
0,2023-03-01T18:58:38.568193,2108113,949,979,-2136,-689,-1500,659,56,124,-426
0,2023-03-01T18:58:38.574274,2108120,947,983,-2162,-739,-1493,673,56,124,-426
0,2023-03-01T18:58:38.580264,2108126,947,983,-2162,-739,-1493,673,56,124,-426
0,2023-03-01T18:58:38.585278,2108130,947,983,-2162,-739,-1493,673,56,124,-426
0,2023-03-01T18:58:38.590496,2108135,947,983,-2162,-739,-1493,673,56,124,-426
0,2023-03-01T18:58:38.596582,2108141,944,976,-2143,-750,-1477,655,56,124,-426
0,2023-03-01T18:58:38.601540,2108146,944,976,-2143,-750,-1477,655,56,124,-426
0,2023-03-01T18:58:38.606181,2108151,944,976,-2143,-750,-1477,655,56,124,-426
0,2023-03-01T18:58:38.612022,2108157,944,976,-2143,-750,-1477,655,56,124,-426
0,2023-03-01T18:58:38.617262,2108163,947,983,-2150,-739,-1484,651,56,124,-426
0,2023-03-01T18:58:38.622301,2108168,947,983,-2150,-739,-1484,651,56,124,-426
0,2023-03-01T18:58:38.627819,2108173,947,983,-2150,-739,-1484,651,56,124,-426
0,2023-03-01T18:58:38.633136,2108178,947,983,-2150,-739,-1484,651,56,124,-426
0,2023-03-01T18:58:38.639003,2108184,940,979,-2159,-720,-1473,619,56,124,-426
0,2023-03-01T18:58:38.644149,2108189,940,979,-2159,-720,-1473,619,56,124,-426
0,2023-03-01T18:58:38.649162,2108194,940,979,-2159,-720,-1473,619,56,124,-426
0,2023-03-01T18:58:38.654049,2108199,936,976,-2142,-691,-1450,572,56,124,-426
0,2023-03-01T18:58:38.659569,2108205,936,976,-2142,-691,-1450,572,56,124,-426
0,2023-03-01T18:58:38.665603,2108210,936,976,-2142,-691,-1450,572,56,124,-426
0,2023-03-01T18:58:38.671971,2108217,936,976,-2142,-691,-1450,572,56,124,-426
0,2023-03-01T18:58:38.678414,2108223,934,971,-2155,-650,-1455,571,58,124,-428
0,2023-03-01T18:58:38.684277,2108229,934,971,-2155,-650,-1455,571,58,124,-428
0,2023-03-01T18:58:38.689214,2108234,934,971,-2155,-650,-1455,571,58,124,-428
0,2023-03-01T18:58:38.694974,2108240,925,960,-2151,-633,-1429,553,58,124,-428
0,2023-03-01T18:58:38.700319,2108246,925,960,-2151,-633,-1429,553,58,124,-428
0,2023-03-01T18:58:38.705230,2108250,925,960,-2151,-633,-1429,553,58,124,-428
0,2023-03-01T18:58:38.710264,2108255,925,960,-2151,-633,-1429,553,58,124,-428
0,2023-03-01T18:58:38.715075,2108260,925,945,-2160,-642,-1414,552,58,124,-428
0,2023-03-01T18:58:38.720312,2108265,925,945,-2160,-642,-1414,552,58,124,-428
0,2023-03-01T18:58:38.725267,2108270,925,945,-2160,-642,-1414,552,58,124,-428
0,2023-03-01T18:58:38.730636,2108275,925,945,-2160,-642,-1414,552,58,124,-428
0,2023-03-01T18:58:38.736237,2108281,929,944,-2169,-670,-1390,523,58,124,-428
0,2023-03-01T18:58:38.742030,2108286,929,944,-2169,-670,-1390,523,58,124,-428
0,2023-03-01T18:58:38.747181,2108293,929,944,-2169,-670,-1390,523,58,124,-428
0,2023-03-01T18:58:38.752163,2108297,929,944,-2169,-670,-1390,523,58,124,-428
0,2023-03-01T18:58:38.757479,2108303,926,950,-2158,-693,-1375,514,58,124,-428
0,2023-03-01T18:58:38.763587,2108308,926,950,-2158,-693,-1375,514,58,124,-428
0,2023-03-01T18:58:38.769793,2108314,926,950,-2158,-693,-1375,514,58,124,-428
0,2023-03-01T18:58:38.776499,2108321,930,952,-2162,-712,-1404,567,58,124,-428
0,2023-03-01T18:58:38.782617,2108327,930,952,-2162,-712,-1404,567,58,124,-428
0,2023-03-01T18:58:38.787472,2108333,930,952,-2162,-712,-1404,567,58,124,-428
0,2023-03-01T18:58:38.792492,2108338,930,952,-2162,-712,-1404,567,58,124,-428
0,2023-03-01T18:58:38.798584,2108343,921,945,-2181,-721,-1429,614,58,124,-428
0,2023-03-01T18:58:38.804537,2108349,921,945,-2181,-721,-1429,614,58,124,-428
0,2023-03-01T18:58:38.809545,2108354,921,945,-2181,-721,-1429,614,58,124,-428
0,2023-03-01T18:58:38.816057,2108360,916,946,-2163,-701,-1424,602,61,121,-425
0,2023-03-01T18:58:38.822075,2108366,916,946,-2163,-701,-1424,602,61,121,-425
0,2023-03-01T18:58:38.827600,2108372,916,946,-2163,-701,-1424,602,61,121,-425
0,2023-03-01T18:58:38.833844,2108379,924,944,-2175,-726,-1430,606,61,121,-425
0,2023-03-01T18:58:38.840431,2108385,924,944,-2175,-726,-1430,606,61,121,-425
0,2023-03-01T18:58:38.845322,2108390,924,944,-2175,-726,-1430,606,61,121,-425
0,2023-03-01T18:58:38.850330,2108395,924,944,-2175,-726,-1430,606,61,121,-425
0,2023-03-01T18:58:38.856183,2108401,920,936,-2175,-730,-1431,637,61,121,-425
0,2023-03-01T18:58:38.862268,2108407,920,936,-2175,-730,-1431,637,61,121,-425
0,2023-03-01T18:58:38.867212,2108412,920,936,-2175,-730,-1431,637,61,121,-425
0,2023-03-01T18:58:38.872607,2108418,920,936,-2175,-730,-1431,637,61,121,-425
0,2023-03-01T18:58:38.878055,2108423,915,926,-2179,-735,-1418,632,61,121,-425
0,2023-03-01T18:58:38.884848,2108429,915,926,-2179,-735,-1418,632,61,121,-425
0,2023-03-01T18:58:38.891135,2108436,915,926,-2179,-735,-1418,632,61,121,-425
0,2023-03-01T18:58:38.897777,2108442,924,933,-2188,-731,-1415,633,61,121,-425
0,2023-03-01T18:58:38.903867,2108448,924,933,-2188,-731,-1415,633,61,121,-425
0,2023-03-01T18:58:38.909095,2108454,924,933,-2188,-731,-1415,633,61,121,-425
0,2023-03-01T18:58:38.915486,2108461,917,926,-2185,-757,-1407,645,61,121,-425
0,2023-03-01T18:58:38.921005,2108466,917,926,-2185,-757,-1407,645,61,121,-425
0,2023-03-01T18:58:38.926505,2108471,917,926,-2185,-757,-1407,645,61,121,-425
0,2023-03-01T18:58:38.931585,2108476,917,926,-2185,-757,-1407,645,61,121,-425
0,2023-03-01T18:58:38.938047,2108482,909,924,-2184,-765,-1415,639,66,114,-440
0,2023-03-01T18:58:38.943109,2108488,909,924,-2184,-765,-1415,639,66,114,-440
0,2023-03-01T18:58:38.948044,2108493,909,924,-2184,-765,-1415,639,66,114,-440
0,2023-03-01T18:58:38.953631,2108498,909,924,-2184,-765,-1415,639,66,114,-440
0,2023-03-01T18:58:38.959706,2108505,911,928,-2203,-766,-1429,653,66,114,-440
0,2023-03-01T18:58:38.965744,2108511,911,928,-2203,-766,-1429,653,66,114,-440
0,2023-03-01T18:58:38.971554,2108517,911,928,-2203,-766,-1429,653,66,114,-440
0,2023-03-01T18:58:38.977330,2108522,899,914,-2195,-757,-1389,620,66,114,-440
0,2023-03-01T18:58:38.983134,2108528,899,914,-2195,-757,-1389,620,66,114,-440
0,2023-03-01T18:58:38.988619,2108533,899,914,-2195,-757,-1389,620,66,114,-440
0,2023-03-01T18:58:38.994522,2108539,897,918,-2206,-716,-1319,478,66,114,-440
0,2023-03-01T18:58:39.001570,2108547,897,918,-2206,-716,-1319,478,66,114,-440
0,2023-03-01T18:58:39.006249,2108552,897,918,-2206,-716,-1319,478,66,114,-440
0,2023-03-01T18:58:39.011734,2108557,897,918,-2206,-716,-1319,478,66,114,-440
0,2023-03-01T18:58:39.017242,2108562,905,926,-2195,-647,-1256,354,66,114,-440
0,2023-03-01T18:58:39.023686,2108568,905,926,-2195,-647,-1256,354,66,114,-440
0,2023-03-01T18:58:39.028613,2108573,905,926,-2195,-647,-1256,354,66,114,-440
0,2023-03-01T18:58:39.034389,2108579,894,908,-2183,-590,-1225,294,66,114,-440
0,2023-03-01T18:58:39.039801,2108584,894,908,-2183,-590,-1225,294,66,114,-440
0,2023-03-01T18:58:39.044896,2108590,894,908,-2183,-590,-1225,294,66,114,-440
0,2023-03-01T18:58:39.049862,2108595,894,908,-2183,-590,-1225,294,66,114,-440
0,2023-03-01T18:58:39.056092,2108601,895,913,-2202,-508,-1191,178,72,120,-436
0,2023-03-01T18:58:39.061476,2108607,895,913,-2202,-508,-1191,178,72,120,-436
0,2023-03-01T18:58:39.066303,2108611,895,913,-2202,-508,-1191,178,72,120,-436
0,2023-03-01T18:58:39.071023,2108616,895,913,-2202,-508,-1191,178,72,120,-436
0,2023-03-01T18:58:39.077231,2108622,887,896,-2196,-513,-1114,78,72,120,-436
0,2023-03-01T18:58:39.083019,2108628,887,896,-2196,-513,-1114,78,72,120,-436
0,2023-03-01T18:58:39.088268,2108633,887,896,-2196,-513,-1114,78,72,120,-436
0,2023-03-01T18:58:39.093768,2108639,887,896,-2196,-513,-1114,78,72,120,-436
0,2023-03-01T18:58:39.099610,2108645,886,887,-2195,-592,-1001,-47,72,120,-436
0,2023-03-01T18:58:39.105819,2108650,886,887,-2195,-592,-1001,-47,72,120,-436
0,2023-03-01T18:58:39.110933,2108656,886,887,-2195,-592,-1001,-47,72,120,-436
0,2023-03-01T18:58:39.116037,2108661,886,886,-2215,-684,-894,-138,72,120,-436
0,2023-03-01T18:58:39.121725,2108666,886,886,-2215,-684,-894,-138,72,120,-436
0,2023-03-01T18:58:39.126997,2108672,886,886,-2215,-684,-894,-138,72,120,-436
0,2023-03-01T18:58:39.132576,2108678,886,886,-2215,-684,-894,-138,72,120,-436
0,2023-03-01T18:58:39.138607,2108684,884,891,-2200,-788,-784,-220,72,120,-436
0,2023-03-01T18:58:39.144441,2108689,884,891,-2200,-788,-784,-220,72,120,-436
0,2023-03-01T18:58:39.149149,2108694,884,891,-2200,-788,-784,-220,72,120,-436
0,2023-03-01T18:58:39.155129,2108700,891,897,-2207,-888,-693,-281,72,120,-436
0,2023-03-01T18:58:39.160716,2108705,891,897,-2207,-888,-693,-281,72,120,-436
0,2023-03-01T18:58:39.165892,2108711,891,897,-2207,-888,-693,-281,72,120,-436
0,2023-03-01T18:58:39.171358,2108716,891,897,-2207,-888,-693,-281,72,120,-436
0,2023-03-01T18:58:39.176791,2108722,892,894,-2204,-952,-620,-301,72,120,-436
0,2023-03-01T18:58:39.182379,2108727,892,894,-2204,-952,-620,-301,72,120,-436
0,2023-03-01T18:58:39.187503,2108732,892,894,-2204,-952,-620,-301,72,120,-436
0,2023-03-01T18:58:39.193347,2108737,892,894,-2204,-952,-620,-301,72,120,-436
0,2023-03-01T18:58:39.199273,2108744,892,894,-2204,-952,-620,-301,63,121,-435
0,2023-03-01T18:58:39.204790,2108749,892,894,-2204,-952,-620,-301,63,121,-435
0,2023-03-01T18:58:39.209586,2108754,892,894,-2204,-952,-620,-301,63,121,-435
0,2023-03-01T18:58:39.215757,2108761,892,889,-2211,-1022,-581,-318,63,121,-435
0,2023-03-01T18:58:39.221905,2108767,892,889,-2211,-1022,-581,-318,63,121,-435
0,2023-03-01T18:58:39.226821,2108772,892,889,-2211,-1022,-581,-318,63,121,-435
0,2023-03-01T18:58:39.232433,2108777,892,889,-2211,-1022,-581,-318,63,121,-435
0,2023-03-01T18:58:39.238040,2108783,893,890,-2199,-1034,-574,-323,63,121,-435
0,2023-03-01T18:58:39.244033,2108789,893,890,-2199,-1034,-574,-323,63,121,-435
0,2023-03-01T18:58:39.249018,2108794,893,890,-2199,-1034,-574,-323,63,121,-435
0,2023-03-01T18:58:39.255019,2108801,889,887,-2215,-1048,-585,-312,63,121,-435
0,2023-03-01T18:58:39.260414,2108806,889,887,-2215,-1048,-585,-312,63,121,-435
0,2023-03-01T18:58:39.265102,2108810,889,887,-2215,-1048,-585,-312,63,121,-435
0,2023-03-01T18:58:39.270102,2108815,889,887,-2215,-1048,-585,-312,63,121,-435
0,2023-03-01T18:58:39.275896,2108821,894,896,-2209,-1052,-568,-328,63,121,-435
0,2023-03-01T18:58:39.281624,2108826,894,896,-2209,-1052,-568,-328,63,121,-435
0,2023-03-01T18:58:39.286708,2108832,894,896,-2209,-1052,-568,-328,63,121,-435
0,2023-03-01T18:58:39.291565,2108836,894,896,-2209,-1052,-568,-328,63,121,-435
0,2023-03-01T18:58:39.297126,2108843,891,898,-2204,-1051,-568,-315,63,121,-435
0,2023-03-01T18:58:39.302764,2108848,891,898,-2204,-1051,-568,-315,63,121,-435
0,2023-03-01T18:58:39.308143,2108853,891,898,-2204,-1051,-568,-315,63,121,-435
0,2023-03-01T18:58:39.312903,2108858,891,898,-2204,-1051,-568,-315,63,121,-435
0,2023-03-01T18:58:39.318557,2108863,894,898,-2204,-1045,-567,-318,63,119,-441
0,2023-03-01T18:58:39.324839,2108869,894,898,-2204,-1045,-567,-318,63,119,-441
0,2023-03-01T18:58:39.330169,2108875,894,898,-2204,-1045,-567,-318,63,119,-441
0,2023-03-01T18:58:39.336566,2108881,894,894,-2204,-1038,-573,-311,63,119,-441
0,2023-03-01T18:58:39.342338,2108888,894,894,-2204,-1038,-573,-311,63,119,-441
0,2023-03-01T18:58:39.347523,2108893,894,894,-2204,-1038,-573,-311,63,119,-441
0,2023-03-01T18:58:39.352464,2108898,894,894,-2204,-1038,-573,-311,63,119,-441
0,2023-03-01T18:58:39.358080,2108903,893,892,-2208,-1038,-577,-309,63,119,-441
0,2023-03-01T18:58:39.363926,2108909,893,892,-2208,-1038,-577,-309,63,119,-441
0,2023-03-01T18:58:39.368637,2108913,893,892,-2208,-1038,-577,-309,63,119,-441
0,2023-03-01T18:58:39.373438,2108918,893,892,-2208,-1038,-577,-309,63,119,-441
0,2023-03-01T18:58:39.378537,2108923,892,894,-2214,-1030,-573,-318,63,119,-441
0,2023-03-01T18:58:39.384497,2108930,892,894,-2214,-1030,-573,-318,63,119,-441
0,2023-03-01T18:58:39.389335,2108935,892,894,-2214,-1030,-573,-318,63,119,-441
0,2023-03-01T18:58:39.395661,2108941,890,889,-2210,-1039,-572,-325,63,119,-441
0,2023-03-01T18:58:39.401267,2108946,890,889,-2210,-1039,-572,-325,63,119,-441
0,2023-03-01T18:58:39.406063,2108951,890,889,-2210,-1039,-572,-325,63,119,-441
0,2023-03-01T18:58:39.412423,2108957,890,889,-2210,-1039,-572,-325,63,119,-441
0,2023-03-01T18:58:39.418632,2108963,890,893,-2213,-1037,-564,-331,63,119,-441
0,2023-03-01T18:58:39.424587,2108969,890,893,-2213,-1037,-564,-331,63,119,-441
0,2023-03-01T18:58:39.429850,2108975,890,893,-2213,-1037,-564,-331,63,119,-441
0,2023-03-01T18:58:39.436510,2108981,891,894,-2208,-1042,-570,-328,63,119,-441
0,2023-03-01T18:58:39.442204,2108987,891,894,-2208,-1042,-570,-328,63,119,-441
0,2023-03-01T18:58:39.447440,2108992,891,894,-2208,-1042,-570,-328,63,119,-441
0,2023-03-01T18:58:39.452284,2108997,891,894,-2208,-1042,-570,-328,63,119,-441
0,2023-03-01T18:58:39.457665,2109003,893,899,-2197,-1045,-566,-319,70,120,-432
0,2023-03-01T18:58:39.463459,2109008,893,899,-2197,-1045,-566,-319,70,120,-432
0,2023-03-01T18:58:39.468811,2109014,893,899,-2197,-1045,-566,-319,70,120,-432
0,2023-03-01T18:58:39.475356,2109021,894,894,-2199,-1038,-573,-317,70,120,-432
0,2023-03-01T18:58:39.481780,2109026,894,894,-2199,-1038,-573,-317,70,120,-432
0,2023-03-01T18:58:39.486932,2109032,894,894,-2199,-1038,-573,-317,70,120,-432
0,2023-03-01T18:58:39.492061,2109037,894,894,-2199,-1038,-573,-317,70,120,-432
0,2023-03-01T18:58:39.497626,2109042,891,891,-2212,-1031,-573,-322,70,120,-432
0,2023-03-01T18:58:39.503521,2109048,891,891,-2212,-1031,-573,-322,70,120,-432
0,2023-03-01T18:58:39.509039,2109053,891,891,-2212,-1031,-573,-322,70,120,-432
0,2023-03-01T18:58:39.515719,2109061,893,894,-2207,-1031,-569,-326,70,120,-432
0,2023-03-01T18:58:39.522206,2109067,893,894,-2207,-1031,-569,-326,70,120,-432
0,2023-03-01T18:58:39.527242,2109072,893,894,-2207,-1031,-569,-326,70,120,-432
0,2023-03-01T18:58:39.532150,2109077,893,894,-2207,-1031,-569,-326,70,120,-432
0,2023-03-01T18:58:39.538407,2109083,893,889,-2209,-1034,-573,-326,70,120,-432
0,2023-03-01T18:58:39.544613,2109089,893,889,-2209,-1034,-573,-326,70,120,-432
0,2023-03-01T18:58:39.549676,2109094,893,889,-2209,-1034,-573,-326,70,120,-432
0,2023-03-01T18:58:39.555701,2109101,892,890,-2206,-1044,-574,-322,70,120,-432
0,2023-03-01T18:58:39.561072,2109106,892,890,-2206,-1044,-574,-322,70,120,-432
0,2023-03-01T18:58:39.566067,2109111,892,890,-2206,-1044,-574,-322,70,120,-432
0,2023-03-01T18:58:39.570984,2109116,892,890,-2206,-1044,-574,-322,70,120,-432
0,2023-03-01T18:58:39.576733,2109121,894,893,-2206,-1045,-570,-324,67,123,-433
0,2023-03-01T18:58:39.582800,2109128,894,893,-2206,-1045,-570,-324,67,123,-433
0,2023-03-01T18:58:39.587628,2109132,894,893,-2206,-1045,-570,-324,67,123,-433
0,2023-03-01T18:58:39.592694,2109137,894,893,-2206,-1045,-570,-324,67,123,-433
0,2023-03-01T18:58:39.597905,2109144,894,896,-2204,-1050,-568,-320,67,123,-433
0,2023-03-01T18:58:39.603460,2109149,894,896,-2204,-1050,-568,-320,67,123,-433
0,2023-03-01T18:58:39.608381,2109153,894,896,-2204,-1050,-568,-320,67,123,-433
0,2023-03-01T18:58:39.614272,2109159,894,896,-2204,-1050,-568,-320,67,123,-433
0,2023-03-01T18:58:39.620208,2109165,894,897,-2207,-1047,-573,-323,67,123,-433
0,2023-03-01T18:58:39.625720,2109171,894,897,-2207,-1047,-573,-323,67,123,-433
0,2023-03-01T18:58:39.630894,2109175,894,897,-2207,-1047,-573,-323,67,123,-433
0,2023-03-01T18:58:39.636631,2109181,890,894,-2200,-1044,-574,-323,67,123,-433
0,2023-03-01T18:58:39.642412,2109188,890,894,-2200,-1044,-574,-323,67,123,-433
0,2023-03-01T18:58:39.647393,2109192,890,894,-2200,-1044,-574,-323,67,123,-433
0,2023-03-01T18:58:39.653748,2109198,890,894,-2200,-1044,-574,-323,67,123,-433
0,2023-03-01T18:58:39.659854,2109205,893,890,-2209,-1033,-573,-320,67,123,-433
0,2023-03-01T18:58:39.665686,2109210,893,890,-2209,-1033,-573,-320,67,123,-433
0,2023-03-01T18:58:39.670267,2109215,893,890,-2209,-1033,-573,-320,67,123,-433
0,2023-03-01T18:58:39.676168,2109221,890,892,-2205,-1031,-573,-324,67,123,-433
0,2023-03-01T18:58:39.681560,2109227,890,892,-2205,-1031,-573,-324,67,123,-433
0,2023-03-01T18:58:39.686632,2109232,890,892,-2205,-1031,-573,-324,67,123,-433
0,2023-03-01T18:58:39.692925,2109238,890,892,-2205,-1031,-573,-324,67,123,-433
0,2023-03-01T18:58:39.698640,2109244,893,890,-2203,-1030,-568,-322,67,123,-433
0,2023-03-01T18:58:39.704073,2109249,893,890,-2203,-1030,-568,-322,67,123,-433
0,2023-03-01T18:58:39.709629,2109254,893,890,-2203,-1030,-568,-322,67,123,-433
0,2023-03-01T18:58:39.715930,2109261,889,897,-2202,-1043,-574,-324,67,123,-433
0,2023-03-01T18:58:39.721861,2109266,889,897,-2202,-1043,-574,-324,67,123,-433
0,2023-03-01T18:58:39.726523,2109272,889,897,-2202,-1043,-574,-324,67,123,-433
0,2023-03-01T18:58:39.731333,2109277,889,897,-2202,-1043,-574,-324,67,123,-433
0,2023-03-01T18:58:39.737455,2109282,893,892,-2207,-1047,-570,-323,67,123,-433
0,2023-03-01T18:58:39.743475,2109288,893,892,-2207,-1047,-570,-323,67,123,-433
0,2023-03-01T18:58:39.748501,2109293,893,892,-2207,-1047,-570,-323,67,123,-433
0,2023-03-01T18:58:39.753431,2109298,893,892,-2207,-1047,-570,-323,67,123,-433
0,2023-03-01T18:58:39.760122,2109305,891,894,-2199,-1038,-573,-332,67,123,-433
0,2023-03-01T18:58:39.766238,2109312,891,894,-2199,-1038,-573,-332,67,123,-433
0,2023-03-01T18:58:39.771414,2109317,891,894,-2199,-1038,-573,-332,67,123,-433
0,2023-03-01T18:58:39.776832,2109322,889,895,-2212,-1038,-576,-320,67,123,-433
0,2023-03-01T18:58:39.782331,2109328,889,895,-2212,-1038,-576,-320,67,123,-433
0,2023-03-01T18:58:39.787332,2109332,889,895,-2212,-1038,-576,-320,67,123,-433
0,2023-03-01T18:58:39.793025,2109338,889,895,-2212,-1038,-576,-320,67,123,-433
0,2023-03-01T18:58:39.798636,2109343,894,894,-2209,-1029,-568,-318,67,123,-433
0,2023-03-01T18:58:39.804285,2109349,894,894,-2209,-1029,-568,-318,67,123,-433
0,2023-03-01T18:58:39.809126,2109355,894,894,-2209,-1029,-568,-318,67,123,-433
0,2023-03-01T18:58:39.815328,2109361,888,893,-2210,-1037,-569,-316,67,123,-433
0,2023-03-01T18:58:39.821073,2109366,888,893,-2210,-1037,-569,-316,67,123,-433
0,2023-03-01T18:58:39.826284,2109371,888,893,-2210,-1037,-569,-316,67,123,-433
0,2023-03-01T18:58:39.831147,2109376,888,893,-2210,-1037,-569,-316,67,123,-433
0,2023-03-01T18:58:39.836984,2109382,891,891,-2206,-1038,-569,-318,69,123,-435
0,2023-03-01T18:58:39.842876,2109387,891,891,-2206,-1038,-569,-318,69,123,-435
0,2023-03-01T18:58:39.847902,2109392,891,891,-2206,-1038,-569,-318,69,123,-435
0,2023-03-01T18:58:39.852663,2109398,891,891,-2206,-1038,-569,-318,69,123,-435
0,2023-03-01T18:58:39.857888,2109403,893,890,-2200,-1042,-574,-323,69,123,-435
0,2023-03-01T18:58:39.863798,2109409,893,890,-2200,-1042,-574,-323,69,123,-435
0,2023-03-01T18:58:39.868808,2109414,893,890,-2200,-1042,-574,-323,69,123,-435
0,2023-03-01T18:58:39.875543,2109420,892,895,-2208,-1041,-574,-326,69,123,-435
0,2023-03-01T18:58:39.880376,2109425,892,895,-2208,-1041,-574,-326,69,123,-435
0,2023-03-01T18:58:39.885503,2109430,892,895,-2208,-1041,-574,-326,69,123,-435
0,2023-03-01T18:58:39.890239,2109435,892,895,-2208,-1041,-574,-326,69,123,-435
0,2023-03-01T18:58:39.896453,2109442,891,896,-2211,-1047,-571,-327,69,123,-435
0,2023-03-01T18:58:39.902190,2109447,891,896,-2211,-1047,-571,-327,69,123,-435
0,2023-03-01T18:58:39.907621,2109453,891,896,-2211,-1047,-571,-327,69,123,-435
0,2023-03-01T18:58:39.913251,2109458,891,896,-2211,-1047,-571,-327,69,123,-435
0,2023-03-01T18:58:39.918948,2109464,888,890,-2208,-1038,-572,-320,69,123,-435
0,2023-03-01T18:58:39.924747,2109469,888,890,-2208,-1038,-572,-320,69,123,-435
0,2023-03-01T18:58:39.929713,2109474,888,890,-2208,-1038,-572,-320,69,123,-435
0,2023-03-01T18:58:39.936487,2109481,894,893,-2209,-1036,-574,-318,69,123,-435
0,2023-03-01T18:58:39.942205,2109488,894,893,-2209,-1036,-574,-318,69,123,-435
0,2023-03-01T18:58:39.947301,2109493,894,893,-2209,-1036,-574,-318,69,123,-435
0,2023-03-01T18:58:39.953106,2109498,894,893,-2209,-1036,-574,-318,69,123,-435
0,2023-03-01T18:58:39.960246,2109504,892,893,-2203,-1038,-570,-325,69,115,-437
0,2023-03-01T18:58:39.966279,2109511,892,893,-2203,-1038,-570,-325,69,115,-437
0,2023-03-01T18:58:39.971620,2109516,892,893,-2203,-1038,-570,-325,69,115,-437
0,2023-03-01T18:58:39.978382,2109523,893,893,-2205,-1037,-569,-330,69,115,-437
0,2023-03-01T18:58:39.985057,2109530,893,893,-2205,-1037,-569,-330,69,115,-437
0,2023-03-01T18:58:39.991371,2109536,893,893,-2205,-1037,-569,-330,69,115,-437
0,2023-03-01T18:58:39.997387,2109542,893,893,-2206,-1038,-573,-324,69,115,-437
0,2023-03-01T18:58:40.003645,2109548,893,893,-2206,-1038,-573,-324,69,115,-437
0,2023-03-01T18:58:40.009206,2109554,893,893,-2206,-1038,-573,-324,69,115,-437
0,2023-03-01T18:58:40.015494,2109560,894,892,-2205,-1038,-568,-330,69,115,-437
0,2023-03-01T18:58:40.022595,2109568,894,892,-2205,-1038,-568,-330,69,115,-437
0,2023-03-01T18:58:40.027990,2109573,894,892,-2205,-1038,-568,-330,69,115,-437
0,2023-03-01T18:58:40.033287,2109578,894,892,-2205,-1038,-568,-330,69,115,-437
0,2023-03-01T18:58:40.039422,2109584,891,892,-2202,-1039,-570,-316,69,115,-437
0,2023-03-01T18:58:40.045219,2109590,891,892,-2202,-1039,-570,-316,69,115,-437
0,2023-03-01T18:58:40.050904,2109595,891,892,-2202,-1039,-570,-316,69,115,-437
0,2023-03-01T18:58:40.057477,2109602,891,894,-2205,-1034,-568,-316,69,115,-437
0,2023-03-01T18:58:40.063423,2109608,891,894,-2205,-1034,-568,-316,69,115,-437
0,2023-03-01T18:58:40.068647,2109614,891,894,-2205,-1034,-568,-316,69,115,-437
0,2023-03-01T18:58:40.074304,2109619,891,894,-2205,-1034,-568,-316,69,115,-437
0,2023-03-01T18:58:40.080277,2109625,891,892,-2209,-1028,-570,-313,69,115,-437
0,2023-03-01T18:58:40.087871,2109633,891,892,-2209,-1028,-570,-313,69,115,-437
0,2023-03-01T18:58:40.093079,2109638,891,892,-2209,-1028,-570,-313,69,115,-437
0,2023-03-01T18:58:40.099596,2109644,890,892,-2206,-1038,-577,-313,64,124,-440
0,2023-03-01T18:58:40.105354,2109650,890,892,-2206,-1038,-577,-313,64,124,-440
0,2023-03-01T18:58:40.110486,2109656,890,892,-2206,-1038,-577,-313,64,124,-440
0,2023-03-01T18:58:40.116181,2109662,893,894,-2208,-1037,-567,-320,64,124,-440
0,2023-03-01T18:58:40.121855,2109667,893,894,-2208,-1037,-567,-320,64,124,-440
0,2023-03-01T18:58:40.126823,2109672,893,894,-2208,-1037,-567,-320,64,124,-440
0,2023-03-01T18:58:40.132566,2109677,893,894,-2208,-1037,-567,-320,64,124,-440
0,2023-03-01T18:58:40.138601,2109683,890,895,-2207,-1037,-571,-322,64,124,-440
0,2023-03-01T18:58:40.144475,2109689,890,895,-2207,-1037,-571,-322,64,124,-440
0,2023-03-01T18:58:40.149882,2109694,890,895,-2207,-1037,-571,-322,64,124,-440
0,2023-03-01T18:58:40.156644,2109702,893,893,-2204,-1037,-568,-315,64,124,-440
0,2023-03-01T18:58:40.163096,2109708,893,893,-2204,-1037,-568,-315,64,124,-440
0,2023-03-01T18:58:40.168427,2109713,893,893,-2204,-1037,-568,-315,64,124,-440
0,2023-03-01T18:58:40.174281,2109719,893,893,-2204,-1037,-568,-315,64,124,-440
0,2023-03-01T18:58:40.180279,2109725,894,895,-2211,-1028,-565,-326,64,124,-440
0,2023-03-01T18:58:40.186273,2109731,894,895,-2211,-1028,-565,-326,64,124,-440
0,2023-03-01T18:58:40.191292,2109736,894,895,-2211,-1028,-565,-326,64,124,-440
0,2023-03-01T18:58:40.198374,2109743,891,897,-2211,-1030,-577,-328,64,124,-440
0,2023-03-01T18:58:40.203948,2109749,891,897,-2211,-1030,-577,-328,64,124,-440
0,2023-03-01T18:58:40.209249,2109754,891,897,-2211,-1030,-577,-328,64,124,-440
0,2023-03-01T18:58:40.215506,2109760,891,893,-2205,-1035,-585,-318,68,124,-440
0,2023-03-01T18:58:40.221820,2109766,891,893,-2205,-1035,-585,-318,68,124,-434
0,2023-03-01T18:58:40.226692,2109771,891,893,-2205,-1035,-585,-318,68,124,-434
0,2023-03-01T18:58:40.232984,2109777,891,893,-2205,-1035,-585,-318,68,124,-434
0,2023-03-01T18:58:40.239253,2109785,894,892,-2210,-1035,-576,-322,68,124,-434
0,2023-03-01T18:58:40.244948,2109790,894,892,-2210,-1035,-576,-322,68,124,-434
0,2023-03-01T18:58:40.250148,2109795,894,892,-2210,-1035,-576,-322,68,124,-434
0,2023-03-01T18:58:40.256448,2109802,890,895,-2211,-1041,-571,-318,68,124,-434
0,2023-03-01T18:58:40.261863,2109807,890,895,-2211,-1041,-571,-318,68,124,-434
0,2023-03-01T18:58:40.267502,2109812,890,895,-2211,-1041,-571,-318,68,124,-434
0,2023-03-01T18:58:40.273662,2109818,890,895,-2211,-1041,-571,-318,68,124,-434
0,2023-03-01T18:58:40.279366,2109825,892,891,-2206,-1043,-571,-317,68,124,-434
0,2023-03-01T18:58:40.285172,2109830,892,891,-2206,-1043,-571,-317,68,124,-434
0,2023-03-01T18:58:40.290460,2109835,892,891,-2206,-1043,-571,-317,68,124,-434
0,2023-03-01T18:58:40.296549,2109841,890,892,-2208,-1047,-570,-322,68,124,-434
0,2023-03-01T18:58:40.302761,2109847,890,892,-2208,-1047,-570,-322,68,124,-434
0,2023-03-01T18:58:40.308447,2109853,890,892,-2208,-1047,-570,-322,68,124,-434
0,2023-03-01T18:58:40.314053,2109859,890,892,-2208,-1047,-570,-322,68,124,-434
0,2023-03-01T18:58:40.319261,2109864,894,894,-2209,-1045,-570,-322,68,124,-434
0,2023-03-01T18:58:40.324643,2109870,894,894,-2209,-1045,-570,-322,68,124,-434
0,2023-03-01T18:58:40.330021,2109875,894,894,-2209,-1045,-570,-322,68,124,-434
0,2023-03-01T18:58:40.335657,2109881,894,894,-2209,-1045,-570,-322,68,124,-434
0,2023-03-01T18:58:40.340659,2109886,892,892,-2211,-1042,-568,-318,68,124,-434
0,2023-03-01T18:58:40.346087,2109891,892,892,-2211,-1042,-568,-318,68,124,-434
0,2023-03-01T18:58:40.351772,2109896,892,892,-2211,-1042,-568,-318,68,124,-434
0,2023-03-01T18:58:40.358265,2109903,890,893,-2203,-1035,-571,-316,76,126,-434
0,2023-03-01T18:58:40.363994,2109910,890,893,-2203,-1035,-571,-316,76,126,-434
0,2023-03-01T18:58:40.368990,2109914,890,893,-2203,-1035,-571,-316,76,126,-434
0,2023-03-01T18:58:40.375105,2109920,890,893,-2203,-1035,-571,-316,76,126,-434
0,2023-03-01T18:58:40.380222,2109925,892,893,-2209,-1033,-574,-320,76,126,-434
0,2023-03-01T18:58:40.385912,2109931,892,893,-2209,-1033,-574,-320,76,126,-434
0,2023-03-01T18:58:40.390838,2109936,892,893,-2209,-1033,-574,-320,76,126,-434
0,2023-03-01T18:58:40.397055,2109942,892,892,-2208,-1034,-570,-315,76,126,-434
0,2023-03-01T18:58:40.402854,2109947,892,892,-2208,-1034,-570,-315,76,126,-434
0,2023-03-01T18:58:40.407992,2109953,892,892,-2208,-1034,-570,-315,76,126,-434
0,2023-03-01T18:58:40.415885,2109961,891,891,-2207,-1031,-570,-316,76,126,-434
0,2023-03-01T18:58:40.421990,2109967,891,891,-2207,-1031,-570,-316,76,126,-434
0,2023-03-01T18:58:40.427120,2109972,891,891,-2207,-1031,-570,-316,76,126,-434
0,2023-03-01T18:58:40.432316,2109977,891,891,-2207,-1031,-570,-316,76,126,-434
0,2023-03-01T18:58:40.437902,2109983,895,893,-2209,-1035,-566,-320,76,126,-434
0,2023-03-01T18:58:40.444020,2109988,895,893,-2209,-1035,-566,-320,76,126,-434
0,2023-03-01T18:58:40.449104,2109995,895,893,-2209,-1035,-566,-320,76,126,-434
0,2023-03-01T18:58:40.455843,2110001,895,893,-2209,-1035,-566,-320,76,126,-434
0,2023-03-01T18:58:40.460972,2110006,892,893,-2210,-1035,-569,-316,76,126,-434
0,2023-03-01T18:58:40.467493,2110012,892,893,-2210,-1035,-569,-316,76,126,-434
0,2023-03-01T18:58:40.473439,2110018,892,893,-2210,-1035,-569,-316,76,126,-434
0,2023-03-01T18:58:40.478252,2110023,892,894,-2204,-1043,-573,-322,68,118,-428
0,2023-03-01T18:58:40.483836,2110029,892,894,-2204,-1043,-573,-322,68,118,-428
0,2023-03-01T18:58:40.489540,2110033,892,894,-2204,-1043,-573,-322,68,118,-428
0,2023-03-01T18:58:40.495805,2110041,892,894,-2204,-1043,-573,-322,68,118,-428
0,2023-03-01T18:58:40.502060,2110047,892,891,-2200,-1037,-575,-321,68,118,-428
0,2023-03-01T18:58:40.508214,2110053,892,891,-2200,-1037,-575,-321,68,118,-428
0,2023-03-01T18:58:40.513334,2110058,892,891,-2200,-1037,-575,-321,68,118,-428
0,2023-03-01T18:58:40.519988,2110064,892,892,-2201,-1046,-571,-319,68,118,-428
0,2023-03-01T18:58:40.525332,2110070,892,892,-2201,-1046,-571,-319,68,118,-428
0,2023-03-01T18:58:40.530663,2110075,892,892,-2201,-1046,-571,-319,68,118,-428
0,2023-03-01T18:58:40.536324,2110082,890,891,-2212,-1040,-578,-322,68,118,-428
0,2023-03-01T18:58:40.542171,2110087,890,891,-2212,-1040,-578,-322,68,118,-428
0,2023-03-01T18:58:40.547413,2110092,890,891,-2212,-1040,-578,-322,68,118,-428
0,2023-03-01T18:58:40.553052,2110098,890,891,-2212,-1040,-578,-322,68,118,-428
0,2023-03-01T18:58:40.558558,2110104,890,891,-2208,-1040,-570,-324,68,118,-428
0,2023-03-01T18:58:40.564017,2110109,890,891,-2208,-1040,-570,-324,68,118,-428
0,2023-03-01T18:58:40.569222,2110114,890,891,-2208,-1040,-570,-324,68,118,-428
0,2023-03-01T18:58:40.575692,2110120,890,891,-2208,-1040,-570,-324,68,118,-428
0,2023-03-01T18:58:40.580653,2110126,892,891,-2203,-1047,-571,-324,68,118,-428
0,2023-03-01T18:58:40.586512,2110132,892,891,-2203,-1047,-571,-324,68,118,-428
0,2023-03-01T18:58:40.591293,2110137,892,891,-2203,-1047,-571,-324,68,118,-428
0,2023-03-01T18:58:40.597090,2110142,891,892,-2201,-1045,-569,-328,68,124,-440
0,2023-03-01T18:58:40.602404,2110147,891,892,-2201,-1045,-569,-328,68,124,-440
0,2023-03-01T18:58:40.607878,2110152,891,892,-2201,-1045,-569,-328,68,124,-440
0,2023-03-01T18:58:40.613607,2110158,891,892,-2201,-1045,-569,-328,68,124,-440
0,2023-03-01T18:58:40.618774,2110163,891,896,-2209,-1039,-577,-314,68,124,-440
0,2023-03-01T18:58:40.624124,2110170,891,896,-2209,-1039,-577,-314,68,124,-440
0,2023-03-01T18:58:40.629163,2110174,891,896,-2209,-1039,-577,-314,68,124,-440
0,2023-03-01T18:58:40.636592,2110182,890,894,-2206,-1037,-568,-323,68,124,-440
0,2023-03-01T18:58:40.642179,2110187,890,894,-2206,-1037,-568,-323,68,124,-440
0,2023-03-01T18:58:40.646953,2110192,890,894,-2206,-1037,-568,-323,68,124,-440
0,2023-03-01T18:58:40.652791,2110198,890,894,-2206,-1037,-568,-323,68,124,-440
0,2023-03-01T18:58:40.658245,2110203,893,893,-2203,-1039,-566,-318,68,124,-440
0,2023-03-01T18:58:40.664438,2110210,893,893,-2203,-1039,-566,-318,68,124,-440
0,2023-03-01T18:58:40.669279,2110215,893,893,-2203,-1039,-566,-318,68,124,-440
0,2023-03-01T18:58:40.673658,2110219,893,893,-2203,-1039,-566,-318,68,124,-440
0,2023-03-01T18:58:40.678715,2110224,890,891,-2207,-1034,-570,-315,68,124,-440
0,2023-03-01T18:58:40.684658,2110230,890,891,-2207,-1034,-570,-315,68,124,-440
0,2023-03-01T18:58:40.689551,2110234,890,891,-2207,-1034,-570,-315,68,124,-440
0,2023-03-01T18:58:40.696206,2110240,890,891,-2207,-1034,-570,-315,68,124,-440
0,2023-03-01T18:58:40.701214,2110246,892,891,-2210,-1035,-569,-327,68,124,-440
0,2023-03-01T18:58:40.706652,2110252,892,891,-2210,-1035,-569,-327,68,124,-440
0,2023-03-01T18:58:40.711557,2110257,892,891,-2210,-1035,-569,-327,68,124,-440
0,2023-03-01T18:58:40.717636,2110263,891,893,-2210,-1042,-577,-316,68,124,-440
0,2023-03-01T18:58:40.723501,2110269,891,893,-2210,-1042,-577,-316,68,124,-440
0,2023-03-01T18:58:40.728723,2110274,891,893,-2210,-1042,-577,-316,68,124,-440
0,2023-03-01T18:58:40.733942,2110278,891,893,-2210,-1042,-577,-316,68,124,-440
0,2023-03-01T18:58:40.740589,2110284,891,893,-2207,-1037,-578,-316,69,117,-441
0,2023-03-01T18:58:40.747277,2110292,891,893,-2207,-1037,-578,-316,69,117,-441
0,2023-03-01T18:58:40.752858,2110298,891,893,-2207,-1037,-578,-316,69,117,-441
0,2023-03-01T18:58:40.758244,2110304,896,895,-2204,-1043,-573,-328,69,117,-441
0,2023-03-01T18:58:40.763824,2110309,896,895,-2204,-1043,-573,-328,69,117,-441
0,2023-03-01T18:58:40.769457,2110314,896,895,-2204,-1043,-573,-328,69,117,-441
0,2023-03-01T18:58:40.775429,2110320,896,895,-2204,-1043,-573,-328,69,117,-441
0,2023-03-01T18:58:40.781028,2110326,893,892,-2212,-1035,-567,-333,69,117,-441
0,2023-03-01T18:58:40.786253,2110331,893,892,-2212,-1035,-567,-333,69,117,-441
0,2023-03-01T18:58:40.791444,2110337,893,892,-2212,-1035,-567,-333,69,117,-441
0,2023-03-01T18:58:40.797817,2110343,892,893,-2205,-1043,-570,-328,69,117,-441
0,2023-03-01T18:58:40.803662,2110349,892,893,-2205,-1043,-570,-328,69,117,-441
0,2023-03-01T18:58:40.808885,2110354,892,893,-2205,-1043,-570,-328,69,117,-441
0,2023-03-01T18:58:40.813773,2110359,892,893,-2205,-1043,-570,-328,69,117,-441
0,2023-03-01T18:58:40.819234,2110364,891,893,-2204,-1036,-574,-326,69,117,-441
0,2023-03-01T18:58:40.824929,2110370,891,893,-2204,-1036,-574,-326,69,117,-441
0,2023-03-01T18:58:40.830322,2110375,891,893,-2204,-1036,-574,-326,69,117,-441
0,2023-03-01T18:58:40.836241,2110382,891,894,-2212,-1026,-573,-327,69,117,-441
0,2023-03-01T18:58:40.841852,2110387,891,894,-2212,-1026,-573,-327,69,117,-441
0,2023-03-01T18:58:40.846670,2110392,891,894,-2212,-1026,-573,-327,69,117,-441
0,2023-03-01T18:58:40.851755,2110397,891,894,-2212,-1026,-573,-327,69,117,-441
0,2023-03-01T18:58:40.856756,2110402,892,892,-2210,-1044,-571,-320,70,120,-436
0,2023-03-01T18:58:40.862771,2110407,892,892,-2210,-1044,-571,-320,70,120,-436
0,2023-03-01T18:58:40.867636,2110412,892,892,-2210,-1044,-571,-320,70,120,-436
0,2023-03-01T18:58:40.872495,2110417,892,892,-2210,-1044,-571,-320,70,120,-436
0,2023-03-01T18:58:40.878904,2110424,889,893,-2205,-1048,-565,-328,70,120,-436
0,2023-03-01T18:58:40.884529,2110430,889,893,-2205,-1048,-565,-328,70,120,-436
0,2023-03-01T18:58:40.889528,2110435,889,893,-2205,-1048,-565,-328,70,120,-436
0,2023-03-01T18:58:40.895207,2110440,889,893,-2205,-1048,-565,-328,70,120,-436
0,2023-03-01T18:58:40.900137,2110445,892,894,-2208,-1043,-567,-327,70,120,-436
0,2023-03-01T18:58:40.905730,2110451,892,894,-2208,-1043,-567,-327,70,120,-436
0,2023-03-01T18:58:40.910699,2110456,892,894,-2208,-1043,-567,-327,70,120,-436
0,2023-03-01T18:58:40.916152,2110461,892,893,-2205,-1038,-569,-325,70,120,-436
0,2023-03-01T18:58:40.921696,2110467,892,893,-2205,-1038,-569,-325,70,120,-436
0,2023-03-01T18:58:40.926845,2110472,892,893,-2205,-1038,-569,-325,70,120,-436
0,2023-03-01T18:58:40.931546,2110477,892,893,-2205,-1038,-569,-325,70,120,-436
0,2023-03-01T18:58:40.937899,2110483,893,893,-2207,-1036,-575,-320,70,120,-436
0,2023-03-01T18:58:40.944150,2110489,893,893,-2207,-1036,-575,-320,70,120,-436
0,2023-03-01T18:58:40.949193,2110494,893,893,-2207,-1036,-575,-320,70,120,-436
0,2023-03-01T18:58:40.955592,2110500,893,893,-2207,-1036,-575,-320,70,120,-436
0,2023-03-01T18:58:40.960940,2110505,890,890,-2210,-1033,-571,-317,70,120,-436
0,2023-03-01T18:58:40.968092,2110513,890,890,-2210,-1033,-571,-317,70,120,-436
0,2023-03-01T18:58:40.973514,2110519,890,890,-2210,-1033,-571,-317,70,120,-436
0,2023-03-01T18:58:40.980209,2110524,895,895,-2209,-1037,-571,-318,70,120,-436
0,2023-03-01T18:58:40.986190,2110531,895,895,-2209,-1037,-571,-318,70,120,-436
0,2023-03-01T18:58:40.991862,2110536,895,895,-2209,-1037,-571,-318,70,120,-436
0,2023-03-01T18:58:40.998201,2110543,892,892,-2209,-1041,-569,-316,71,117,-437
0,2023-03-01T18:58:41.004084,2110550,892,892,-2209,-1041,-569,-316,71,117,-437
0,2023-03-01T18:58:41.009495,2110555,892,892,-2209,-1041,-569,-316,71,117,-437
0,2023-03-01T18:58:41.015332,2110561,892,892,-2209,-1041,-569,-316,71,117,-437
0,2023-03-01T18:58:41.020539,2110565,892,895,-2205,-1039,-567,-323,71,117,-437
0,2023-03-01T18:58:41.026443,2110572,892,895,-2205,-1039,-567,-323,71,117,-437
0,2023-03-01T18:58:41.031356,2110576,892,895,-2205,-1039,-567,-323,71,117,-437
0,2023-03-01T18:58:41.036848,2110581,887,891,-2202,-1033,-573,-325,71,117,-437
0,2023-03-01T18:58:41.041618,2110586,887,891,-2202,-1033,-573,-325,71,117,-437
0,2023-03-01T18:58:41.046742,2110592,887,891,-2202,-1033,-573,-325,71,117,-437
0,2023-03-01T18:58:41.052072,2110597,887,891,-2202,-1033,-573,-325,71,117,-437
0,2023-03-01T18:58:41.057945,2110603,890,895,-2209,-1036,-576,-327,71,117,-437
0,2023-03-01T18:58:41.063541,2110609,890,895,-2209,-1036,-576,-327,71,117,-437
0,2023-03-01T18:58:41.068478,2110614,890,895,-2209,-1036,-576,-327,71,117,-437
0,2023-03-01T18:58:41.073507,2110618,890,895,-2209,-1036,-576,-327,71,117,-437
0,2023-03-01T18:58:41.079472,2110624,890,893,-2211,-1044,-578,-323,71,117,-437
0,2023-03-01T18:58:41.085404,2110630,890,893,-2211,-1044,-578,-323,71,117,-437
0,2023-03-01T18:58:41.090851,2110636,890,893,-2211,-1044,-578,-323,71,117,-437
0,2023-03-01T18:58:41.097285,2110643,892,894,-2206,-1037,-573,-325,71,117,-437
0,2023-03-01T18:58:41.102964,2110648,892,894,-2206,-1037,-573,-325,71,117,-437
0,2023-03-01T18:58:41.108048,2110653,892,894,-2206,-1037,-573,-325,71,117,-437
0,2023-03-01T18:58:41.112900,2110658,892,894,-2206,-1037,-573,-325,71,117,-437
0,2023-03-01T18:58:41.118261,2110663,893,891,-2203,-1037,-569,-324,73,123,-445
0,2023-03-01T18:58:41.123578,2110668,893,891,-2203,-1037,-569,-324,73,123,-445
0,2023-03-01T18:58:41.128853,2110673,893,891,-2203,-1037,-569,-324,73,123,-445
0,2023-03-01T18:58:41.133838,2110679,893,891,-2203,-1037,-569,-324,73,123,-445
0,2023-03-01T18:58:41.139202,2110685,892,893,-2204,-1040,-566,-317,73,123,-445
0,2023-03-01T18:58:41.144885,2110690,892,893,-2204,-1040,-566,-317,73,123,-445
0,2023-03-01T18:58:41.149721,2110695,892,893,-2204,-1040,-566,-317,73,123,-445
0,2023-03-01T18:58:41.154470,2110700,892,893,-2204,-1040,-566,-317,73,123,-445
0,2023-03-01T18:58:41.159498,2110704,894,895,-2202,-1037,-573,-320,73,123,-445
0,2023-03-01T18:58:41.165317,2110710,894,895,-2202,-1037,-573,-320,73,123,-445
0,2023-03-01T18:58:41.170908,2110715,894,895,-2202,-1037,-573,-320,73,123,-445
0,2023-03-01T18:58:41.177784,2110723,891,890,-2207,-1042,-574,-322,73,123,-445
0,2023-03-01T18:58:41.183889,2110729,891,890,-2207,-1042,-574,-322,73,123,-445
0,2023-03-01T18:58:41.189414,2110734,891,890,-2207,-1042,-574,-322,73,123,-445
0,2023-03-01T18:58:41.195798,2110740,891,890,-2207,-1042,-574,-322,73,123,-445
0,2023-03-01T18:58:41.201841,2110747,889,893,-2209,-1047,-570,-322,73,123,-445
0,2023-03-01T18:58:41.208555,2110753,889,893,-2209,-1047,-570,-322,73,123,-445
0,2023-03-01T18:58:41.214583,2110759,889,893,-2209,-1047,-570,-322,73,123,-445
0,2023-03-01T18:58:41.220531,2110766,893,893,-2210,-1040,-568,-324,73,123,-445
0,2023-03-01T18:58:41.226849,2110772,893,893,-2210,-1040,-568,-324,73,123,-445
0,2023-03-01T18:58:41.232430,2110777,893,893,-2210,-1040,-568,-324,73,123,-445
0,2023-03-01T18:58:41.239319,2110784,892,894,-2213,-1034,-570,-326,73,123,-445
0,2023-03-01T18:58:41.245822,2110790,892,894,-2213,-1034,-570,-326,73,123,-445
0,2023-03-01T18:58:41.251010,2110796,892,894,-2213,-1034,-570,-326,73,123,-445
0,2023-03-01T18:58:41.257231,2110802,892,894,-2213,-1034,-570,-326,69,119,-443
0,2023-03-01T18:58:41.261885,2110807,892,894,-2213,-1034,-570,-326,69,119,-443
0,2023-03-01T18:58:41.267447,2110813,892,894,-2213,-1034,-570,-326,69,119,-443
0,2023-03-01T18:58:41.272470,2110818,892,894,-2213,-1034,-570,-326,69,119,-443
0,2023-03-01T18:58:41.278298,2110823,892,892,-2205,-1035,-574,-326,69,119,-443
0,2023-03-01T18:58:41.284089,2110829,892,892,-2205,-1035,-574,-326,69,119,-443
0,2023-03-01T18:58:41.291304,2110836,892,892,-2205,-1035,-574,-326,69,119,-443
0,2023-03-01T18:58:41.297257,2110842,894,892,-2201,-1041,-577,-321,69,119,-443
0,2023-03-01T18:58:41.303143,2110849,894,892,-2201,-1041,-577,-321,69,119,-443
0,2023-03-01T18:58:41.308597,2110854,894,892,-2201,-1041,-577,-321,69,119,-443
0,2023-03-01T18:58:41.313420,2110859,894,892,-2201,-1041,-577,-321,69,119,-443
0,2023-03-01T18:58:41.319119,2110864,893,892,-2210,-1041,-573,-322,69,119,-443
0,2023-03-01T18:58:41.324641,2110870,893,892,-2210,-1041,-573,-322,69,119,-443
0,2023-03-01T18:58:41.329746,2110874,893,892,-2210,-1041,-573,-322,69,119,-443
0,2023-03-01T18:58:41.335788,2110881,893,892,-2210,-1041,-573,-322,69,119,-443
0,2023-03-01T18:58:41.340721,2110885,891,891,-2213,-1042,-570,-318,69,119,-443
0,2023-03-01T18:58:41.346170,2110892,891,891,-2213,-1042,-570,-318,69,119,-443
0,2023-03-01T18:58:41.351320,2110897,891,891,-2213,-1042,-570,-318,69,119,-443
0,2023-03-01T18:58:41.358436,2110904,892,891,-2205,-1035,-573,-313,69,119,-443
0,2023-03-01T18:58:41.364016,2110909,892,891,-2205,-1035,-573,-313,69,119,-443
0,2023-03-01T18:58:41.368887,2110914,892,891,-2205,-1035,-573,-313,69,119,-443
0,2023-03-01T18:58:41.373623,2110919,892,891,-2205,-1035,-573,-313,69,119,-443
0,2023-03-01T18:58:41.378486,2110923,894,896,-2206,-1036,-584,-323,59,125,-439
0,2023-03-01T18:58:41.384911,2110929,894,896,-2206,-1036,-584,-323,59,125,-439
0,2023-03-01T18:58:41.390016,2110935,894,896,-2206,-1036,-584,-323,59,125,-439
0,2023-03-01T18:58:41.396688,2110942,894,896,-2206,-1036,-584,-323,59,125,-439
0,2023-03-01T18:58:41.402366,2110948,892,890,-2210,-1028,-575,-320,59,125,-439
0,2023-03-01T18:58:41.408394,2110953,892,890,-2210,-1028,-575,-320,59,125,-439
0,2023-03-01T18:58:41.413719,2110958,892,890,-2210,-1028,-575,-320,59,125,-439
0,2023-03-01T18:58:41.419443,2110964,892,893,-2207,-1029,-570,-319,59,125,-439
0,2023-03-01T18:58:41.424881,2110970,892,893,-2207,-1029,-570,-319,59,125,-439
0,2023-03-01T18:58:41.429910,2110974,892,893,-2207,-1029,-570,-319,59,125,-439
0,2023-03-01T18:58:41.436528,2110982,892,893,-2207,-1029,-570,-319,59,125,-439
0,2023-03-01T18:58:41.441384,2110987,891,893,-2211,-1037,-561,-326,59,125,-439
0,2023-03-01T18:58:41.447670,2110992,891,893,-2211,-1037,-561,-326,59,125,-439
0,2023-03-01T18:58:41.452575,2110998,891,893,-2211,-1037,-561,-326,59,125,-439
0,2023-03-01T18:58:41.458794,2111004,889,893,-2206,-1041,-568,-323,59,125,-439
0,2023-03-01T18:58:41.465578,2111010,889,893,-2206,-1041,-568,-323,59,125,-439
0,2023-03-01T18:58:41.470519,2111015,889,893,-2206,-1041,-568,-323,59,125,-439
0,2023-03-01T18:58:41.476943,2111022,889,893,-2206,-1041,-568,-323,59,125,-439
0,2023-03-01T18:58:41.482151,2111027,892,892,-2203,-1040,-579,-320,59,125,-439
0,2023-03-01T18:58:41.488436,2111033,892,892,-2203,-1040,-579,-320,59,125,-439
0,2023-03-01T18:58:41.493327,2111038,892,892,-2203,-1040,-579,-320,59,125,-439
0,2023-03-01T18:58:41.499487,2111044,892,894,-2209,-1052,-576,-320,73,123,-435
0,2023-03-01T18:58:41.505935,2111050,892,894,-2209,-1052,-576,-320,73,123,-435
0,2023-03-01T18:58:41.511197,2111056,892,894,-2209,-1052,-576,-320,73,123,-435
0,2023-03-01T18:58:41.516969,2111062,892,894,-2209,-1052,-576,-320,73,123,-435
0,2023-03-01T18:58:41.522119,2111067,890,889,-2203,-1047,-576,-328,73,123,-435
0,2023-03-01T18:58:41.528554,2111074,890,889,-2203,-1047,-576,-328,73,123,-435
0,2023-03-01T18:58:41.533452,2111079,890,889,-2203,-1047,-576,-328,73,123,-435
0,2023-03-01T18:58:41.539343,2111084,892,896,-2205,-1039,-572,-326,73,123,-435
0,2023-03-01T18:58:41.545307,2111090,892,896,-2205,-1039,-572,-326,73,123,-435
0,2023-03-01T18:58:41.550334,2111095,892,896,-2205,-1039,-572,-326,73,123,-435
0,2023-03-01T18:58:41.557698,2111102,892,894,-2209,-1049,-571,-320,73,123,-435
0,2023-03-01T18:58:41.563888,2111109,892,894,-2209,-1049,-571,-320,73,123,-435
0,2023-03-01T18:58:41.569462,2111115,892,894,-2209,-1049,-571,-320,73,123,-435
0,2023-03-01T18:58:41.576298,2111121,892,894,-2209,-1049,-571,-320,73,123,-435
0,2023-03-01T18:58:41.581387,2111126,892,891,-2201,-1044,-579,-324,73,123,-435
0,2023-03-01T18:58:41.587147,2111132,892,891,-2201,-1044,-579,-324,73,123,-435
0,2023-03-01T18:58:41.592386,2111137,892,891,-2201,-1044,-579,-324,73,123,-435
0,2023-03-01T18:58:41.597973,2111143,892,892,-2207,-1033,-573,-326,73,123,-435
0,2023-03-01T18:58:41.603346,2111149,892,892,-2207,-1033,-573,-326,73,123,-435
0,2023-03-01T18:58:41.608758,2111154,892,892,-2207,-1033,-573,-326,73,123,-435
0,2023-03-01T18:58:41.614436,2111159,892,892,-2207,-1033,-573,-326,73,123,-435
0,2023-03-01T18:58:41.620139,2111165,890,895,-2203,-1041,-574,-330,73,123,-435
0,2023-03-01T18:58:41.625853,2111171,890,895,-2203,-1041,-574,-330,73,123,-435
0,2023-03-01T18:58:41.630952,2111176,890,895,-2203,-1041,-574,-330,73,123,-435
0,2023-03-01T18:58:41.637561,2111182,890,895,-2203,-1041,-574,-330,71,123,-435
0,2023-03-01T18:58:41.642231,2111187,890,895,-2203,-1041,-574,-330,71,127,-437
0,2023-03-01T18:58:41.646888,2111193,890,895,-2203,-1041,-574,-330,71,127,-437
0,2023-03-01T18:58:41.651595,2111197,890,895,-2203,-1041,-574,-330,71,127,-437
0,2023-03-01T18:58:41.657418,2111203,892,895,-2207,-1042,-574,-321,71,127,-437
0,2023-03-01T18:58:41.662772,2111208,892,895,-2207,-1042,-574,-321,71,127,-437
0,2023-03-01T18:58:41.667648,2111213,892,895,-2207,-1042,-574,-321,71,127,-437
0,2023-03-01T18:58:41.672781,2111217,892,895,-2207,-1042,-574,-321,71,127,-437
0,2023-03-01T18:58:41.678108,2111223,891,893,-2209,-1033,-576,-327,71,127,-437
0,2023-03-01T18:58:41.682920,2111228,891,893,-2209,-1033,-576,-327,71,127,-437
0,2023-03-01T18:58:41.687830,2111233,891,893,-2209,-1033,-576,-327,71,127,-437
0,2023-03-01T18:58:41.693410,2111239,891,893,-2209,-1033,-576,-327,71,127,-437
0,2023-03-01T18:58:41.699664,2111245,891,891,-2208,-1038,-575,-329,71,127,-437
0,2023-03-01T18:58:41.704945,2111250,891,891,-2208,-1038,-575,-329,71,127,-437
0,2023-03-01T18:58:41.710057,2111255,891,891,-2208,-1038,-575,-329,71,127,-437
0,2023-03-01T18:58:41.715091,2111260,891,891,-2208,-1038,-575,-329,71,127,-437
0,2023-03-01T18:58:41.720405,2111265,892,890,-2212,-1035,-568,-327,71,127,-437
0,2023-03-01T18:58:41.726235,2111271,892,890,-2212,-1035,-568,-327,71,127,-437
0,2023-03-01T18:58:41.731470,2111277,892,890,-2212,-1035,-568,-327,71,127,-437
0,2023-03-01T18:58:41.737088,2111283,891,894,-2209,-1034,-568,-325,71,127,-437
0,2023-03-01T18:58:41.742289,2111288,891,894,-2209,-1034,-568,-325,71,127,-437
0,2023-03-01T18:58:41.747353,2111292,891,894,-2209,-1034,-568,-325,71,127,-437
0,2023-03-01T18:58:41.752662,2111298,891,894,-2209,-1034,-568,-325,71,127,-437
0,2023-03-01T18:58:41.758806,2111304,891,893,-2208,-1035,-565,-318,68,118,-440
0,2023-03-01T18:58:41.764420,2111309,891,893,-2208,-1035,-565,-318,68,118,-440
0,2023-03-01T18:58:41.768880,2111314,891,893,-2208,-1035,-565,-318,68,118,-440
0,2023-03-01T18:58:41.773938,2111319,891,893,-2208,-1035,-565,-318,68,118,-440
0,2023-03-01T18:58:41.779587,2111325,889,894,-2207,-1044,-572,-320,68,118,-440
0,2023-03-01T18:58:41.785593,2111331,889,894,-2207,-1044,-572,-320,68,118,-440
0,2023-03-01T18:58:41.790252,2111336,889,894,-2207,-1044,-572,-320,68,118,-440
0,2023-03-01T18:58:41.796156,2111341,889,894,-2207,-1044,-572,-320,68,118,-440
0,2023-03-01T18:58:41.801262,2111346,889,895,-2207,-1045,-572,-319,68,118,-440
0,2023-03-01T18:58:41.808074,2111352,889,895,-2207,-1045,-572,-319,68,118,-440
0,2023-03-01T18:58:41.813013,2111358,889,895,-2207,-1045,-572,-319,68,118,-440
0,2023-03-01T18:58:41.818875,2111365,890,893,-2208,-1039,-576,-318,68,118,-440
0,2023-03-01T18:58:41.824320,2111370,890,893,-2208,-1039,-576,-318,68,118,-440
0,2023-03-01T18:58:41.829938,2111375,890,893,-2208,-1039,-576,-318,68,118,-440
0,2023-03-01T18:58:41.835859,2111381,890,893,-2208,-1039,-576,-318,68,118,-440
0,2023-03-01T18:58:41.841049,2111386,889,892,-2206,-1040,-567,-320,68,118,-440
0,2023-03-01T18:58:41.847013,2111392,889,892,-2206,-1040,-567,-320,68,118,-440
0,2023-03-01T18:58:41.852201,2111397,889,892,-2206,-1040,-567,-320,68,118,-440
0,2023-03-01T18:58:41.858353,2111404,888,893,-2211,-1037,-573,-326,68,118,-440
0,2023-03-01T18:58:41.864590,2111410,888,893,-2211,-1037,-573,-326,68,118,-440
0,2023-03-01T18:58:41.869738,2111415,888,893,-2211,-1037,-573,-326,68,118,-440
0,2023-03-01T18:58:41.875603,2111421,888,893,-2211,-1037,-573,-326,68,118,-440
0,2023-03-01T18:58:41.880327,2111426,891,894,-2208,-1038,-574,-321,68,118,-440
0,2023-03-01T18:58:41.885868,2111431,891,894,-2208,-1038,-574,-321,68,118,-440
0,2023-03-01T18:58:41.890763,2111436,891,894,-2208,-1038,-574,-321,68,118,-440
0,2023-03-01T18:58:41.896962,2111442,891,894,-2208,-1038,-574,-321,68,118,-440
0,2023-03-01T18:58:41.901736,2111447,890,893,-2200,-1034,-572,-315,57,121,-437
0,2023-03-01T18:58:41.907400,2111453,890,893,-2200,-1034,-572,-315,57,121,-437
0,2023-03-01T18:58:41.912495,2111458,890,893,-2200,-1034,-572,-315,57,121,-437
0,2023-03-01T18:58:41.919373,2111464,893,889,-2202,-1037,-577,-319,57,121,-437
0,2023-03-01T18:58:41.924952,2111470,893,889,-2202,-1037,-577,-319,57,121,-437
0,2023-03-01T18:58:41.930052,2111475,893,889,-2202,-1037,-577,-319,57,121,-437
0,2023-03-01T18:58:41.936375,2111481,893,889,-2202,-1037,-577,-319,57,121,-437
0,2023-03-01T18:58:41.941153,2111486,891,894,-2203,-1038,-573,-324,57,121,-437
0,2023-03-01T18:58:41.947670,2111492,891,894,-2203,-1038,-573,-324,57,121,-437
0,2023-03-01T18:58:41.953290,2111498,891,894,-2203,-1038,-573,-324,57,121,-437
0,2023-03-01T18:58:41.959031,2111504,893,893,-2211,-1049,-572,-320,57,121,-437
0,2023-03-01T18:58:41.964623,2111509,893,893,-2211,-1049,-572,-320,57,121,-437
0,2023-03-01T18:58:41.969626,2111514,893,893,-2211,-1049,-572,-320,57,121,-437
0,2023-03-01T18:58:41.976047,2111521,893,893,-2211,-1049,-572,-320,57,121,-437
0,2023-03-01T18:58:41.981313,2111526,893,894,-2207,-1043,-576,-314,57,121,-437
0,2023-03-01T18:58:41.986719,2111532,893,894,-2207,-1043,-576,-314,57,121,-437
0,2023-03-01T18:58:41.991781,2111537,893,894,-2207,-1043,-576,-314,57,121,-437
0,2023-03-01T18:58:41.998476,2111544,891,888,-2207,-1038,-570,-320,57,121,-437
0,2023-03-01T18:58:42.004455,2111549,891,888,-2207,-1038,-570,-320,57,121,-437
0,2023-03-01T18:58:42.009453,2111554,891,888,-2207,-1038,-570,-320,57,121,-437
0,2023-03-01T18:58:42.014255,2111559,891,888,-2207,-1038,-570,-320,57,121,-437
0,2023-03-01T18:58:42.020136,2111565,891,892,-2203,-1044,-568,-322,67,121,-439
0,2023-03-01T18:58:42.025560,2111570,891,892,-2203,-1044,-568,-322,67,121,-439
0,2023-03-01T18:58:42.030293,2111576,891,892,-2203,-1044,-568,-322,67,121,-439
0,2023-03-01T18:58:42.036782,2111582,891,892,-2203,-1044,-568,-322,67,121,-439
0,2023-03-01T18:58:42.042208,2111588,893,891,-2210,-1041,-570,-322,67,121,-439
0,2023-03-01T18:58:42.048057,2111593,893,891,-2210,-1041,-570,-322,67,121,-439
0,2023-03-01T18:58:42.053010,2111598,893,891,-2210,-1041,-570,-322,67,121,-439
0,2023-03-01T18:58:42.059935,2111604,892,893,-2204,-1031,-564,-320,67,121,-439
0,2023-03-01T18:58:42.066046,2111611,892,893,-2204,-1031,-564,-320,67,121,-439
0,2023-03-01T18:58:42.070876,2111617,892,893,-2204,-1031,-564,-320,67,121,-439
0,2023-03-01T18:58:42.077030,2111622,892,893,-2204,-1031,-564,-320,67,121,-439
0,2023-03-01T18:58:42.082349,2111628,892,894,-2210,-1043,-570,-321,67,121,-439
0,2023-03-01T18:58:42.088509,2111634,892,894,-2210,-1043,-570,-321,67,121,-439
0,2023-03-01T18:58:42.094923,2111639,892,894,-2210,-1043,-570,-321,67,121,-439
0,2023-03-01T18:58:42.100244,2111645,894,896,-2210,-1034,-573,-317,67,121,-439
0,2023-03-01T18:58:42.105413,2111650,894,896,-2210,-1034,-573,-317,67,121,-439
0,2023-03-01T18:58:42.110202,2111655,894,896,-2210,-1034,-573,-317,67,121,-439
0,2023-03-01T18:58:42.116140,2111661,894,896,-2210,-1034,-573,-317,67,121,-439
0,2023-03-01T18:58:42.121418,2111667,891,894,-2205,-1041,-574,-318,67,121,-439
0,2023-03-01T18:58:42.126975,2111672,891,894,-2205,-1041,-574,-318,67,121,-439
0,2023-03-01T18:58:42.132164,2111677,891,894,-2205,-1041,-574,-318,67,121,-439
0,2023-03-01T18:58:42.138662,2111683,891,893,-2205,-1036,-571,-321,67,121,-439
0,2023-03-01T18:58:42.144540,2111689,891,893,-2205,-1036,-571,-321,67,121,-439
0,2023-03-01T18:58:42.149604,2111694,891,893,-2205,-1036,-571,-321,67,121,-439
0,2023-03-01T18:58:42.155281,2111700,891,893,-2205,-1036,-571,-321,67,121,-439
0,2023-03-01T18:58:42.159970,2111706,892,899,-2209,-1038,-568,-320,68,122,-430
0,2023-03-01T18:58:42.165288,2111711,892,899,-2209,-1038,-568,-320,68,122,-430
0,2023-03-01T18:58:42.172084,2111717,892,899,-2209,-1038,-568,-320,68,122,-430
0,2023-03-01T18:58:42.179004,2111724,889,892,-2204,-1034,-567,-317,68,122,-430
0,2023-03-01T18:58:42.184332,2111729,889,892,-2204,-1034,-567,-317,68,122,-430
0,2023-03-01T18:58:42.189207,2111734,889,892,-2204,-1034,-567,-317,68,122,-430
0,2023-03-01T18:58:42.195178,2111740,889,892,-2204,-1034,-567,-317,68,122,-430
0,2023-03-01T18:58:42.200684,2111746,892,895,-2204,-1034,-576,-321,68,122,-430
0,2023-03-01T18:58:42.206441,2111752,892,895,-2204,-1034,-576,-321,68,122,-430
0,2023-03-01T18:58:42.211906,2111757,892,895,-2204,-1034,-576,-321,68,122,-430
0,2023-03-01T18:58:42.219489,2111765,892,892,-2209,-1031,-579,-330,68,122,-430
0,2023-03-01T18:58:42.226604,2111771,892,892,-2209,-1031,-579,-330,68,122,-430
0,2023-03-01T18:58:42.231841,2111777,892,892,-2209,-1031,-579,-330,68,122,-430
0,2023-03-01T18:58:42.237787,2111783,894,893,-2211,-1033,-567,-322,68,122,-430
0,2023-03-01T18:58:42.243458,2111789,894,893,-2211,-1033,-567,-322,68,122,-430
0,2023-03-01T18:58:42.248635,2111794,894,893,-2211,-1033,-567,-322,68,122,-430
0,2023-03-01T18:58:42.253703,2111799,894,893,-2211,-1033,-567,-322,68,122,-430
0,2023-03-01T18:58:42.259322,2111804,893,893,-2205,-1039,-572,-325,68,122,-430
0,2023-03-01T18:58:42.265162,2111810,893,893,-2205,-1039,-572,-325,68,122,-430
0,2023-03-01T18:58:42.269965,2111815,893,893,-2205,-1039,-572,-325,68,122,-430
0,2023-03-01T18:58:42.276492,2111821,893,893,-2205,-1039,-572,-325,68,122,-430
0,2023-03-01T18:58:42.283342,2111828,894,893,-2203,-1040,-577,-325,70,122,-436
0,2023-03-01T18:58:42.289244,2111835,894,893,-2203,-1040,-577,-325,70,122,-436
0,2023-03-01T18:58:42.295060,2111841,894,893,-2203,-1040,-577,-325,70,122,-436
0,2023-03-01T18:58:42.300442,2111846,892,894,-2204,-1045,-579,-321,70,122,-436
0,2023-03-01T18:58:42.305517,2111851,892,894,-2204,-1045,-579,-321,70,122,-436
0,2023-03-01T18:58:42.310334,2111855,892,894,-2204,-1045,-579,-321,70,122,-436
0,2023-03-01T18:58:42.316506,2111861,892,894,-2204,-1045,-579,-321,70,122,-436
0,2023-03-01T18:58:42.321322,2111866,894,893,-2208,-1039,-568,-321,70,122,-436
0,2023-03-01T18:58:42.326942,2111873,894,893,-2208,-1039,-568,-321,70,122,-436
0,2023-03-01T18:58:42.331781,2111877,894,893,-2208,-1039,-568,-321,70,122,-436
0,2023-03-01T18:58:42.337821,2111883,894,893,-2208,-1039,-568,-321,70,122,-436
0,2023-03-01T18:58:42.343834,2111888,891,893,-2197,-1037,-572,-328,70,122,-436
0,2023-03-01T18:58:42.349301,2111895,891,893,-2197,-1037,-572,-328,70,122,-436
0,2023-03-01T18:58:42.355613,2111901,891,893,-2197,-1037,-572,-328,70,122,-436
0,2023-03-01T18:58:42.360213,2111905,892,892,-2208,-1031,-569,-325,70,122,-436
0,2023-03-01T18:58:42.365808,2111910,892,892,-2208,-1031,-569,-325,70,122,-436
0,2023-03-01T18:58:42.371047,2111916,892,892,-2208,-1031,-569,-325,70,122,-436
0,2023-03-01T18:58:42.376092,2111922,892,892,-2208,-1031,-569,-325,70,122,-436
0,2023-03-01T18:58:42.381043,2111926,893,888,-2208,-1030,-567,-324,70,122,-436
0,2023-03-01T18:58:42.386844,2111932,893,888,-2208,-1030,-567,-324,70,122,-436
0,2023-03-01T18:58:42.391732,2111937,893,888,-2208,-1030,-567,-324,70,122,-436
0,2023-03-01T18:58:42.398389,2111943,891,894,-2210,-1037,-569,-320,70,122,-436
0,2023-03-01T18:58:42.404069,2111949,891,894,-2210,-1037,-569,-320,66,124,-440
0,2023-03-01T18:58:42.408921,2111954,891,894,-2210,-1037,-569,-320,66,124,-440
0,2023-03-01T18:58:42.413576,2111959,891,894,-2210,-1037,-569,-320,66,124,-440
0,2023-03-01T18:58:42.419061,2111964,896,891,-2204,-1034,-567,-316,66,124,-440
0,2023-03-01T18:58:42.424567,2111970,896,891,-2204,-1034,-567,-316,66,124,-440
0,2023-03-01T18:58:42.429536,2111975,896,891,-2204,-1034,-567,-316,66,124,-440
0,2023-03-01T18:58:42.435003,2111980,896,891,-2204,-1034,-567,-316,66,124,-440
0,2023-03-01T18:58:42.439788,2111985,893,892,-2201,-1039,-572,-317,66,124,-440
0,2023-03-01T18:58:42.445666,2111990,893,892,-2201,-1039,-572,-317,66,124,-440
0,2023-03-01T18:58:42.450269,2111995,893,892,-2201,-1039,-572,-317,66,124,-440
0,2023-03-01T18:58:42.456130,2112002,893,892,-2201,-1039,-572,-317,66,124,-440
0,2023-03-01T18:58:42.461837,2112007,894,896,-2204,-1048,-578,-318,66,124,-440
0,2023-03-01T18:58:42.467768,2112013,894,896,-2204,-1048,-578,-318,66,124,-440
0,2023-03-01T18:58:42.473690,2112019,894,896,-2204,-1048,-578,-318,66,124,-440
0,2023-03-01T18:58:42.479823,2112025,892,894,-2209,-1045,-574,-325,66,124,-440
0,2023-03-01T18:58:42.486140,2112031,892,894,-2209,-1045,-574,-325,66,124,-440
0,2023-03-01T18:58:42.491262,2112036,892,894,-2209,-1045,-574,-325,66,124,-440
0,2023-03-01T18:58:42.497269,2112043,892,894,-2209,-1045,-574,-325,66,124,-440
0,2023-03-01T18:58:42.502744,2112048,892,891,-2204,-1037,-571,-326,66,124,-440
0,2023-03-01T18:58:42.507874,2112053,892,891,-2204,-1037,-571,-326,66,124,-440
0,2023-03-01T18:58:42.513020,2112058,892,891,-2204,-1037,-571,-326,66,124,-440
0,2023-03-01T18:58:42.519289,2112064,889,892,-2206,-1042,-571,-315,66,124,-440
0,2023-03-01T18:58:42.524969,2112070,889,892,-2206,-1042,-571,-315,66,124,-440
0,2023-03-01T18:58:42.529836,2112075,889,892,-2206,-1042,-571,-315,66,124,-440
0,2023-03-01T18:58:42.536091,2112081,889,892,-2206,-1042,-571,-315,66,124,-440
0,2023-03-01T18:58:42.541808,2112087,891,896,-2203,-1035,-572,-319,70,116,-434
0,2023-03-01T18:58:42.547610,2112093,891,896,-2203,-1035,-572,-319,70,116,-434
0,2023-03-01T18:58:42.552952,2112098,891,896,-2203,-1035,-572,-319,70,116,-434
0,2023-03-01T18:58:42.559324,2112104,893,895,-2206,-1031,-572,-310,70,116,-434
0,2023-03-01T18:58:42.565298,2112110,893,895,-2206,-1031,-572,-310,70,116,-434
0,2023-03-01T18:58:42.570755,2112116,893,895,-2206,-1031,-572,-310,70,116,-434
0,2023-03-01T18:58:42.576964,2112122,893,895,-2206,-1031,-572,-310,70,116,-434
0,2023-03-01T18:58:42.582173,2112128,891,894,-2205,-1037,-569,-321,70,116,-434
0,2023-03-01T18:58:42.587710,2112133,891,894,-2205,-1037,-569,-321,70,116,-434
0,2023-03-01T18:58:42.592638,2112138,891,894,-2205,-1037,-569,-321,70,116,-434
0,2023-03-01T18:58:42.598720,2112144,892,893,-2205,-1035,-575,-319,70,116,-434
0,2023-03-01T18:58:42.606559,2112151,892,893,-2205,-1035,-575,-319,70,116,-434
0,2023-03-01T18:58:42.611998,2112156,892,893,-2205,-1035,-575,-319,70,116,-434
0,2023-03-01T18:58:42.617867,2112163,892,893,-2205,-1035,-575,-319,70,116,-434
0,2023-03-01T18:58:42.623117,2112168,896,894,-2209,-1041,-571,-321,70,116,-434
0,2023-03-01T18:58:42.628735,2112174,896,894,-2209,-1041,-571,-321,70,116,-434
0,2023-03-01T18:58:42.634714,2112180,896,894,-2209,-1041,-571,-321,70,116,-434
0,2023-03-01T18:58:42.640027,2112185,895,891,-2204,-1031,-571,-318,70,116,-434
0,2023-03-01T18:58:42.645867,2112191,895,891,-2204,-1031,-571,-318,70,116,-434
0,2023-03-01T18:58:42.650905,2112196,895,891,-2204,-1031,-571,-318,70,116,-434
0,2023-03-01T18:58:42.656925,2112202,895,891,-2204,-1031,-571,-318,70,116,-434
0,2023-03-01T18:58:42.661916,2112207,891,890,-2206,-1030,-572,-327,76,124,-446
0,2023-03-01T18:58:42.668105,2112212,891,890,-2206,-1030,-572,-327,76,124,-446
0,2023-03-01T18:58:42.673154,2112219,891,890,-2206,-1030,-572,-327,76,124,-446
0,2023-03-01T18:58:42.679588,2112225,890,895,-2206,-1039,-571,-327,76,124,-446
0,2023-03-01T18:58:42.685254,2112231,890,895,-2206,-1039,-571,-327,76,124,-446
0,2023-03-01T18:58:42.690378,2112235,890,895,-2206,-1039,-571,-327,76,124,-446
0,2023-03-01T18:58:42.696294,2112241,890,895,-2206,-1039,-571,-327,76,124,-446
0,2023-03-01T18:58:42.701240,2112246,892,893,-2205,-1040,-573,-319,76,124,-446
0,2023-03-01T18:58:42.707519,2112252,892,893,-2205,-1040,-573,-319,76,124,-446
0,2023-03-01T18:58:42.712634,2112258,892,893,-2205,-1040,-573,-319,76,124,-446
0,2023-03-01T18:58:42.719235,2112264,891,894,-2211,-1036,-567,-316,76,124,-446
0,2023-03-01T18:58:42.724716,2112270,891,894,-2211,-1036,-567,-316,76,124,-446
0,2023-03-01T18:58:42.729756,2112275,891,894,-2211,-1036,-567,-316,76,124,-446
0,2023-03-01T18:58:42.735760,2112281,891,894,-2211,-1036,-567,-316,76,124,-446
0,2023-03-01T18:58:42.740312,2112286,894,895,-2205,-1035,-573,-318,76,124,-446
0,2023-03-01T18:58:42.746125,2112290,894,895,-2205,-1035,-573,-318,76,124,-446
0,2023-03-01T18:58:42.751438,2112296,894,895,-2205,-1035,-573,-318,76,124,-446
0,2023-03-01T18:58:42.756105,2112302,894,895,-2205,-1035,-573,-318,76,124,-446
0,2023-03-01T18:58:42.761186,2112307,893,891,-2206,-1023,-562,-322,76,124,-446
0,2023-03-01T18:58:42.766557,2112312,893,891,-2206,-1023,-562,-322,76,124,-446
0,2023-03-01T18:58:42.771113,2112317,893,891,-2206,-1023,-562,-322,76,124,-446
0,2023-03-01T18:58:42.777192,2112322,893,891,-2206,-1023,-562,-322,76,124,-446
0,2023-03-01T18:58:42.782383,2112327,892,892,-2210,-1035,-571,-326,76,124,-446
0,2023-03-01T18:58:42.788389,2112333,892,892,-2210,-1035,-571,-326,76,124,-446
0,2023-03-01T18:58:42.793993,2112339,892,892,-2210,-1035,-571,-326,76,124,-446
0,2023-03-01T18:58:42.799947,2112346,893,891,-2203,-1039,-579,-326,59,125,-439
0,2023-03-01T18:58:42.806057,2112351,893,891,-2203,-1039,-579,-326,59,125,-439
0,2023-03-01T18:58:42.811225,2112356,893,891,-2203,-1039,-579,-326,59,125,-439
0,2023-03-01T18:58:42.817791,2112363,893,891,-2203,-1039,-579,-326,59,125,-439
0,2023-03-01T18:58:42.822682,2112368,890,894,-2207,-1042,-575,-322,59,125,-439
0,2023-03-01T18:58:42.828656,2112373,890,894,-2207,-1042,-575,-322,59,125,-439
0,2023-03-01T18:58:42.833259,2112378,890,894,-2207,-1042,-575,-322,59,125,-439
0,2023-03-01T18:58:42.838079,2112384,890,894,-2207,-1042,-575,-322,59,125,-439
0,2023-03-01T18:58:42.844436,2112390,892,891,-2210,-1036,-567,-317,59,125,-439
0,2023-03-01T18:58:42.849812,2112395,892,891,-2210,-1036,-567,-317,59,125,-439
0,2023-03-01T18:58:42.855597,2112401,892,891,-2210,-1036,-567,-317,59,125,-439
0,2023-03-01T18:58:42.860619,2112406,895,894,-2214,-1030,-572,-316,59,125,-439
0,2023-03-01T18:58:42.866365,2112411,895,894,-2214,-1030,-572,-316,59,125,-439
0,2023-03-01T18:58:42.871583,2112416,895,894,-2214,-1030,-572,-316,59,125,-439
0,2023-03-01T18:58:42.877645,2112422,895,894,-2214,-1030,-572,-316,59,125,-439
0,2023-03-01T18:58:42.882627,2112428,893,891,-2209,-1027,-574,-319,59,125,-439
0,2023-03-01T18:58:42.888217,2112434,893,891,-2209,-1027,-574,-319,59,125,-439
0,2023-03-01T18:58:42.893248,2112439,893,891,-2209,-1027,-574,-319,59,125,-439
0,2023-03-01T18:58:42.899025,2112444,890,895,-2205,-1030,-566,-321,59,125,-439
0,2023-03-01T18:58:42.904884,2112450,890,895,-2205,-1030,-566,-321,59,125,-439
0,2023-03-01T18:58:42.909713,2112455,890,895,-2205,-1030,-566,-321,59,125,-439
0,2023-03-01T18:58:42.915886,2112461,890,895,-2205,-1030,-566,-321,59,125,-439
0,2023-03-01T18:58:42.920760,2112466,892,892,-2207,-1036,-568,-316,68,120,-440
0,2023-03-01T18:58:42.925979,2112472,892,892,-2207,-1036,-568,-316,68,120,-440
0,2023-03-01T18:58:42.931022,2112476,892,892,-2207,-1036,-568,-316,68,120,-440
0,2023-03-01T18:58:42.937049,2112482,892,892,-2207,-1036,-568,-316,68,120,-440
0,2023-03-01T18:58:42.942166,2112487,892,891,-2198,-1038,-570,-320,68,120,-440
0,2023-03-01T18:58:42.947912,2112493,892,891,-2198,-1038,-570,-320,68,120,-440
0,2023-03-01T18:58:42.953076,2112498,892,891,-2198,-1038,-570,-320,68,120,-440
0,2023-03-01T18:58:42.959647,2112504,888,891,-2209,-1038,-565,-322,68,120,-440
0,2023-03-01T18:58:42.965163,2112510,888,891,-2209,-1038,-565,-322,68,120,-440
0,2023-03-01T18:58:42.970533,2112516,888,891,-2209,-1038,-565,-322,68,120,-440
0,2023-03-01T18:58:42.976836,2112522,888,891,-2209,-1038,-565,-322,68,120,-440
0,2023-03-01T18:58:42.981596,2112527,894,894,-2208,-1045,-574,-319,68,120,-440
0,2023-03-01T18:58:42.986872,2112532,894,894,-2208,-1045,-574,-319,68,120,-440
0,2023-03-01T18:58:42.991717,2112537,894,894,-2208,-1045,-574,-319,68,120,-440
0,2023-03-01T18:58:42.998115,2112543,894,894,-2208,-1045,-574,-319,68,120,-440
0,2023-03-01T18:58:43.003138,2112548,893,893,-2205,-1036,-570,-323,68,120,-440
0,2023-03-01T18:58:43.009441,2112555,893,893,-2205,-1036,-570,-323,68,120,-440
0,2023-03-01T18:58:43.014474,2112560,893,893,-2205,-1036,-570,-323,68,120,-440
0,2023-03-01T18:58:43.020182,2112565,893,893,-2209,-1039,-567,-318,68,120,-440
0,2023-03-01T18:58:43.026149,2112572,893,893,-2209,-1039,-567,-318,68,120,-440
0,2023-03-01T18:58:43.031369,2112576,893,893,-2209,-1039,-567,-318,68,120,-440
0,2023-03-01T18:58:43.038463,2112583,893,893,-2209,-1039,-567,-318,68,120,-440
0,2023-03-01T18:58:43.043225,2112588,892,895,-2211,-1040,-575,-320,66,122,-436
0,2023-03-01T18:58:43.048935,2112594,892,895,-2211,-1040,-575,-320,66,122,-436
0,2023-03-01T18:58:43.053806,2112599,892,895,-2211,-1040,-575,-320,66,122,-436
0,2023-03-01T18:58:43.059478,2112605,891,894,-2200,-1038,-572,-325,66,122,-436
0,2023-03-01T18:58:43.069555,2112615,891,894,-2200,-1038,-572,-325,66,122,-436
0,2023-03-01T18:58:43.075032,2112620,891,894,-2200,-1038,-572,-325,66,122,-436
0,2023-03-01T18:58:43.081330,2112626,894,893,-2208,-1030,-570,-321,66,122,-436
0,2023-03-01T18:58:43.087407,2112632,894,893,-2208,-1030,-570,-321,66,122,-436
0,2023-03-01T18:58:43.092529,2112637,894,893,-2208,-1030,-570,-321,66,122,-436
0,2023-03-01T18:58:43.098190,2112644,894,893,-2208,-1030,-570,-321,66,122,-436
0,2023-03-01T18:58:43.103621,2112649,892,892,-2201,-1036,-571,-319,66,122,-436
0,2023-03-01T18:58:43.109421,2112654,892,892,-2201,-1036,-571,-319,66,122,-436
0,2023-03-01T18:58:43.114584,2112659,892,892,-2201,-1036,-571,-319,66,122,-436
0,2023-03-01T18:58:43.119468,2112664,891,892,-2207,-1041,-569,-315,66,122,-436
0,2023-03-01T18:58:43.125886,2112671,891,892,-2207,-1041,-569,-315,66,122,-436
0,2023-03-01T18:58:43.130844,2112676,891,892,-2207,-1041,-569,-315,66,122,-436
0,2023-03-01T18:58:43.137335,2112681,891,892,-2207,-1041,-569,-315,66,122,-436
0,2023-03-01T18:58:43.142335,2112688,891,893,-2207,-1040,-567,-319,66,122,-436
0,2023-03-01T18:58:43.149079,2112694,891,893,-2207,-1040,-567,-319,66,122,-436
0,2023-03-01T18:58:43.154370,2112699,891,893,-2207,-1040,-567,-319,66,122,-436
0,2023-03-01T18:58:43.160181,2112705,891,893,-2208,-1048,-571,-321,66,122,-436
0,2023-03-01T18:58:43.165671,2112711,891,893,-2208,-1048,-571,-321,66,122,-436
0,2023-03-01T18:58:43.170705,2112715,891,893,-2208,-1048,-571,-321,66,122,-436
0,2023-03-01T18:58:43.176727,2112721,891,893,-2208,-1048,-571,-321,66,122,-436
0,2023-03-01T18:58:43.181700,2112728,889,892,-2202,-1039,-573,-321,66,124,-436
0,2023-03-01T18:58:43.187094,2112733,889,892,-2202,-1039,-573,-321,66,124,-436
0,2023-03-01T18:58:43.192030,2112737,889,892,-2202,-1039,-573,-321,66,124,-436
0,2023-03-01T18:58:43.198384,2112743,889,892,-2202,-1039,-573,-321,66,124,-436
0,2023-03-01T18:58:43.204549,2112749,895,893,-2209,-1043,-572,-318,66,124,-436
0,2023-03-01T18:58:43.210379,2112755,895,893,-2209,-1043,-572,-318,66,124,-436
0,2023-03-01T18:58:43.215793,2112761,895,893,-2209,-1043,-572,-318,66,124,-436
0,2023-03-01T18:58:43.220720,2112765,894,892,-2207,-1035,-575,-316,66,124,-436
0,2023-03-01T18:58:43.226503,2112772,894,892,-2207,-1035,-575,-316,66,124,-436
0,2023-03-01T18:58:43.231712,2112777,894,892,-2207,-1035,-575,-316,66,124,-436
0,2023-03-01T18:58:43.238176,2112783,894,892,-2207,-1035,-575,-316,66,124,-436
0,2023-03-01T18:58:43.243498,2112789,890,890,-2211,-1039,-561,-326,66,124,-436
0,2023-03-01T18:58:43.250098,2112795,890,890,-2211,-1039,-561,-326,66,124,-436
0,2023-03-01T18:58:43.255714,2112800,890,890,-2211,-1039,-561,-326,66,124,-436
0,2023-03-01T18:58:43.260967,2112805,888,891,-2209,-1039,-568,-322,66,124,-436
0,2023-03-01T18:58:43.267414,2112813,888,891,-2209,-1039,-568,-322,66,124,-436
0,2023-03-01T18:58:43.272436,2112818,888,891,-2209,-1039,-568,-322,66,124,-436
0,2023-03-01T18:58:43.278470,2112824,888,891,-2209,-1039,-568,-322,66,124,-436
0,2023-03-01T18:58:43.283393,2112829,893,893,-2212,-1035,-568,-325,66,124,-436
0,2023-03-01T18:58:43.289283,2112834,893,893,-2212,-1035,-568,-325,66,124,-436
0,2023-03-01T18:58:43.295142,2112840,893,893,-2212,-1035,-568,-325,66,124,-436
0,2023-03-01T18:58:43.300748,2112846,891,894,-2210,-1035,-570,-317,67,119,-433
0,2023-03-01T18:58:43.305793,2112851,891,894,-2210,-1035,-570,-317,67,119,-433
0,2023-03-01T18:58:43.310751,2112856,891,894,-2210,-1035,-570,-317,67,119,-433
0,2023-03-01T18:58:43.316963,2112862,891,894,-2210,-1035,-570,-317,67,119,-433
0,2023-03-01T18:58:43.322498,2112867,889,894,-2213,-1046,-571,-318,67,119,-433
0,2023-03-01T18:58:43.328422,2112874,889,894,-2213,-1046,-571,-318,67,119,-433
0,2023-03-01T18:58:43.333282,2112878,889,894,-2213,-1046,-571,-318,67,119,-433
0,2023-03-01T18:58:43.338781,2112884,889,894,-2213,-1046,-571,-318,67,119,-433
0,2023-03-01T18:58:43.343470,2112888,889,892,-2211,-1039,-568,-325,67,119,-433
0,2023-03-01T18:58:43.349645,2112894,889,892,-2211,-1039,-568,-325,67,119,-433
0,2023-03-01T18:58:43.354384,2112900,889,892,-2211,-1039,-568,-325,67,119,-433
0,2023-03-01T18:58:43.359963,2112906,892,895,-2207,-1036,-566,-327,67,119,-433
0,2023-03-01T18:58:43.365205,2112911,892,895,-2207,-1036,-566,-327,67,119,-433
0,2023-03-01T18:58:43.372715,2112917,892,895,-2207,-1036,-566,-327,67,119,-433
0,2023-03-01T18:58:43.379048,2112924,892,895,-2207,-1036,-566,-327,67,119,-433
0,2023-03-01T18:58:43.383669,2112929,889,892,-2203,-1042,-568,-325,67,119,-433
0,2023-03-01T18:58:43.389225,2112934,889,892,-2203,-1042,-568,-325,67,119,-433
0,2023-03-01T18:58:43.394077,2112940,889,892,-2203,-1042,-568,-325,67,119,-433
0,2023-03-01T18:58:43.399961,2112945,892,894,-2209,-1042,-572,-326,67,119,-433
0,2023-03-01T18:58:43.405774,2112951,892,894,-2209,-1042,-572,-326,67,119,-433
0,2023-03-01T18:58:43.410284,2112956,892,894,-2209,-1042,-572,-326,67,119,-433
0,2023-03-01T18:58:43.416064,2112961,892,894,-2209,-1042,-572,-326,67,119,-433
0,2023-03-01T18:58:43.420988,2112966,892,894,-2209,-1042,-572,-326,67,119,-433
0,2023-03-01T18:58:43.425879,2112971,892,894,-2209,-1042,-572,-326,67,119,-433
0,2023-03-01T18:58:43.431243,2112976,892,894,-2209,-1042,-572,-326,67,119,-433
0,2023-03-01T18:58:43.437503,2112983,892,894,-2209,-1042,-572,-326,67,119,-433
0,2023-03-01T18:58:43.443622,2112989,889,893,-2205,-1038,-570,-325,67,125,-435
0,2023-03-01T18:58:43.449537,2112995,889,893,-2205,-1038,-570,-325,67,125,-435
0,2023-03-01T18:58:43.455130,2113000,889,893,-2205,-1038,-570,-325,67,125,-435
0,2023-03-01T18:58:43.461110,2113006,890,896,-2206,-1036,-575,-329,67,125,-435
0,2023-03-01T18:58:43.466980,2113012,890,896,-2206,-1036,-575,-329,67,125,-435
0,2023-03-01T18:58:43.471710,2113017,890,896,-2206,-1036,-575,-329,67,125,-435
0,2023-03-01T18:58:43.477559,2113022,890,896,-2206,-1036,-575,-329,67,125,-435
0,2023-03-01T18:58:43.483012,2113028,892,889,-2207,-1032,-573,-325,67,125,-435
0,2023-03-01T18:58:43.488800,2113034,892,889,-2207,-1032,-573,-325,67,125,-435
0,2023-03-01T18:58:43.493753,2113039,892,889,-2207,-1032,-573,-325,67,125,-435
0,2023-03-01T18:58:43.499789,2113045,890,891,-2211,-1028,-569,-327,67,125,-435
0,2023-03-01T18:58:43.505636,2113050,890,891,-2211,-1028,-569,-327,67,125,-435
0,2023-03-01T18:58:43.510545,2113055,890,891,-2211,-1028,-569,-327,67,125,-435
0,2023-03-01T18:58:43.516732,2113062,890,891,-2211,-1028,-569,-327,67,125,-435
0,2023-03-01T18:58:43.522000,2113068,893,890,-2205,-1032,-573,-325,67,125,-435
0,2023-03-01T18:58:43.527451,2113073,893,890,-2205,-1032,-573,-325,67,125,-435
0,2023-03-01T18:58:43.532221,2113078,893,890,-2205,-1032,-573,-325,67,125,-435
0,2023-03-01T18:58:43.539477,2113083,893,890,-2205,-1032,-573,-325,67,125,-435
0,2023-03-01T18:58:43.544481,2113090,892,893,-2207,-1043,-573,-319,67,125,-435
0,2023-03-01T18:58:43.550271,2113095,892,893,-2207,-1043,-573,-319,67,125,-435
0,2023-03-01T18:58:43.556109,2113101,892,893,-2207,-1043,-573,-319,67,125,-435
0,2023-03-01T18:58:43.561332,2113106,891,893,-2202,-1044,-573,-319,65,129,-429
0,2023-03-01T18:58:43.567154,2113112,891,893,-2202,-1044,-573,-319,65,129,-429
0,2023-03-01T18:58:43.572303,2113118,891,893,-2202,-1044,-573,-319,65,129,-429
0,2023-03-01T18:58:43.577748,2113123,891,893,-2202,-1044,-573,-319,65,129,-429
0,2023-03-01T18:58:43.583116,2113128,893,894,-2203,-1032,-573,-321,65,129,-429
0,2023-03-01T18:58:43.589937,2113134,893,894,-2203,-1032,-573,-321,65,129,-429
0,2023-03-01T18:58:43.595355,2113140,893,894,-2203,-1032,-573,-321,65,129,-429
0,2023-03-01T18:58:43.601888,2113147,894,891,-2206,-1034,-573,-324,65,129,-429
0,2023-03-01T18:58:43.607609,2113153,894,891,-2206,-1034,-573,-324,65,129,-429
0,2023-03-01T18:58:43.612409,2113158,894,891,-2206,-1034,-573,-324,65,129,-429
0,2023-03-01T18:58:43.617773,2113163,894,891,-2206,-1034,-573,-324,65,129,-429
0,2023-03-01T18:58:43.622444,2113168,890,894,-2204,-1035,-568,-323,65,129,-429
0,2023-03-01T18:58:43.628722,2113173,890,894,-2204,-1035,-568,-323,65,129,-429
0,2023-03-01T18:58:43.633717,2113179,890,894,-2204,-1035,-568,-323,65,129,-429
0,2023-03-01T18:58:43.640359,2113185,890,895,-2207,-1034,-569,-329,65,129,-429
0,2023-03-01T18:58:43.645943,2113190,890,895,-2207,-1034,-569,-329,65,129,-429
0,2023-03-01T18:58:43.650964,2113197,890,895,-2207,-1034,-569,-329,65,129,-429
0,2023-03-01T18:58:43.657832,2113203,890,895,-2207,-1034,-569,-329,65,129,-429
0,2023-03-01T18:58:43.662909,2113208,888,893,-2210,-1035,-568,-326,65,129,-429
0,2023-03-01T18:58:43.668742,2113214,888,893,-2210,-1035,-568,-326,65,129,-429
0,2023-03-01T18:58:43.673561,2113219,888,893,-2210,-1035,-568,-326,65,129,-429
0,2023-03-01T18:58:43.679642,2113224,888,893,-2210,-1035,-568,-326,65,129,-429
0,2023-03-01T18:58:43.684685,2113230,888,895,-2213,-1042,-577,-322,65,129,-429
0,2023-03-01T18:58:43.690366,2113235,888,895,-2213,-1042,-577,-322,65,129,-429
0,2023-03-01T18:58:43.696568,2113242,888,895,-2213,-1042,-577,-322,65,129,-429
0,2023-03-01T18:58:43.701828,2113247,888,895,-2213,-1042,-577,-322,64,128,-432
0,2023-03-01T18:58:43.706673,2113252,888,895,-2213,-1042,-577,-322,64,128,-432
0,2023-03-01T18:58:43.711733,2113257,888,895,-2213,-1042,-577,-322,64,128,-432
0,2023-03-01T18:58:43.718390,2113263,888,895,-2213,-1042,-577,-322,64,128,-432
0,2023-03-01T18:58:43.723259,2113268,892,893,-2205,-1034,-568,-327,64,128,-432
0,2023-03-01T18:58:43.728632,2113273,892,893,-2205,-1034,-568,-327,64,128,-432
0,2023-03-01T18:58:43.733479,2113278,892,893,-2205,-1034,-568,-327,64,128,-432
0,2023-03-01T18:58:43.740045,2113285,892,893,-2205,-1034,-568,-327,64,128,-432
0,2023-03-01T18:58:43.745427,2113291,892,892,-2211,-1043,-570,-325,64,128,-432
0,2023-03-01T18:58:43.750993,2113296,892,892,-2211,-1043,-570,-325,64,128,-432
0,2023-03-01T18:58:43.756436,2113301,892,892,-2211,-1043,-570,-325,64,128,-432
0,2023-03-01T18:58:43.761983,2113307,892,893,-2209,-1045,-576,-322,64,128,-432
0,2023-03-01T18:58:43.767858,2113313,892,893,-2209,-1045,-576,-322,64,128,-432
0,2023-03-01T18:58:43.773769,2113318,892,893,-2209,-1045,-576,-322,64,128,-432
0,2023-03-01T18:58:43.779740,2113325,891,889,-2204,-1038,-571,-323,64,128,-432
0,2023-03-01T18:58:43.785296,2113331,891,889,-2204,-1038,-571,-323,64,128,-432
0,2023-03-01T18:58:43.790108,2113336,891,889,-2204,-1038,-571,-323,64,128,-432
0,2023-03-01T18:58:43.796856,2113342,891,889,-2204,-1038,-571,-323,64,128,-432
0,2023-03-01T18:58:43.801697,2113347,891,893,-2206,-1040,-572,-323,64,128,-432
0,2023-03-01T18:58:43.808922,2113354,891,893,-2206,-1040,-572,-323,64,128,-432
0,2023-03-01T18:58:43.813871,2113359,891,893,-2206,-1040,-572,-323,64,128,-432
0,2023-03-01T18:58:43.820575,2113366,891,893,-2204,-1042,-570,-327,69,125,-433
0,2023-03-01T18:58:43.826893,2113372,891,893,-2204,-1042,-570,-327,69,125,-433
0,2023-03-01T18:58:43.831495,2113377,891,893,-2204,-1042,-570,-327,69,125,-433
0,2023-03-01T18:58:43.837039,2113383,891,893,-2204,-1042,-570,-327,69,125,-433
0,2023-03-01T18:58:43.842097,2113387,891,891,-2202,-1039,-569,-323,69,125,-433
0,2023-03-01T18:58:43.847189,2113392,891,891,-2202,-1039,-569,-323,69,125,-433
0,2023-03-01T18:58:43.852038,2113397,891,891,-2202,-1039,-569,-323,69,125,-433
0,2023-03-01T18:58:43.857648,2113402,891,891,-2202,-1039,-569,-323,69,125,-433
0,2023-03-01T18:58:43.862545,2113409,892,891,-2207,-1035,-567,-323,69,125,-433
0,2023-03-01T18:58:43.867929,2113414,892,891,-2207,-1035,-567,-323,69,125,-433
0,2023-03-01T18:58:43.872939,2113418,892,891,-2207,-1035,-567,-323,69,125,-433
0,2023-03-01T18:58:43.879882,2113425,892,891,-2207,-1035,-567,-323,69,125,-433
0,2023-03-01T18:58:43.884694,2113430,892,891,-2209,-1024,-572,-323,69,125,-433
0,2023-03-01T18:58:43.890001,2113435,892,891,-2209,-1024,-572,-323,69,125,-433
0,2023-03-01T18:58:43.896074,2113441,892,891,-2209,-1024,-572,-323,69,125,-433
0,2023-03-01T18:58:43.901273,2113446,888,893,-2209,-1032,-574,-317,69,125,-433
0,2023-03-01T18:58:43.907096,2113453,888,893,-2209,-1032,-574,-317,69,125,-433
0,2023-03-01T18:58:43.912932,2113458,888,893,-2209,-1032,-574,-317,69,125,-433
0,2023-03-01T18:58:43.918787,2113464,888,893,-2209,-1032,-574,-317,69,125,-433
0,2023-03-01T18:58:43.923748,2113469,890,894,-2209,-1034,-575,-320,69,125,-433
0,2023-03-01T18:58:43.930001,2113474,890,894,-2209,-1034,-575,-320,69,125,-433
0,2023-03-01T18:58:43.935385,2113480,890,894,-2209,-1034,-575,-320,69,125,-433
0,2023-03-01T18:58:43.940989,2113486,891,892,-2210,-1030,-567,-317,67,117,-443
0,2023-03-01T18:58:43.946266,2113491,891,892,-2210,-1030,-567,-317,67,117,-443
0,2023-03-01T18:58:43.951236,2113497,891,892,-2210,-1030,-567,-317,67,117,-443
0,2023-03-01T18:58:43.956714,2113502,891,892,-2210,-1030,-567,-317,67,117,-443
0,2023-03-01T18:58:43.961706,2113507,890,892,-2205,-1033,-569,-322,67,117,-443
0,2023-03-01T18:58:43.967277,2113513,890,892,-2205,-1033,-569,-322,67,117,-443
0,2023-03-01T18:58:43.971978,2113517,890,892,-2205,-1033,-569,-322,67,117,-443
0,2023-03-01T18:58:43.977612,2113523,890,892,-2205,-1033,-569,-322,67,117,-443
0,2023-03-01T18:58:43.982227,2113527,891,891,-2207,-1032,-577,-319,67,117,-443
0,2023-03-01T18:58:43.987805,2113533,891,891,-2207,-1032,-577,-319,67,117,-443
0,2023-03-01T18:58:43.993090,2113539,891,891,-2207,-1032,-577,-319,67,117,-443
0,2023-03-01T18:58:43.999172,2113545,891,891,-2207,-1032,-577,-319,67,117,-443
0,2023-03-01T18:58:44.003839,2113549,893,892,-2211,-1043,-571,-324,67,117,-443
0,2023-03-01T18:58:44.009510,2113555,893,892,-2211,-1043,-571,-324,67,117,-443
0,2023-03-01T18:58:44.014698,2113560,893,892,-2211,-1043,-571,-324,67,117,-443
0,2023-03-01T18:58:44.021798,2113566,891,893,-2206,-1045,-570,-326,67,117,-443
0,2023-03-01T18:58:44.028680,2113574,891,893,-2206,-1045,-570,-326,67,117,-443
0,2023-03-01T18:58:44.033774,2113580,891,893,-2206,-1045,-570,-326,67,117,-443
0,2023-03-01T18:58:44.039884,2113586,891,893,-2206,-1045,-570,-326,67,117,-443
0,2023-03-01T18:58:44.044751,2113590,888,890,-2206,-1033,-566,-331,67,117,-443
0,2023-03-01T18:58:44.050681,2113596,888,890,-2206,-1033,-566,-331,67,117,-443
0,2023-03-01T18:58:44.056605,2113602,888,890,-2206,-1033,-566,-331,67,117,-443
0,2023-03-01T18:58:44.061211,2113606,889,893,-2208,-1037,-575,-319,67,117,-443
0,2023-03-01T18:58:44.066468,2113612,889,893,-2208,-1037,-575,-319,67,117,-443
0,2023-03-01T18:58:44.071566,2113616,889,893,-2208,-1037,-575,-319,67,117,-443
0,2023-03-01T18:58:44.077696,2113624,889,893,-2208,-1037,-575,-319,67,117,-443
0,2023-03-01T18:58:44.082681,2113628,891,894,-2205,-1035,-571,-318,79,119,-433
0,2023-03-01T18:58:44.088112,2113634,891,894,-2205,-1035,-571,-318,79,119,-433
0,2023-03-01T18:58:44.093038,2113638,891,894,-2205,-1035,-571,-318,79,119,-433
0,2023-03-01T18:58:44.099746,2113644,891,894,-2205,-1035,-571,-318,79,119,-433
0,2023-03-01T18:58:44.105023,2113650,888,895,-2205,-1042,-572,-318,79,119,-433
0,2023-03-01T18:58:44.110981,2113656,888,895,-2205,-1042,-572,-318,79,119,-433
0,2023-03-01T18:58:44.116913,2113662,888,895,-2205,-1042,-572,-318,79,119,-433
0,2023-03-01T18:58:44.121926,2113667,892,893,-2208,-1027,-571,-323,79,119,-433
0,2023-03-01T18:58:44.127945,2113673,892,893,-2208,-1027,-571,-323,79,119,-433
0,2023-03-01T18:58:44.133004,2113678,892,893,-2208,-1027,-571,-323,79,119,-433
0,2023-03-01T18:58:44.141041,2113686,891,892,-2207,-1040,-578,-330,79,119,-433
0,2023-03-01T18:58:44.146590,2113691,891,892,-2207,-1040,-578,-330,79,119,-433
0,2023-03-01T18:58:44.151583,2113697,891,892,-2207,-1040,-578,-330,79,119,-433
0,2023-03-01T18:58:44.158270,2113703,891,892,-2207,-1040,-578,-330,79,119,-433
0,2023-03-01T18:58:44.163265,2113709,893,894,-2208,-1038,-576,-333,79,119,-433
0,2023-03-01T18:58:44.169219,2113715,893,894,-2208,-1038,-576,-333,79,119,-433
0,2023-03-01T18:58:44.174107,2113720,893,894,-2208,-1038,-576,-333,79,119,-433
0,2023-03-01T18:58:44.181538,2113726,891,892,-2209,-1027,-573,-319,79,119,-433
0,2023-03-01T18:58:44.187411,2113732,891,892,-2209,-1027,-573,-319,79,119,-433
0,2023-03-01T18:58:44.192923,2113737,891,892,-2209,-1027,-573,-319,79,119,-433
0,2023-03-01T18:58:44.199722,2113745,891,892,-2209,-1027,-573,-319,79,119,-433
0,2023-03-01T18:58:44.204597,2113751,889,891,-2202,-1026,-563,-324,62,124,-436
0,2023-03-01T18:58:44.210066,2113756,889,891,-2202,-1026,-563,-324,62,124,-436
0,2023-03-01T18:58:44.215407,2113761,889,891,-2202,-1026,-563,-324,62,124,-436
0,2023-03-01T18:58:44.220745,2113766,889,891,-2202,-1026,-563,-324,62,124,-436
0,2023-03-01T18:58:44.226705,2113772,889,891,-2202,-1026,-563,-324,62,124,-436
0,2023-03-01T18:58:44.231660,2113777,889,891,-2202,-1026,-563,-324,62,124,-436
0,2023-03-01T18:58:44.238963,2113783,889,891,-2202,-1026,-563,-324,62,124,-436
0,2023-03-01T18:58:44.246120,2113790,890,891,-2205,-1050,-581,-325,62,124,-436
0,2023-03-01T18:58:44.253083,2113798,890,891,-2205,-1050,-581,-325,62,124,-436
0,2023-03-01T18:58:44.260033,2113805,890,891,-2205,-1050,-581,-325,62,124,-436
0,2023-03-01T18:58:44.265314,2113810,894,889,-2208,-1038,-576,-327,62,124,-436
0,2023-03-01T18:58:44.270942,2113816,894,889,-2208,-1038,-576,-327,62,124,-436
0,2023-03-01T18:58:44.277064,2113822,894,889,-2208,-1038,-576,-327,62,124,-436
0,2023-03-01T18:58:44.282320,2113827,891,889,-2207,-1036,-573,-322,62,124,-436
0,2023-03-01T18:58:44.288443,2113833,891,889,-2207,-1036,-573,-322,62,124,-436
0,2023-03-01T18:58:44.293467,2113839,891,889,-2207,-1036,-573,-322,62,124,-436
0,2023-03-01T18:58:44.299244,2113845,891,889,-2207,-1036,-573,-322,62,124,-436
0,2023-03-01T18:58:44.304615,2113850,895,892,-2208,-1039,-572,-319,62,124,-436
0,2023-03-01T18:58:44.310878,2113856,895,892,-2208,-1039,-572,-319,62,124,-436
0,2023-03-01T18:58:44.317084,2113862,895,892,-2208,-1039,-572,-319,62,124,-436
0,2023-03-01T18:58:44.322853,2113868,891,888,-2205,-1036,-574,-321,62,124,-436
0,2023-03-01T18:58:44.328418,2113873,891,888,-2205,-1036,-574,-321,62,124,-436
0,2023-03-01T18:58:44.333222,2113879,891,888,-2205,-1036,-574,-321,62,124,-436
0,2023-03-01T18:58:44.338931,2113884,891,888,-2205,-1036,-574,-321,62,124,-436
0,2023-03-01T18:58:44.344243,2113890,890,893,-2205,-1033,-573,-317,65,127,-435
0,2023-03-01T18:58:44.350251,2113895,890,893,-2205,-1033,-573,-317,65,127,-435
0,2023-03-01T18:58:44.356093,2113901,890,893,-2205,-1033,-573,-317,65,127,-435
0,2023-03-01T18:58:44.362047,2113907,888,893,-2209,-1039,-578,-317,65,127,-435
0,2023-03-01T18:58:44.367391,2113912,888,893,-2209,-1039,-578,-317,65,127,-435
0,2023-03-01T18:58:44.372173,2113917,888,893,-2209,-1039,-578,-317,65,127,-435
0,2023-03-01T18:58:44.377782,2113923,888,893,-2209,-1039,-578,-317,65,127,-435
0,2023-03-01T18:58:44.382772,2113928,893,889,-2203,-1035,-573,-321,65,127,-435
0,2023-03-01T18:58:44.388527,2113934,893,889,-2203,-1035,-573,-321,65,127,-435
0,2023-03-01T18:58:44.393116,2113939,893,889,-2203,-1035,-573,-321,65,127,-435
0,2023-03-01T18:58:44.399094,2113944,893,889,-2203,-1035,-573,-321,65,127,-435
0,2023-03-01T18:58:44.404046,2113949,894,891,-2207,-1038,-567,-321,65,127,-435
0,2023-03-01T18:58:44.409484,2113954,894,891,-2207,-1038,-567,-321,65,127,-435
0,2023-03-01T18:58:44.414552,2113959,894,891,-2207,-1038,-567,-321,65,127,-435
0,2023-03-01T18:58:44.421270,2113967,891,892,-2208,-1040,-564,-316,65,127,-435
0,2023-03-01T18:58:44.426766,2113972,891,892,-2208,-1040,-564,-316,65,127,-435
0,2023-03-01T18:58:44.431836,2113977,891,892,-2208,-1040,-564,-316,65,127,-435
0,2023-03-01T18:58:44.437993,2113983,891,892,-2208,-1040,-564,-316,65,127,-435
0,2023-03-01T18:58:44.443980,2113988,889,892,-2205,-1040,-568,-314,65,127,-435
0,2023-03-01T18:58:44.449638,2113995,889,892,-2205,-1040,-568,-314,65,127,-435
0,2023-03-01T18:58:44.454913,2113999,889,892,-2205,-1040,-568,-314,65,127,-435
0,2023-03-01T18:58:44.460813,2114006,889,892,-2205,-1040,-568,-314,65,127,-435
0,2023-03-01T18:58:44.466163,2114012,892,895,-2202,-1036,-580,-320,74,126,-440
0,2023-03-01T18:58:44.472288,2114017,892,895,-2202,-1036,-580,-320,74,126,-440
0,2023-03-01T18:58:44.478504,2114024,892,895,-2202,-1036,-580,-320,74,126,-440
0,2023-03-01T18:58:44.483301,2114029,889,891,-2205,-1046,-573,-331,74,126,-440
0,2023-03-01T18:58:44.489160,2114034,889,891,-2205,-1046,-573,-331,74,126,-440
0,2023-03-01T18:58:44.494420,2114039,889,891,-2205,-1046,-573,-331,74,126,-440
0,2023-03-01T18:58:44.500556,2114046,889,891,-2205,-1046,-573,-331,74,126,-440
0,2023-03-01T18:58:44.505443,2114051,889,891,-2205,-1046,-573,-331,74,126,-440
0,2023-03-01T18:58:44.510514,2114056,889,891,-2205,-1046,-573,-331,74,126,-440
0,2023-03-01T18:58:44.516446,2114062,889,891,-2205,-1046,-573,-331,74,126,-440
0,2023-03-01T18:58:44.521570,2114067,890,894,-2207,-1036,-573,-318,74,126,-440
0,2023-03-01T18:58:44.527042,2114073,890,894,-2207,-1036,-573,-318,74,126,-440
0,2023-03-01T18:58:44.532190,2114077,890,894,-2207,-1036,-573,-318,74,126,-440
0,2023-03-01T18:58:44.538282,2114083,890,894,-2207,-1036,-573,-318,74,126,-440
0,2023-03-01T18:58:44.543437,2114088,889,891,-2206,-1043,-573,-322,74,126,-440
0,2023-03-01T18:58:44.549465,2114095,889,891,-2206,-1043,-573,-322,74,126,-440
0,2023-03-01T18:58:44.554608,2114100,889,891,-2206,-1043,-573,-322,74,126,-440
0,2023-03-01T18:58:44.560533,2114106,889,891,-2206,-1043,-573,-322,74,126,-440
0,2023-03-01T18:58:44.566016,2114111,890,894,-2210,-1046,-579,-327,74,126,-440
0,2023-03-01T18:58:44.572061,2114117,890,894,-2210,-1046,-579,-327,74,126,-440
0,2023-03-01T18:58:44.578660,2114123,890,894,-2210,-1046,-579,-327,74,126,-440
0,2023-03-01T18:58:44.583269,2114128,891,891,-2208,-1040,-573,-323,74,126,-440
0,2023-03-01T18:58:44.587725,2114134,891,891,-2208,-1040,-573,-323,74,126,-440
0,2023-03-01T18:58:44.592722,2114138,891,891,-2208,-1040,-573,-323,74,126,-440
0,2023-03-01T18:58:44.598520,2114144,891,891,-2208,-1040,-573,-323,74,126,-440
0,2023-03-01T18:58:44.603376,2114149,891,891,-2205,-1043,-570,-321,70,120,-434
0,2023-03-01T18:58:44.610379,2114155,891,891,-2205,-1043,-570,-321,70,120,-434
0,2023-03-01T18:58:44.616161,2114161,891,891,-2205,-1043,-570,-321,70,120,-434
0,2023-03-01T18:58:44.623162,2114168,892,896,-2205,-1038,-575,-321,70,120,-434
0,2023-03-01T18:58:44.628814,2114173,892,896,-2205,-1038,-575,-321,70,120,-434
0,2023-03-01T18:58:44.634183,2114179,892,896,-2205,-1038,-575,-321,70,120,-434
0,2023-03-01T18:58:44.640164,2114185,892,896,-2205,-1038,-575,-321,70,120,-434
0,2023-03-01T18:58:44.645201,2114191,891,894,-2203,-1037,-571,-322,70,120,-434
0,2023-03-01T18:58:44.651166,2114196,891,894,-2203,-1037,-571,-322,70,120,-434
0,2023-03-01T18:58:44.657888,2114203,891,894,-2203,-1037,-571,-322,70,120,-434
0,2023-03-01T18:58:44.663236,2114208,889,892,-2211,-1037,-575,-325,70,120,-434
0,2023-03-01T18:58:44.669227,2114214,889,892,-2211,-1037,-575,-325,70,120,-434
0,2023-03-01T18:58:44.674292,2114220,889,892,-2211,-1037,-575,-325,70,120,-434
0,2023-03-01T18:58:44.680480,2114226,889,892,-2211,-1037,-575,-325,70,120,-434
0,2023-03-01T18:58:44.685446,2114231,891,894,-2208,-1039,-572,-322,70,120,-434
0,2023-03-01T18:58:44.690963,2114236,891,894,-2208,-1039,-572,-322,70,120,-434
0,2023-03-01T18:58:44.696851,2114242,891,894,-2208,-1039,-572,-322,70,120,-434
0,2023-03-01T18:58:44.701780,2114247,893,892,-2204,-1048,-575,-325,70,120,-434
0,2023-03-01T18:58:44.708112,2114253,893,892,-2204,-1048,-575,-325,70,120,-434
0,2023-03-01T18:58:44.713541,2114258,893,892,-2204,-1048,-575,-325,70,120,-434
0,2023-03-01T18:58:44.720536,2114266,893,892,-2204,-1048,-575,-325,70,120,-434
0,2023-03-01T18:58:44.725613,2114271,892,892,-2204,-1037,-569,-323,72,118,-432
0,2023-03-01T18:58:44.731435,2114277,892,892,-2204,-1037,-569,-323,72,118,-432
0,2023-03-01T18:58:44.737826,2114283,892,892,-2204,-1037,-569,-323,72,118,-432
0,2023-03-01T18:58:44.742866,2114288,889,894,-2203,-1037,-568,-322,72,118,-432
0,2023-03-01T18:58:44.748560,2114294,889,894,-2203,-1037,-568,-322,72,118,-432
0,2023-03-01T18:58:44.753507,2114299,889,894,-2203,-1037,-568,-322,72,118,-432
0,2023-03-01T18:58:44.759320,2114305,889,894,-2203,-1037,-568,-322,72,118,-432
0,2023-03-01T18:58:44.764101,2114310,892,895,-2203,-1039,-570,-321,72,118,-432
0,2023-03-01T18:58:44.770262,2114315,892,895,-2203,-1039,-570,-321,72,118,-432
0,2023-03-01T18:58:44.775504,2114321,892,895,-2203,-1039,-570,-321,72,118,-432
0,2023-03-01T18:58:44.781558,2114327,894,895,-2212,-1043,-570,-322,72,118,-432
0,2023-03-01T18:58:44.787261,2114332,894,895,-2212,-1043,-570,-322,72,118,-432
0,2023-03-01T18:58:44.792480,2114337,894,895,-2212,-1043,-570,-322,72,118,-432
0,2023-03-01T18:58:44.799622,2114344,894,895,-2212,-1043,-570,-322,72,118,-432
0,2023-03-01T18:58:44.804652,2114350,893,896,-2209,-1047,-576,-325,72,118,-432
0,2023-03-01T18:58:44.810277,2114356,893,896,-2209,-1047,-576,-325,72,118,-432
0,2023-03-01T18:58:44.815901,2114361,893,896,-2209,-1047,-576,-325,72,118,-432
0,2023-03-01T18:58:44.820777,2114366,893,896,-2209,-1047,-576,-325,72,118,-432
0,2023-03-01T18:58:44.826191,2114371,890,892,-2217,-1044,-575,-319,72,118,-432
0,2023-03-01T18:58:44.832249,2114377,890,892,-2217,-1044,-575,-319,72,118,-432
0,2023-03-01T18:58:44.838167,2114383,890,892,-2217,-1044,-575,-319,72,118,-432
0,2023-03-01T18:58:44.843127,2114388,892,895,-2208,-1045,-571,-324,75,115,-429
0,2023-03-01T18:58:44.848521,2114394,892,895,-2208,-1045,-571,-324,75,115,-429
0,2023-03-01T18:58:44.853748,2114399,892,895,-2208,-1045,-571,-324,75,115,-429
0,2023-03-01T18:58:44.859860,2114405,892,895,-2208,-1045,-571,-324,75,115,-429
0,2023-03-01T18:58:44.864742,2114410,890,892,-2204,-1036,-566,-326,75,115,-429
0,2023-03-01T18:58:44.870224,2114415,890,892,-2204,-1036,-566,-326,75,115,-429
0,2023-03-01T18:58:44.875545,2114421,890,892,-2204,-1036,-566,-326,75,115,-429
0,2023-03-01T18:58:44.880997,2114426,890,892,-2204,-1036,-566,-326,75,115,-429
0,2023-03-01T18:58:44.886086,2114432,889,897,-2201,-1039,-570,-321,75,115,-429
0,2023-03-01T18:58:44.891674,2114437,889,897,-2201,-1039,-570,-321,75,115,-429
0,2023-03-01T18:58:44.897393,2114443,889,897,-2201,-1039,-570,-321,75,115,-429
0,2023-03-01T18:58:44.902615,2114448,891,893,-2208,-1032,-577,-323,75,115,-429
0,2023-03-01T18:58:44.909237,2114454,891,893,-2208,-1032,-577,-323,75,115,-429
0,2023-03-01T18:58:44.914619,2114459,891,893,-2208,-1032,-577,-323,75,115,-429
0,2023-03-01T18:58:44.920232,2114465,891,893,-2208,-1032,-577,-323,75,115,-429
0,2023-03-01T18:58:44.925061,2114470,891,896,-2208,-1033,-581,-314,75,115,-429
0,2023-03-01T18:58:44.931219,2114476,891,896,-2208,-1033,-581,-314,75,115,-429
0,2023-03-01T18:58:44.936664,2114482,891,896,-2208,-1033,-581,-314,75,115,-429
0,2023-03-01T18:58:44.942727,2114488,892,893,-2209,-1038,-574,-319,75,115,-429
0,2023-03-01T18:58:44.948152,2114494,892,893,-2209,-1038,-574,-319,75,115,-429
0,2023-03-01T18:58:44.953011,2114499,892,893,-2209,-1038,-574,-319,75,115,-429
0,2023-03-01T18:58:44.958692,2114504,892,893,-2209,-1038,-574,-319,75,115,-429
0,2023-03-01T18:58:44.963604,2114509,887,893,-2207,-1038,-573,-322,75,115,-429
0,2023-03-01T18:58:44.969019,2114514,887,893,-2207,-1038,-573,-322,75,115,-429
0,2023-03-01T18:58:44.974683,2114520,887,893,-2207,-1038,-573,-322,75,115,-429
0,2023-03-01T18:58:44.981506,2114527,889,889,-2204,-1033,-566,-321,72,115,-429
0,2023-03-01T18:58:44.987068,2114532,889,889,-2204,-1033,-566,-321,72,118,-436
0,2023-03-01T18:58:44.992160,2114537,889,889,-2204,-1033,-566,-321,72,118,-436
0,2023-03-01T18:58:44.998464,2114543,889,889,-2204,-1033,-566,-321,72,118,-436
0,2023-03-01T18:58:45.003219,2114548,889,893,-2208,-1034,-569,-314,72,118,-436
0,2023-03-01T18:58:45.008897,2114553,889,893,-2208,-1034,-569,-314,72,118,-436
0,2023-03-01T18:58:45.014152,2114560,889,893,-2208,-1034,-569,-314,72,118,-436
0,2023-03-01T18:58:45.020147,2114566,889,893,-2208,-1034,-569,-314,72,118,-436
0,2023-03-01T18:58:45.025284,2114571,889,895,-2203,-1030,-573,-316,72,118,-436
0,2023-03-01T18:58:45.031137,2114576,889,895,-2203,-1030,-573,-316,72,118,-436
0,2023-03-01T18:58:45.037086,2114582,889,895,-2203,-1030,-573,-316,72,118,-436
0,2023-03-01T18:58:45.042117,2114587,890,894,-2215,-1032,-578,-326,72,118,-436
0,2023-03-01T18:58:45.047600,2114593,890,894,-2215,-1032,-578,-326,72,118,-436
0,2023-03-01T18:58:45.052675,2114597,890,894,-2215,-1032,-578,-326,72,118,-436
0,2023-03-01T18:58:45.059532,2114605,890,894,-2215,-1032,-578,-326,72,118,-436
0,2023-03-01T18:58:45.064167,2114610,894,895,-2213,-1037,-573,-323,72,118,-436
0,2023-03-01T18:58:45.069518,2114615,894,895,-2213,-1037,-573,-323,72,118,-436
0,2023-03-01T18:58:45.074281,2114620,894,895,-2213,-1037,-573,-323,72,118,-436
0,2023-03-01T18:58:45.080362,2114625,894,895,-2213,-1037,-573,-323,72,118,-436
0,2023-03-01T18:58:45.085520,2114630,891,892,-2208,-1045,-573,-326,72,118,-436
0,2023-03-01T18:58:45.091814,2114637,891,892,-2208,-1045,-573,-326,72,118,-436
0,2023-03-01T18:58:45.098272,2114643,891,892,-2208,-1045,-573,-326,72,118,-436
0,2023-03-01T18:58:45.103117,2114649,887,892,-2211,-1036,-572,-324,69,121,-439
0,2023-03-01T18:58:45.108925,2114654,887,892,-2211,-1036,-572,-324,69,121,-439
0,2023-03-01T18:58:45.113969,2114659,887,892,-2211,-1036,-572,-324,69,121,-439
0,2023-03-01T18:58:45.120890,2114666,887,892,-2211,-1036,-572,-324,69,121,-439
0,2023-03-01T18:58:45.125806,2114671,891,895,-2204,-1036,-572,-322,69,121,-439
0,2023-03-01T18:58:45.131828,2114677,891,895,-2204,-1036,-572,-322,69,121,-439
0,2023-03-01T18:58:45.138180,2114683,891,895,-2204,-1036,-572,-322,69,121,-439
0,2023-03-01T18:58:45.143118,2114689,891,889,-2205,-1031,-570,-328,69,121,-439
0,2023-03-01T18:58:45.148790,2114694,891,889,-2205,-1031,-570,-328,69,121,-439
0,2023-03-01T18:58:45.153981,2114699,891,889,-2205,-1031,-570,-328,69,121,-439
0,2023-03-01T18:58:45.160200,2114705,891,889,-2205,-1031,-570,-328,69,121,-439
0,2023-03-01T18:58:45.165827,2114710,889,891,-2205,-1030,-566,-325,69,121,-439
0,2023-03-01T18:58:45.171578,2114717,889,891,-2205,-1030,-566,-325,69,121,-439
0,2023-03-01T18:58:45.177079,2114722,889,891,-2205,-1030,-566,-325,69,121,-439
0,2023-03-01T18:58:45.182036,2114727,894,894,-2206,-1042,-570,-321,69,121,-439
0,2023-03-01T18:58:45.187875,2114734,894,894,-2206,-1042,-570,-321,69,121,-439
0,2023-03-01T18:58:45.193040,2114739,894,894,-2206,-1042,-570,-321,69,121,-439
0,2023-03-01T18:58:45.199124,2114745,894,894,-2206,-1042,-570,-321,69,121,-439
0,2023-03-01T18:58:45.204199,2114749,890,891,-2210,-1047,-575,-330,69,121,-439
0,2023-03-01T18:58:45.209668,2114755,890,891,-2210,-1047,-575,-330,69,121,-439
0,2023-03-01T18:58:45.214676,2114760,890,891,-2210,-1047,-575,-330,69,121,-439
0,2023-03-01T18:58:45.221472,2114766,890,891,-2210,-1047,-575,-330,69,121,-439
0,2023-03-01T18:58:45.226494,2114771,891,893,-2206,-1045,-572,-320,69,121,-439
0,2023-03-01T18:58:45.234587,2114780,891,893,-2206,-1045,-572,-320,69,121,-439
0,2023-03-01T18:58:45.242395,2114788,891,894,-2204,-1040,-571,-317,62,122,-434
0,2023-03-01T18:58:45.248360,2114793,891,894,-2204,-1040,-571,-317,62,122,-434
0,2023-03-01T18:58:45.253360,2114799,891,894,-2204,-1040,-571,-317,62,122,-434
0,2023-03-01T18:58:45.258978,2114804,891,894,-2204,-1040,-571,-317,62,122,-434
0,2023-03-01T18:58:45.264193,2114809,892,896,-2206,-1031,-574,-323,62,122,-434
0,2023-03-01T18:58:45.270558,2114814,892,896,-2206,-1031,-574,-323,62,122,-434
0,2023-03-01T18:58:45.276009,2114822,892,896,-2206,-1031,-574,-323,62,122,-434
0,2023-03-01T18:58:45.282848,2114828,891,896,-2206,-1035,-571,-323,62,122,-434
0,2023-03-01T18:58:45.288187,2114834,891,896,-2206,-1035,-571,-323,62,122,-434
0,2023-03-01T18:58:45.292942,2114838,891,896,-2206,-1035,-571,-323,62,122,-434
0,2023-03-01T18:58:45.298521,2114843,891,896,-2206,-1035,-571,-323,62,122,-434
0,2023-03-01T18:58:45.304226,2114848,894,892,-2208,-1038,-583,-322,62,122,-434
0,2023-03-01T18:58:45.310723,2114856,894,892,-2208,-1038,-583,-322,62,122,-434
0,2023-03-01T18:58:45.316148,2114862,894,892,-2208,-1038,-583,-322,62,122,-434
0,2023-03-01T18:58:45.321011,2114867,894,892,-2208,-1038,-583,-322,62,122,-434
0,2023-03-01T18:58:45.326045,2114872,893,891,-2208,-1038,-574,-325,62,122,-434
0,2023-03-01T18:58:45.331928,2114877,893,891,-2208,-1038,-574,-325,62,122,-434
0,2023-03-01T18:58:45.339133,2114884,893,891,-2208,-1038,-574,-325,62,122,-434
0,2023-03-01T18:58:45.344533,2114890,891,893,-2211,-1030,-570,-323,62,122,-434
0,2023-03-01T18:58:45.350245,2114895,891,893,-2211,-1030,-570,-323,62,122,-434
0,2023-03-01T18:58:45.355687,2114900,891,893,-2211,-1030,-570,-323,62,122,-434
0,2023-03-01T18:58:45.361226,2114907,891,893,-2211,-1030,-570,-323,62,122,-434
0,2023-03-01T18:58:45.366688,2114912,892,891,-2207,-1040,-574,-324,72,122,-442
0,2023-03-01T18:58:45.372533,2114918,892,891,-2207,-1040,-574,-324,72,122,-442
0,2023-03-01T18:58:45.377075,2114923,892,891,-2207,-1040,-574,-324,72,122,-442
0,2023-03-01T18:58:45.382051,2114927,890,892,-2209,-1039,-575,-320,72,122,-442
0,2023-03-01T18:58:45.387746,2114933,890,892,-2209,-1039,-575,-320,72,122,-442
0,2023-03-01T18:58:45.392541,2114938,890,892,-2209,-1039,-575,-320,72,122,-442
0,2023-03-01T18:58:45.398589,2114944,890,892,-2209,-1039,-575,-320,72,122,-442
0,2023-03-01T18:58:45.403095,2114949,892,897,-2209,-1035,-569,-323,72,122,-442
0,2023-03-01T18:58:45.408694,2114954,892,897,-2209,-1035,-569,-323,72,122,-442
0,2023-03-01T18:58:45.413576,2114959,892,897,-2209,-1035,-569,-323,72,122,-442
0,2023-03-01T18:58:45.419160,2114964,892,897,-2209,-1035,-569,-323,72,122,-442
0,2023-03-01T18:58:45.424385,2114969,890,894,-2205,-1034,-578,-317,72,122,-442
0,2023-03-01T18:58:45.429931,2114975,890,894,-2205,-1034,-578,-317,72,122,-442
0,2023-03-01T18:58:45.434555,2114980,890,894,-2205,-1034,-578,-317,72,122,-442
0,2023-03-01T18:58:45.440331,2114985,890,894,-2205,-1034,-578,-317,72,122,-442
0,2023-03-01T18:58:45.445154,2114991,891,894,-2218,-1042,-569,-320,72,122,-442
0,2023-03-01T18:58:45.450857,2114996,891,894,-2218,-1042,-569,-320,72,122,-442
0,2023-03-01T18:58:45.456986,2115002,891,894,-2218,-1042,-569,-320,72,122,-442
0,2023-03-01T18:58:45.462200,2115008,893,894,-2213,-1040,-574,-317,72,122,-442
0,2023-03-01T18:58:45.467744,2115013,893,894,-2213,-1040,-574,-317,72,122,-442
0,2023-03-01T18:58:45.472672,2115018,893,894,-2213,-1040,-574,-317,72,122,-442
0,2023-03-01T18:58:45.479387,2115024,893,894,-2213,-1040,-574,-317,72,122,-442
0,2023-03-01T18:58:45.484192,2115030,893,895,-2200,-1038,-572,-319,72,122,-442
0,2023-03-01T18:58:45.489543,2115035,893,895,-2200,-1038,-572,-319,72,122,-442
0,2023-03-01T18:58:45.494470,2115040,893,895,-2200,-1038,-572,-319,72,122,-442
0,2023-03-01T18:58:45.501270,2115047,893,895,-2200,-1038,-572,-319,72,122,-442
0,2023-03-01T18:58:45.506222,2115052,888,894,-2205,-1039,-573,-315,66,128,-438
0,2023-03-01T18:58:45.511894,2115057,888,894,-2205,-1039,-573,-315,66,128,-438
0,2023-03-01T18:58:45.517099,2115062,888,894,-2205,-1039,-573,-315,66,128,-438
0,2023-03-01T18:58:45.522371,2115067,892,893,-2208,-1038,-567,-318,66,128,-438
0,2023-03-01T18:58:45.527745,2115074,892,893,-2208,-1038,-567,-318,66,128,-438
0,2023-03-01T18:58:45.532726,2115079,892,893,-2208,-1038,-567,-318,66,128,-438
0,2023-03-01T18:58:45.538906,2115084,892,893,-2208,-1038,-567,-318,66,128,-438
0,2023-03-01T18:58:45.544501,2115090,894,896,-2203,-1035,-569,-330,66,128,-438
0,2023-03-01T18:58:45.550608,2115096,894,896,-2203,-1035,-569,-330,66,128,-438
0,2023-03-01T18:58:45.555616,2115100,894,896,-2203,-1035,-569,-330,66,128,-438
0,2023-03-01T18:58:45.562488,2115107,892,890,-2203,-1035,-576,-328,66,128,-438
0,2023-03-01T18:58:45.568397,2115113,892,890,-2203,-1035,-576,-328,66,128,-438
0,2023-03-01T18:58:45.573306,2115119,892,890,-2203,-1035,-576,-328,66,128,-438
0,2023-03-01T18:58:45.579089,2115125,892,890,-2203,-1035,-576,-328,66,128,-438
0,2023-03-01T18:58:45.584165,2115129,890,894,-2212,-1035,-575,-319,66,128,-438
0,2023-03-01T18:58:45.589873,2115135,890,894,-2212,-1035,-575,-319,66,128,-438
0,2023-03-01T18:58:45.594847,2115140,890,894,-2212,-1035,-575,-319,66,128,-438
0,2023-03-01T18:58:45.600847,2115146,890,894,-2212,-1035,-575,-319,66,128,-438
0,2023-03-01T18:58:45.606029,2115151,891,896,-2207,-1036,-571,-317,66,128,-438
0,2023-03-01T18:58:45.612144,2115158,891,896,-2207,-1036,-571,-317,66,128,-438
0,2023-03-01T18:58:45.617919,2115164,891,896,-2207,-1036,-571,-317,66,128,-438
0,2023-03-01T18:58:45.622601,2115168,893,894,-2199,-1041,-567,-324,69,121,-433
0,2023-03-01T18:58:45.628140,2115174,893,894,-2199,-1041,-567,-324,69,121,-433
0,2023-03-01T18:58:45.633056,2115178,893,894,-2199,-1041,-567,-324,69,121,-433
0,2023-03-01T18:58:45.639180,2115184,893,894,-2199,-1041,-567,-324,69,121,-433
0,2023-03-01T18:58:45.644263,2115189,892,895,-2205,-1039,-576,-326,69,121,-433
0,2023-03-01T18:58:45.650200,2115195,892,895,-2205,-1039,-576,-326,69,121,-433
0,2023-03-01T18:58:45.655421,2115201,892,895,-2205,-1039,-576,-326,69,121,-433
0,2023-03-01T18:58:45.661811,2115207,892,895,-2205,-1039,-576,-326,69,121,-433
0,2023-03-01T18:58:45.667140,2115213,890,894,-2203,-1033,-575,-315,69,121,-433
0,2023-03-01T18:58:45.673528,2115219,890,894,-2203,-1033,-575,-315,69,121,-433
0,2023-03-01T18:58:45.679183,2115224,890,894,-2203,-1033,-575,-315,69,121,-433
0,2023-03-01T18:58:45.684091,2115229,890,893,-2207,-1038,-576,-310,69,121,-433
0,2023-03-01T18:58:45.689483,2115234,890,893,-2207,-1038,-576,-310,69,121,-433
0,2023-03-01T18:58:45.694979,2115239,890,893,-2207,-1038,-576,-310,69,121,-433
0,2023-03-01T18:58:45.701328,2115247,890,893,-2207,-1038,-576,-310,69,121,-433
0,2023-03-01T18:58:45.706539,2115252,889,891,-2207,-1033,-570,-316,69,121,-433
0,2023-03-01T18:58:45.712279,2115258,889,891,-2207,-1033,-570,-316,69,121,-433
0,2023-03-01T18:58:45.718874,2115264,889,891,-2207,-1033,-570,-316,69,121,-433
0,2023-03-01T18:58:45.724372,2115269,891,892,-2209,-1039,-568,-314,69,121,-433
0,2023-03-01T18:58:45.730600,2115276,891,892,-2209,-1039,-568,-314,69,121,-433
0,2023-03-01T18:58:45.736157,2115281,891,892,-2209,-1039,-568,-314,69,121,-433
0,2023-03-01T18:58:45.742409,2115288,892,895,-2208,-1038,-565,-321,69,121,-433
0,2023-03-01T18:58:45.747730,2115293,892,895,-2208,-1038,-565,-321,68,124,-442
0,2023-03-01T18:58:45.753296,2115298,892,895,-2208,-1038,-565,-321,68,124,-442
0,2023-03-01T18:58:45.760295,2115305,892,895,-2208,-1038,-565,-321,68,124,-442
0,2023-03-01T18:58:45.765314,2115311,891,892,-2203,-1042,-568,-315,68,124,-442
0,2023-03-01T18:58:45.771045,2115316,891,892,-2203,-1042,-568,-315,68,124,-442
0,2023-03-01T18:58:45.776884,2115322,891,892,-2203,-1042,-568,-315,68,124,-442
0,2023-03-01T18:58:45.783185,2115329,891,892,-2203,-1042,-568,-315,68,124,-442
0,2023-03-01T18:58:45.788157,2115334,891,892,-2203,-1042,-568,-315,68,124,-442
0,2023-03-01T18:58:45.793189,2115339,891,892,-2203,-1042,-568,-315,68,124,-442
0,2023-03-01T18:58:45.799504,2115345,891,892,-2203,-1042,-568,-315,68,124,-442
0,2023-03-01T18:58:45.804065,2115350,892,893,-2212,-1029,-574,-319,68,124,-442
0,2023-03-01T18:58:45.809545,2115355,892,893,-2212,-1029,-574,-319,68,124,-442
0,2023-03-01T18:58:45.814751,2115360,892,893,-2212,-1029,-574,-319,68,124,-442
0,2023-03-01T18:58:45.820757,2115365,892,893,-2212,-1029,-574,-319,68,124,-442
0,2023-03-01T18:58:45.825389,2115371,890,895,-2212,-1038,-573,-326,68,124,-442
0,2023-03-01T18:58:45.830826,2115376,890,895,-2212,-1038,-573,-326,68,124,-442
0,2023-03-01T18:58:45.835851,2115381,890,895,-2212,-1038,-573,-326,68,124,-442
0,2023-03-01T18:58:45.840959,2115386,890,895,-2212,-1038,-573,-326,68,124,-442
0,2023-03-01T18:58:45.845741,2115391,893,892,-2209,-1042,-570,-321,68,124,-442
0,2023-03-01T18:58:45.851219,2115397,893,892,-2209,-1042,-570,-321,68,124,-442
0,2023-03-01T18:58:45.857258,2115402,893,892,-2209,-1042,-570,-321,68,124,-442
0,2023-03-01T18:58:45.862127,2115407,893,892,-2209,-1042,-570,-321,68,124,-442
0,2023-03-01T18:58:45.867050,2115412,890,894,-2209,-1039,-569,-323,68,124,-442
0,2023-03-01T18:58:45.873239,2115419,890,894,-2209,-1039,-569,-323,68,124,-442
0,2023-03-01T18:58:45.879189,2115425,890,894,-2209,-1039,-569,-323,68,124,-442
0,2023-03-01T18:58:45.884525,2115430,891,894,-2207,-1045,-573,-325,68,122,-430
0,2023-03-01T18:58:45.890867,2115436,891,894,-2207,-1045,-573,-325,68,122,-430
0,2023-03-01T18:58:45.896984,2115442,891,894,-2207,-1045,-573,-325,68,122,-430
0,2023-03-01T18:58:45.902532,2115448,890,894,-2208,-1040,-568,-325,68,122,-430
0,2023-03-01T18:58:45.908413,2115453,890,894,-2208,-1040,-568,-325,68,122,-430
0,2023-03-01T18:58:45.913164,2115459,890,894,-2208,-1040,-568,-325,68,122,-430
0,2023-03-01T18:58:45.918606,2115464,890,894,-2208,-1040,-568,-325,68,122,-430
0,2023-03-01T18:58:45.924019,2115469,891,894,-2207,-1036,-571,-322,68,122,-430
0,2023-03-01T18:58:45.929781,2115475,891,894,-2207,-1036,-571,-322,68,122,-430
0,2023-03-01T18:58:45.934405,2115480,891,894,-2207,-1036,-571,-322,68,122,-430
0,2023-03-01T18:58:45.940710,2115485,891,894,-2207,-1036,-571,-322,68,122,-430
0,2023-03-01T18:58:45.945878,2115491,891,893,-2205,-1042,-574,-329,68,122,-430
0,2023-03-01T18:58:45.951605,2115497,891,893,-2205,-1042,-574,-329,68,122,-430
0,2023-03-01T18:58:45.957533,2115503,891,893,-2205,-1042,-574,-329,68,122,-430
0,2023-03-01T18:58:45.962631,2115508,891,893,-2205,-1042,-574,-329,68,122,-430
0,2023-03-01T18:58:45.967406,2115513,889,896,-2205,-1043,-574,-321,68,122,-430
0,2023-03-01T18:58:45.973944,2115518,889,896,-2205,-1043,-574,-321,68,122,-430
0,2023-03-01T18:58:45.980137,2115525,889,896,-2205,-1043,-574,-321,68,122,-430
0,2023-03-01T18:58:45.985296,2115530,891,890,-2209,-1037,-575,-321,68,122,-430
0,2023-03-01T18:58:45.991085,2115536,891,890,-2209,-1037,-575,-321,68,122,-430
0,2023-03-01T18:58:45.997786,2115543,891,890,-2209,-1037,-575,-321,68,122,-430
0,2023-03-01T18:58:46.003764,2115549,892,894,-2211,-1042,-581,-323,66,126,-436
0,2023-03-01T18:58:46.009626,2115555,892,894,-2211,-1042,-581,-323,66,126,-436
0,2023-03-01T18:58:46.014441,2115560,892,894,-2211,-1042,-581,-323,66,126,-436
0,2023-03-01T18:58:46.020322,2115566,892,894,-2211,-1042,-581,-323,66,126,-436
0,2023-03-01T18:58:46.025195,2115570,890,892,-2206,-1035,-564,-317,66,126,-436
0,2023-03-01T18:58:46.030760,2115576,890,892,-2206,-1035,-564,-317,66,126,-436
0,2023-03-01T18:58:46.036611,2115581,890,892,-2206,-1035,-564,-317,66,126,-436
0,2023-03-01T18:58:46.042621,2115588,890,892,-2206,-1035,-564,-317,66,126,-436
0,2023-03-01T18:58:46.047607,2115593,890,892,-2204,-1045,-570,-320,66,126,-436
0,2023-03-01T18:58:46.053223,2115599,890,892,-2204,-1045,-570,-320,66,126,-436
0,2023-03-01T18:58:46.059443,2115605,890,892,-2204,-1045,-570,-320,66,126,-436
0,2023-03-01T18:58:46.064685,2115610,891,893,-2210,-1039,-571,-321,66,126,-436
0,2023-03-01T18:58:46.070707,2115616,891,893,-2210,-1039,-571,-321,66,126,-436
