imu,server_time,arduino_time,ax,ay,az,gx,gy,gz,mx,my,mz
0,2023-03-01T18:59:33.203586,2162752,1229,1929,-614,-2162,23,-497,-27,123,-321
0,2023-03-01T18:59:33.209702,2162757,1229,1929,-614,-2162,23,-497,-27,123,-321
0,2023-03-01T18:59:33.215346,2162763,1229,1929,-614,-2162,23,-497,-27,123,-321
0,2023-03-01T18:59:33.220284,2162768,1229,1929,-614,-2162,23,-497,-27,123,-321
0,2023-03-01T18:59:33.226313,2162774,1242,1930,-602,-2192,59,-510,-34,120,-320
0,2023-03-01T18:59:33.233140,2162781,1242,1930,-602,-2192,59,-510,-34,120,-320
0,2023-03-01T18:59:33.237848,2162786,1242,1930,-602,-2192,59,-510,-34,120,-320
0,2023-03-01T18:59:33.242557,2162791,1241,1920,-609,-2212,69,-500,-34,120,-320
0,2023-03-01T18:59:33.248048,2162796,1241,1920,-609,-2212,69,-500,-34,120,-320
0,2023-03-01T18:59:33.254012,2162802,1241,1920,-609,-2212,69,-500,-34,120,-320
0,2023-03-01T18:59:33.259123,2162807,1241,1920,-609,-2212,69,-500,-34,120,-320
0,2023-03-01T18:59:33.263714,2162811,1249,1929,-589,-2231,91,-508,-34,120,-320
0,2023-03-01T18:59:33.269131,2162818,1249,1929,-589,-2231,91,-508,-34,120,-320
0,2023-03-01T18:59:33.274544,2162823,1249,1929,-589,-2231,91,-508,-34,120,-320
0,2023-03-01T18:59:33.279179,2162827,1249,1929,-589,-2231,91,-508,-34,120,-320
0,2023-03-01T18:59:33.284015,2162832,1242,1914,-589,-2233,81,-502,-34,120,-320
0,2023-03-01T18:59:33.289540,2162838,1242,1914,-589,-2233,81,-502,-34,120,-320
0,2023-03-01T18:59:33.294969,2162843,1242,1914,-589,-2233,81,-502,-34,120,-320
0,2023-03-01T18:59:33.299681,2162847,1242,1914,-589,-2233,81,-502,-34,120,-320
0,2023-03-01T18:59:33.304536,2162852,1245,1935,-570,-2240,117,-520,-34,120,-320
0,2023-03-01T18:59:33.310418,2162859,1245,1935,-570,-2240,117,-520,-34,120,-320
0,2023-03-01T18:59:33.316036,2162865,1245,1935,-570,-2240,117,-520,-34,120,-320
0,2023-03-01T18:59:33.321954,2162870,1245,1935,-570,-2240,117,-520,-34,120,-320
0,2023-03-01T18:59:33.327293,2162875,1238,1928,-582,-2269,83,-514,-34,120,-320
0,2023-03-01T18:59:33.335244,2162882,1238,1928,-582,-2269,83,-514,-34,120,-320
0,2023-03-01T18:59:33.342985,2162890,1230,1951,-551,-2270,135,-528,-35,125,-323
0,2023-03-01T18:59:33.348814,2162896,1230,1951,-551,-2270,135,-528,-35,125,-323
0,2023-03-01T18:59:33.354317,2162903,1230,1951,-551,-2270,135,-528,-35,125,-323
0,2023-03-01T18:59:33.360473,2162908,1230,1951,-551,-2270,135,-528,-35,125,-323
0,2023-03-01T18:59:33.365546,2162914,1220,1942,-555,-2249,72,-511,-35,125,-323
0,2023-03-01T18:59:33.371650,2162919,1220,1942,-555,-2249,72,-511,-35,125,-323
0,2023-03-01T18:59:33.376852,2162924,1220,1942,-555,-2249,72,-511,-35,125,-323
0,2023-03-01T18:59:33.381907,2162930,1220,1942,-555,-2249,72,-511,-35,125,-323
0,2023-03-01T18:59:33.386983,2162934,1225,1955,-535,-2233,103,-514,-35,125,-323
0,2023-03-01T18:59:33.394619,2162942,1225,1955,-535,-2233,103,-514,-35,125,-323
0,2023-03-01T18:59:33.400870,2162949,1225,1955,-535,-2233,103,-514,-35,125,-323
0,2023-03-01T18:59:33.406065,2162954,1216,1947,-542,-2201,60,-497,-35,125,-323
0,2023-03-01T18:59:33.413280,2162961,1216,1947,-542,-2201,60,-497,-35,125,-323
0,2023-03-01T18:59:33.419044,2162966,1216,1947,-542,-2201,60,-497,-35,125,-323
0,2023-03-01T18:59:33.424359,2162972,1231,1948,-520,-2195,86,-509,-35,125,-323
0,2023-03-01T18:59:33.430385,2162978,1231,1948,-520,-2195,86,-509,-35,125,-323
0,2023-03-01T18:59:33.435805,2162983,1231,1948,-520,-2195,86,-509,-35,125,-323
0,2023-03-01T18:59:33.441362,2162990,1231,1948,-520,-2195,86,-509,-35,125,-323
0,2023-03-01T18:59:33.446884,2162995,1234,1940,-537,-2169,53,-493,-35,125,-323
0,2023-03-01T18:59:33.454574,2163002,1234,1940,-537,-2169,53,-493,-35,125,-323
0,2023-03-01T18:59:33.459517,2163007,1234,1940,-537,-2169,53,-493,-35,125,-323
0,2023-03-01T18:59:33.464519,2163012,1235,1932,-512,-2169,69,-504,-35,125,-323
0,2023-03-01T18:59:33.469996,2163018,1235,1932,-512,-2169,69,-504,-35,125,-323
0,2023-03-01T18:59:33.475036,2163022,1235,1932,-512,-2169,69,-504,-35,125,-323
0,2023-03-01T18:59:33.480779,2163028,1235,1932,-512,-2169,69,-504,-35,125,-323
0,2023-03-01T18:59:33.485719,2163034,1237,1930,-514,-2180,40,-507,-29,135,-323
0,2023-03-01T18:59:33.490384,2163039,1237,1930,-514,-2180,40,-507,-29,135,-323
0,2023-03-01T18:59:33.495293,2163043,1237,1930,-514,-2180,40,-507,-29,135,-323
0,2023-03-01T18:59:33.500950,2163049,1237,1930,-514,-2180,40,-507,-29,135,-323
0,2023-03-01T18:59:33.506021,2163054,1241,1928,-500,-2152,58,-507,-29,135,-323
0,2023-03-01T18:59:33.513056,2163061,1241,1928,-500,-2152,58,-507,-29,135,-323
0,2023-03-01T18:59:33.517886,2163066,1241,1928,-500,-2152,58,-507,-29,135,-323
0,2023-03-01T18:59:33.523238,2163070,1235,1942,-504,-2184,51,-512,-29,135,-323
0,2023-03-01T18:59:33.528748,2163077,1235,1942,-504,-2184,51,-512,-29,135,-323
0,2023-03-01T18:59:33.534977,2163082,1235,1942,-504,-2184,51,-512,-29,135,-323
0,2023-03-01T18:59:33.540539,2163088,1235,1942,-504,-2184,51,-512,-29,135,-323
0,2023-03-01T18:59:33.545846,2163094,1229,1946,-489,-2177,56,-508,-29,135,-323
0,2023-03-01T18:59:33.551930,2163100,1229,1946,-489,-2177,56,-508,-29,135,-323
0,2023-03-01T18:59:33.557104,2163104,1229,1946,-489,-2177,56,-508,-29,135,-323
0,2023-03-01T18:59:33.562509,2163110,1229,1946,-489,-2177,56,-508,-29,135,-323
0,2023-03-01T18:59:33.568033,2163116,1215,1952,-477,-2160,49,-511,-29,135,-323
0,2023-03-01T18:59:33.573982,2163122,1215,1952,-477,-2160,49,-511,-29,135,-323
0,2023-03-01T18:59:33.579024,2163127,1215,1952,-477,-2160,49,-511,-29,135,-323
0,2023-03-01T18:59:33.584396,2163132,1212,1956,-470,-2151,31,-503,-29,135,-323
0,2023-03-01T18:59:33.591856,2163140,1212,1956,-470,-2151,31,-503,-29,135,-323
0,2023-03-01T18:59:33.597462,2163145,1212,1956,-470,-2151,31,-503,-29,135,-323
0,2023-03-01T18:59:33.602552,2163150,1210,1954,-466,-2163,37,-506,-29,135,-323
0,2023-03-01T18:59:33.609104,2163156,1210,1954,-466,-2163,37,-506,-38,138,-316
0,2023-03-01T18:59:33.615083,2163163,1210,1954,-466,-2163,37,-506,-38,138,-316
0,2023-03-01T18:59:33.620360,2163168,1210,1954,-466,-2163,37,-506,-38,138,-316
0,2023-03-01T18:59:33.625899,2163174,1215,1962,-440,-2126,56,-504,-38,138,-316
0,2023-03-01T18:59:33.631937,2163180,1215,1962,-440,-2126,56,-504,-38,138,-316
0,2023-03-01T18:59:33.637171,2163185,1215,1962,-440,-2126,56,-504,-38,138,-316
0,2023-03-01T18:59:33.642345,2163190,1217,1947,-465,-2154,10,-497,-38,138,-316
0,2023-03-01T18:59:33.647672,2163195,1217,1947,-465,-2154,10,-497,-38,138,-316
0,2023-03-01T18:59:33.653673,2163202,1217,1947,-465,-2154,10,-497,-38,138,-316
0,2023-03-01T18:59:33.658635,2163207,1217,1947,-465,-2154,10,-497,-38,138,-316
0,2023-03-01T18:59:33.664131,2163212,1231,1959,-441,-2155,56,-515,-38,138,-316
0,2023-03-01T18:59:33.670713,2163219,1231,1959,-441,-2155,56,-515,-38,138,-316
0,2023-03-01T18:59:33.676667,2163224,1231,1959,-441,-2155,56,-515,-38,138,-316
0,2023-03-01T18:59:33.682084,2163230,1231,1959,-441,-2155,56,-515,-38,138,-316
0,2023-03-01T18:59:33.686806,2163235,1227,1931,-457,-2125,19,-497,-38,138,-316
0,2023-03-01T18:59:33.693108,2163241,1227,1931,-457,-2125,19,-497,-38,138,-316
0,2023-03-01T18:59:33.697734,2163246,1227,1931,-457,-2125,19,-497,-38,138,-316
0,2023-03-01T18:59:33.702678,2163251,1236,1945,-421,-2165,54,-508,-38,138,-316
0,2023-03-01T18:59:33.708689,2163257,1236,1945,-421,-2165,54,-508,-38,138,-316
0,2023-03-01T18:59:33.714618,2163263,1236,1945,-421,-2165,54,-508,-38,138,-316
0,2023-03-01T18:59:33.719932,2163268,1236,1945,-421,-2165,54,-508,-38,138,-316
0,2023-03-01T18:59:33.725244,2163273,1230,1923,-436,-2109,0,-493,-38,138,-316
0,2023-03-01T18:59:33.731084,2163279,1230,1923,-436,-2109,0,-493,-38,138,-316
0,2023-03-01T18:59:33.737111,2163286,1230,1923,-436,-2109,0,-493,-38,138,-316
0,2023-03-01T18:59:33.741761,2163290,1230,1923,-436,-2109,0,-493,-38,138,-316
0,2023-03-01T18:59:33.746667,2163295,1228,1949,-409,-2096,2,-505,-33,137,-311
0,2023-03-01T18:59:33.752827,2163301,1228,1949,-409,-2096,2,-505,-33,137,-311
0,2023-03-01T18:59:33.757785,2163306,1228,1949,-409,-2096,2,-505,-33,137,-311
0,2023-03-01T18:59:33.763229,2163311,1218,1942,-421,-2071,-36,-497,-33,137,-311
0,2023-03-01T18:59:33.768697,2163316,1218,1942,-421,-2071,-36,-497,-33,137,-311
0,2023-03-01T18:59:33.774168,2163322,1218,1942,-421,-2071,-36,-497,-33,137,-311
0,2023-03-01T18:59:33.779601,2163328,1218,1942,-421,-2071,-36,-497,-33,137,-311
0,2023-03-01T18:59:33.784331,2163333,1214,1969,-390,-2072,-9,-513,-33,137,-311
0,2023-03-01T18:59:33.789989,2163338,1214,1969,-390,-2072,-9,-513,-33,137,-311
0,2023-03-01T18:59:33.795006,2163343,1214,1969,-390,-2072,-9,-513,-33,137,-311
0,2023-03-01T18:59:33.799587,2163348,1214,1969,-390,-2072,-9,-513,-33,137,-311
0,2023-03-01T18:59:33.804588,2163353,1202,1960,-403,-2088,-5,-499,-33,137,-311
0,2023-03-01T18:59:33.809604,2163358,1202,1960,-403,-2088,-5,-499,-33,137,-311
0,2023-03-01T18:59:33.815045,2163363,1202,1960,-403,-2088,-5,-499,-33,137,-311
0,2023-03-01T18:59:33.820213,2163368,1202,1960,-403,-2088,-5,-499,-33,137,-311
0,2023-03-01T18:59:33.825904,2163374,1203,1962,-380,-2096,9,-493,-33,137,-311
0,2023-03-01T18:59:33.831184,2163380,1203,1962,-380,-2096,9,-493,-33,137,-311
0,2023-03-01T18:59:33.836311,2163385,1203,1962,-380,-2096,9,-493,-33,137,-311
0,2023-03-01T18:59:33.841083,2163389,1203,1962,-380,-2096,9,-493,-33,137,-311
0,2023-03-01T18:59:33.845553,2163394,1210,1957,-382,-2116,13,-505,-33,137,-311
0,2023-03-01T18:59:33.851600,2163399,1210,1957,-382,-2116,13,-505,-33,137,-311
0,2023-03-01T18:59:33.856549,2163404,1210,1957,-382,-2116,13,-505,-33,137,-311
0,2023-03-01T18:59:33.862083,2163410,1210,1957,-382,-2116,13,-505,-33,137,-311
0,2023-03-01T18:59:33.866722,2163415,1219,1955,-373,-2091,4,-501,-38,128,-298
0,2023-03-01T18:59:33.872859,2163421,1219,1955,-373,-2091,4,-501,-38,128,-298
0,2023-03-01T18:59:33.877818,2163426,1219,1955,-373,-2091,4,-501,-38,128,-298
0,2023-03-01T18:59:33.883787,2163432,1219,1938,-375,-2105,15,-504,-38,128,-298
0,2023-03-01T18:59:33.889733,2163437,1219,1938,-375,-2105,15,-504,-38,128,-298
0,2023-03-01T18:59:33.895307,2163443,1219,1938,-375,-2105,15,-504,-38,128,-298
0,2023-03-01T18:59:33.901421,2163449,1219,1938,-375,-2105,15,-504,-38,128,-298
0,2023-03-01T18:59:33.906388,2163454,1223,1942,-361,-2116,20,-513,-38,128,-298
0,2023-03-01T18:59:33.912344,2163461,1223,1942,-361,-2116,20,-513,-38,128,-298
0,2023-03-01T18:59:33.917396,2163466,1223,1942,-361,-2116,20,-513,-38,128,-298
0,2023-03-01T18:59:33.922973,2163471,1223,1936,-370,-2126,30,-510,-38,128,-298
0,2023-03-01T18:59:33.928787,2163477,1223,1936,-370,-2126,30,-510,-38,128,-298
0,2023-03-01T18:59:33.934687,2163482,1223,1936,-370,-2126,30,-510,-38,128,-298
0,2023-03-01T18:59:33.940636,2163488,1223,1936,-370,-2126,30,-510,-38,128,-298
0,2023-03-01T18:59:33.945819,2163493,1213,1954,-348,-2124,37,-515,-38,128,-298
0,2023-03-01T18:59:33.952459,2163501,1213,1954,-348,-2124,37,-515,-38,128,-298
0,2023-03-01T18:59:33.957466,2163506,1213,1954,-348,-2124,37,-515,-38,128,-298
0,2023-03-01T18:59:33.964140,2163512,1206,1951,-350,-2138,34,-510,-38,128,-298
0,2023-03-01T18:59:33.969499,2163518,1206,1951,-350,-2138,34,-510,-38,128,-298
0,2023-03-01T18:59:33.975269,2163523,1206,1951,-350,-2138,34,-510,-38,128,-298
0,2023-03-01T18:59:33.980821,2163529,1206,1951,-350,-2138,34,-510,-38,128,-298
0,2023-03-01T18:59:33.986362,2163534,1204,1973,-332,-2161,45,-514,-38,128,-298
0,2023-03-01T18:59:33.992406,2163540,1204,1973,-332,-2161,45,-514,-38,128,-298
0,2023-03-01T18:59:33.997538,2163546,1204,1973,-332,-2161,45,-514,-38,128,-298
0,2023-03-01T18:59:34.003406,2163552,1193,1959,-316,-2124,9,-508,-46,128,-292
0,2023-03-01T18:59:34.009185,2163557,1193,1959,-316,-2124,9,-508,-46,128,-292
0,2023-03-01T18:59:34.015236,2163563,1193,1959,-316,-2124,9,-508,-46,128,-292
0,2023-03-01T18:59:34.020173,2163568,1193,1959,-316,-2124,9,-508,-46,128,-292
0,2023-03-01T18:59:34.025043,2163573,1197,1967,-315,-2146,32,-516,-46,128,-292
0,2023-03-01T18:59:34.030770,2163578,1197,1967,-315,-2146,32,-516,-46,128,-292
0,2023-03-01T18:59:34.035460,2163584,1197,1967,-315,-2146,32,-516,-46,128,-292
0,2023-03-01T18:59:34.040109,2163589,1197,1967,-315,-2146,32,-516,-46,128,-292
0,2023-03-01T18:59:34.045468,2163593,1195,1956,-305,-2146,32,-510,-46,128,-292
0,2023-03-01T18:59:34.051449,2163600,1195,1956,-305,-2146,32,-510,-46,128,-292
0,2023-03-01T18:59:34.057132,2163605,1195,1956,-305,-2146,32,-510,-46,128,-292
0,2023-03-01T18:59:34.062406,2163610,1195,1956,-305,-2146,32,-510,-46,128,-292
0,2023-03-01T18:59:34.067225,2163615,1212,1962,-314,-2174,42,-524,-46,128,-292
0,2023-03-01T18:59:34.073514,2163621,1212,1962,-314,-2174,42,-524,-46,128,-292
0,2023-03-01T18:59:34.078689,2163627,1212,1962,-314,-2174,42,-524,-46,128,-292
0,2023-03-01T18:59:34.083808,2163632,1212,1956,-298,-2175,63,-515,-46,128,-292
0,2023-03-01T18:59:34.089087,2163637,1212,1956,-298,-2175,63,-515,-46,128,-292
0,2023-03-01T18:59:34.094801,2163643,1212,1956,-298,-2175,63,-515,-46,128,-292
0,2023-03-01T18:59:34.101093,2163648,1212,1956,-298,-2175,63,-515,-46,128,-292
0,2023-03-01T18:59:34.105984,2163654,1212,1937,-303,-2198,82,-512,-46,128,-292
0,2023-03-01T18:59:34.111927,2163660,1212,1937,-303,-2198,82,-512,-46,128,-292
0,2023-03-01T18:59:34.116446,2163664,1212,1937,-303,-2198,82,-512,-46,128,-292
0,2023-03-01T18:59:34.122437,2163671,1212,1937,-303,-2198,82,-512,-46,128,-292
0,2023-03-01T18:59:34.127547,2163676,1211,1947,-282,-2221,91,-530,-36,126,-294
0,2023-03-01T18:59:34.133353,2163682,1211,1947,-282,-2221,91,-530,-36,126,-294
0,2023-03-01T18:59:34.138190,2163687,1211,1947,-282,-2221,91,-530,-36,126,-294
0,2023-03-01T18:59:34.142864,2163691,1211,1947,-282,-2221,91,-530,-36,126,-294
0,2023-03-01T18:59:34.147589,2163696,1211,1940,-281,-2234,96,-522,-36,126,-294
0,2023-03-01T18:59:34.153546,2163701,1211,1940,-281,-2234,96,-522,-36,126,-294
0,2023-03-01T18:59:34.159056,2163706,1211,1940,-281,-2234,96,-522,-36,126,-294
0,2023-03-01T18:59:34.164762,2163713,1210,1959,-270,-2241,104,-540,-36,126,-294
0,2023-03-01T18:59:34.170294,2163719,1210,1959,-270,-2241,104,-540,-36,126,-294
0,2023-03-01T18:59:34.175945,2163724,1210,1959,-270,-2241,104,-540,-36,126,-294
0,2023-03-01T18:59:34.180907,2163729,1210,1959,-270,-2241,104,-540,-36,126,-294
0,2023-03-01T18:59:34.185755,2163733,1198,1955,-269,-2228,94,-531,-36,126,-294
0,2023-03-01T18:59:34.192165,2163740,1198,1955,-269,-2228,94,-531,-36,126,-294
0,2023-03-01T18:59:34.198971,2163746,1198,1955,-269,-2228,94,-531,-36,126,-294
0,2023-03-01T18:59:34.204708,2163752,1190,1970,-253,-2231,94,-531,-36,126,-294
0,2023-03-01T18:59:34.211689,2163760,1190,1970,-253,-2231,94,-531,-36,126,-294
0,2023-03-01T18:59:34.217981,2163766,1190,1970,-253,-2231,94,-531,-36,126,-294
0,2023-03-01T18:59:34.223992,2163772,1181,1964,-241,-2217,92,-531,-36,126,-294
0,2023-03-01T18:59:34.229830,2163778,1181,1964,-241,-2217,92,-531,-36,126,-294
0,2023-03-01T18:59:34.235515,2163783,1181,1964,-241,-2217,92,-531,-36,126,-294
0,2023-03-01T18:59:34.240581,2163788,1181,1964,-241,-2217,92,-531,-36,126,-294
0,2023-03-01T18:59:34.245310,2163793,1186,1967,-231,-2203,86,-521,-39,127,-285
0,2023-03-01T18:59:34.250556,2163799,1186,1967,-231,-2203,86,-521,-39,127,-285
0,2023-03-01T18:59:34.256095,2163804,1186,1967,-231,-2203,86,-521,-39,127,-285
0,2023-03-01T18:59:34.261673,2163810,1186,1967,-231,-2203,86,-521,-39,127,-285
0,2023-03-01T18:59:34.266445,2163814,1186,1965,-229,-2223,100,-533,-39,127,-285
0,2023-03-01T18:59:34.273257,2163821,1186,1965,-229,-2223,100,-533,-39,127,-285
0,2023-03-01T18:59:34.278450,2163826,1186,1965,-229,-2223,100,-533,-39,127,-285
0,2023-03-01T18:59:34.283409,2163831,1195,1959,-224,-2214,82,-518,-39,127,-285
0,2023-03-01T18:59:34.289352,2163837,1195,1959,-224,-2214,82,-518,-39,127,-285
0,2023-03-01T18:59:34.295126,2163843,1195,1959,-224,-2214,82,-518,-39,127,-285
0,2023-03-01T18:59:34.300277,2163848,1195,1959,-224,-2214,82,-518,-39,127,-285
0,2023-03-01T18:59:34.305150,2163853,1201,1944,-229,-2204,83,-526,-39,127,-285
0,2023-03-01T18:59:34.310748,2163859,1201,1944,-229,-2204,83,-526,-39,127,-285
0,2023-03-01T18:59:34.316881,2163864,1201,1944,-229,-2204,83,-526,-39,127,-285
0,2023-03-01T18:59:34.323596,2163871,1201,1944,-229,-2204,83,-526,-39,127,-285
0,2023-03-01T18:59:34.328701,2163876,1203,1943,-214,-2223,101,-533,-39,127,-285
0,2023-03-01T18:59:34.334638,2163883,1203,1943,-214,-2223,101,-533,-39,127,-285
0,2023-03-01T18:59:34.339641,2163888,1203,1943,-214,-2223,101,-533,-39,127,-285
0,2023-03-01T18:59:34.344496,2163893,1189,1936,-209,-2191,79,-528,-39,127,-285
0,2023-03-01T18:59:34.351091,2163899,1189,1936,-209,-2191,79,-528,-39,127,-285
0,2023-03-01T18:59:34.357095,2163905,1189,1936,-209,-2191,79,-528,-39,127,-285
0,2023-03-01T18:59:34.362538,2163911,1189,1936,-209,-2191,79,-528,-39,127,-285
0,2023-03-01T18:59:34.368412,2163915,1197,1960,-198,-2209,93,-539,-39,127,-285
0,2023-03-01T18:59:34.374380,2163922,1197,1960,-198,-2209,93,-539,-39,127,-285
0,2023-03-01T18:59:34.379651,2163928,1197,1960,-198,-2209,93,-539,-39,127,-285
0,2023-03-01T18:59:34.384379,2163933,1187,1955,-186,-2186,69,-524,-40,136,-288
0,2023-03-01T18:59:34.389833,2163938,1187,1955,-186,-2186,69,-524,-40,136,-288
0,2023-03-01T18:59:34.395330,2163943,1187,1955,-186,-2186,69,-524,-40,136,-288
0,2023-03-01T18:59:34.401404,2163949,1187,1955,-186,-2186,69,-524,-40,136,-288
0,2023-03-01T18:59:34.406803,2163955,1178,1971,-179,-2162,52,-526,-40,136,-288
0,2023-03-01T18:59:34.412816,2163961,1178,1971,-179,-2162,52,-526,-40,136,-288
0,2023-03-01T18:59:34.417565,2163965,1178,1971,-179,-2162,52,-526,-40,136,-288
0,2023-03-01T18:59:34.422706,2163971,1178,1971,-179,-2162,52,-526,-40,136,-288
0,2023-03-01T18:59:34.428314,2163976,1167,1959,-168,-2145,45,-517,-40,136,-288
0,2023-03-01T18:59:34.435094,2163983,1167,1959,-168,-2145,45,-517,-40,136,-288
0,2023-03-01T18:59:34.441319,2163989,1167,1959,-168,-2145,45,-517,-40,136,-288
0,2023-03-01T18:59:34.446498,2163994,1170,1963,-168,-2166,42,-515,-40,136,-288
0,2023-03-01T18:59:34.451111,2163999,1170,1963,-168,-2166,42,-515,-40,136,-288
0,2023-03-01T18:59:34.456161,2164004,1170,1963,-168,-2166,42,-515,-40,136,-288
0,2023-03-01T18:59:34.462588,2164009,1170,1963,-168,-2166,42,-515,-40,136,-288
0,2023-03-01T18:59:34.467475,2164016,1175,1965,-156,-2155,39,-520,-40,136,-288
0,2023-03-01T18:59:34.474526,2164023,1175,1965,-156,-2155,39,-520,-40,136,-288
0,2023-03-01T18:59:34.480426,2164028,1175,1965,-156,-2155,39,-520,-40,136,-288
0,2023-03-01T18:59:34.485710,2164034,1193,1964,-153,-2178,50,-529,-40,136,-288
0,2023-03-01T18:59:34.492238,2164040,1193,1964,-153,-2178,50,-529,-40,136,-288
0,2023-03-01T18:59:34.497416,2164045,1193,1964,-153,-2178,50,-529,-40,136,-288
0,2023-03-01T18:59:34.502471,2164050,1193,1964,-153,-2178,50,-529,-40,136,-288
0,2023-03-01T18:59:34.508846,2164057,1181,1952,-149,-2173,44,-523,-41,127,-285
0,2023-03-01T18:59:34.515335,2164064,1181,1952,-149,-2173,44,-523,-41,127,-285
0,2023-03-01T18:59:34.520941,2164069,1181,1952,-149,-2173,44,-523,-41,127,-285
0,2023-03-01T18:59:34.525948,2164074,1181,1952,-149,-2173,44,-523,-41,127,-285
0,2023-03-01T18:59:34.531238,2164079,1181,1952,-149,-2173,44,-523,-41,127,-285
0,2023-03-01T18:59:34.536316,2164084,1181,1952,-149,-2173,44,-523,-41,127,-285
0,2023-03-01T18:59:34.542470,2164090,1181,1952,-149,-2173,44,-523,-41,127,-285
0,2023-03-01T18:59:34.548459,2164097,1181,1940,-127,-2117,4,-517,-41,127,-285
0,2023-03-01T18:59:34.554721,2164103,1181,1940,-127,-2117,4,-517,-41,127,-285
0,2023-03-01T18:59:34.559849,2164108,1181,1940,-127,-2117,4,-517,-41,127,-285
0,2023-03-01T18:59:34.564513,2164113,1187,1940,-134,-2131,11,-526,-41,127,-285
0,2023-03-01T18:59:34.570043,2164118,1187,1940,-134,-2131,11,-526,-41,127,-285
0,2023-03-01T18:59:34.575555,2164123,1187,1940,-134,-2131,11,-526,-41,127,-285
0,2023-03-01T18:59:34.582617,2164130,1187,1940,-134,-2131,11,-526,-41,127,-285
0,2023-03-01T18:59:34.587738,2164135,1184,1958,-118,-2111,-11,-519,-41,127,-285
0,2023-03-01T18:59:34.593962,2164142,1184,1958,-118,-2111,-11,-519,-41,127,-285
0,2023-03-01T18:59:34.599368,2164147,1184,1958,-118,-2111,-11,-519,-41,127,-285
0,2023-03-01T18:59:34.605045,2164153,1167,1953,-111,-2120,-1,-516,-41,127,-285
0,2023-03-01T18:59:34.610308,2164159,1167,1953,-111,-2120,-1,-516,-41,127,-285
0,2023-03-01T18:59:34.615358,2164163,1167,1953,-111,-2120,-1,-516,-41,127,-285
0,2023-03-01T18:59:34.620775,2164168,1167,1953,-111,-2120,-1,-516,-41,127,-285
0,2023-03-01T18:59:34.626028,2164174,1169,1975,-103,-2131,3,-527,-41,127,-285
0,2023-03-01T18:59:34.632290,2164180,1169,1975,-103,-2131,3,-527,-41,127,-285
0,2023-03-01T18:59:34.637362,2164186,1169,1975,-103,-2131,3,-527,-41,127,-285
0,2023-03-01T18:59:34.642037,2164190,1169,1975,-103,-2131,3,-527,-41,127,-285
0,2023-03-01T18:59:34.646999,2164195,1156,1954,-91,-2120,-15,-518,-38,142,-272
0,2023-03-01T18:59:34.653907,2164202,1156,1954,-91,-2120,-15,-518,-38,142,-272
0,2023-03-01T18:59:34.659207,2164207,1156,1954,-91,-2120,-15,-518,-38,142,-272
0,2023-03-01T18:59:34.664217,2164212,1162,1960,-81,-2119,-1,-513,-38,142,-272
0,2023-03-01T18:59:34.670031,2164218,1162,1960,-81,-2119,-1,-513,-38,142,-272
0,2023-03-01T18:59:34.675605,2164224,1162,1960,-81,-2119,-1,-513,-38,142,-272
0,2023-03-01T18:59:34.681638,2164230,1162,1960,-81,-2119,-1,-513,-38,142,-272
0,2023-03-01T18:59:34.686205,2164235,1168,1955,-87,-2129,4,-531,-38,142,-272
0,2023-03-01T18:59:34.692203,2164240,1168,1955,-87,-2129,4,-531,-38,142,-272
0,2023-03-01T18:59:34.697070,2164245,1168,1955,-87,-2129,4,-531,-38,142,-272
0,2023-03-01T18:59:34.701608,2164250,1168,1955,-87,-2129,4,-531,-38,142,-272
0,2023-03-01T18:59:34.706277,2164254,1175,1953,-79,-2105,-8,-516,-38,142,-272
0,2023-03-01T18:59:34.712306,2164260,1175,1953,-79,-2105,-8,-516,-38,142,-272
0,2023-03-01T18:59:34.716990,2164265,1175,1953,-79,-2105,-8,-516,-38,142,-272
0,2023-03-01T18:59:34.723004,2164271,1175,1953,-79,-2105,-8,-516,-38,142,-272
0,2023-03-01T18:59:34.728157,2164277,1173,1936,-77,-2107,-7,-515,-38,142,-272
0,2023-03-01T18:59:34.734152,2164282,1173,1936,-77,-2107,-7,-515,-38,142,-272
0,2023-03-01T18:59:34.739077,2164287,1173,1936,-77,-2107,-7,-515,-38,142,-272
0,2023-03-01T18:59:34.744558,2164293,1170,1944,-64,-2136,14,-521,-38,142,-272
0,2023-03-01T18:59:34.750110,2164298,1170,1944,-64,-2136,14,-521,-38,142,-272
0,2023-03-01T18:59:34.755800,2164303,1170,1944,-64,-2136,14,-521,-38,142,-272
0,2023-03-01T18:59:34.762045,2164311,1170,1944,-64,-2136,14,-521,-38,142,-272
0,2023-03-01T18:59:34.766693,2164315,1170,1936,-62,-2135,2,-520,-45,131,-279
0,2023-03-01T18:59:34.772686,2164321,1170,1936,-62,-2135,2,-520,-45,131,-279
0,2023-03-01T18:59:34.778092,2164326,1170,1936,-62,-2135,2,-520,-45,131,-279
0,2023-03-01T18:59:34.782939,2164331,1170,1936,-62,-2135,2,-520,-45,131,-279
0,2023-03-01T18:59:34.788205,2164336,1160,1954,-46,-2140,18,-518,-45,131,-279
0,2023-03-01T18:59:34.794811,2164342,1160,1954,-46,-2140,18,-518,-45,131,-279
0,2023-03-01T18:59:34.799696,2164347,1160,1954,-46,-2140,18,-518,-45,131,-279
0,2023-03-01T18:59:34.804480,2164353,1160,1954,-46,-2140,18,-518,-45,131,-279
0,2023-03-01T18:59:34.809263,2164358,1160,1954,-46,-2140,18,-518,-45,131,-279
0,2023-03-01T18:59:34.815032,2164363,1160,1954,-46,-2140,18,-518,-45,131,-279
0,2023-03-01T18:59:34.819835,2164368,1160,1954,-46,-2140,18,-518,-45,131,-279
0,2023-03-01T18:59:34.824753,2164373,1145,1960,-35,-2142,15,-530,-45,131,-279
0,2023-03-01T18:59:34.830385,2164378,1145,1960,-35,-2142,15,-530,-45,131,-279
0,2023-03-01T18:59:34.835859,2164384,1145,1960,-35,-2142,15,-530,-45,131,-279
0,2023-03-01T18:59:34.840957,2164388,1145,1960,-35,-2142,15,-530,-45,131,-279
0,2023-03-01T18:59:34.846271,2164393,1140,1949,-32,-2142,17,-529,-45,131,-279
0,2023-03-01T18:59:34.852925,2164401,1140,1949,-32,-2142,17,-529,-45,131,-279
0,2023-03-01T18:59:34.857585,2164406,1140,1949,-32,-2142,17,-529,-45,131,-279
0,2023-03-01T18:59:34.863630,2164411,1140,1949,-32,-2142,17,-529,-45,131,-279
0,2023-03-01T18:59:34.869150,2164417,1149,1960,-14,-2157,32,-534,-45,131,-279
0,2023-03-01T18:59:34.875265,2164423,1149,1960,-14,-2157,32,-534,-45,131,-279
0,2023-03-01T18:59:34.880809,2164428,1149,1960,-14,-2157,32,-534,-45,131,-279
0,2023-03-01T18:59:34.885485,2164433,1145,1940,-19,-2163,26,-530,-45,131,-279
0,2023-03-01T18:59:34.891913,2164440,1145,1940,-19,-2163,26,-530,-45,131,-279
0,2023-03-01T18:59:34.896814,2164445,1145,1940,-19,-2163,26,-530,-45,131,-279
0,2023-03-01T18:59:34.901895,2164450,1145,1940,-19,-2163,26,-530,-45,131,-279
0,2023-03-01T18:59:34.906570,2164455,1157,1946,-11,-2200,46,-537,-40,132,-270
0,2023-03-01T18:59:34.912955,2164461,1157,1946,-11,-2200,46,-537,-40,132,-270
0,2023-03-01T18:59:34.917686,2164466,1157,1946,-11,-2200,46,-537,-40,132,-270
0,2023-03-01T18:59:34.922763,2164470,1157,1946,-11,-2200,46,-537,-40,132,-270
0,2023-03-01T18:59:34.927667,2164475,1154,1937,-11,-2223,52,-538,-40,132,-270
0,2023-03-01T18:59:34.934390,2164482,1154,1937,-11,-2223,52,-538,-40,132,-270
0,2023-03-01T18:59:34.939353,2164488,1154,1937,-11,-2223,52,-538,-40,132,-270
0,2023-03-01T18:59:34.945456,2164494,1159,1934,0,-2216,71,-539,-40,132,-270
0,2023-03-01T18:59:34.951182,2164499,1159,1934,0,-2216,71,-539,-40,132,-270
0,2023-03-01T18:59:34.956755,2164505,1159,1934,0,-2216,71,-539,-40,132,-270
0,2023-03-01T18:59:34.962549,2164510,1159,1934,0,-2216,71,-539,-40,132,-270
0,2023-03-01T18:59:34.967211,2164515,1152,1932,4,-2203,57,-539,-40,132,-270
0,2023-03-01T18:59:34.973436,2164521,1152,1932,4,-2203,57,-539,-40,132,-270
0,2023-03-01T18:59:34.978816,2164527,1152,1932,4,-2203,57,-539,-40,132,-270
0,2023-03-01T18:59:34.984706,2164533,1149,1929,11,-2246,78,-548,-40,132,-270
0,2023-03-01T18:59:34.990189,2164538,1149,1929,11,-2246,78,-548,-40,132,-270
0,2023-03-01T18:59:34.995986,2164544,1149,1929,11,-2246,78,-548,-40,132,-270
0,2023-03-01T18:59:35.000894,2164549,1149,1929,11,-2246,78,-548,-40,132,-270
0,2023-03-01T18:59:35.006046,2164554,1145,1942,24,-2248,79,-551,-40,132,-270
0,2023-03-01T18:59:35.012158,2164560,1145,1942,24,-2248,79,-551,-40,132,-270
0,2023-03-01T18:59:35.017424,2164566,1145,1942,24,-2248,79,-551,-40,132,-270
0,2023-03-01T18:59:35.023184,2164572,1145,1942,24,-2248,79,-551,-40,132,-270
0,2023-03-01T18:59:35.028079,2164576,1137,1947,39,-2247,79,-546,-37,133,-265
0,2023-03-01T18:59:35.034223,2164582,1137,1947,39,-2247,79,-546,-37,133,-265
0,2023-03-01T18:59:35.039143,2164587,1137,1947,39,-2247,79,-546,-37,133,-265
0,2023-03-01T18:59:35.043736,2164592,1137,1947,39,-2247,79,-546,-37,133,-265
0,2023-03-01T18:59:35.048876,2164596,1130,1948,50,-2234,68,-546,-37,133,-265
0,2023-03-01T18:59:35.054109,2164602,1130,1948,50,-2234,68,-546,-37,133,-265
0,2023-03-01T18:59:35.059215,2164608,1130,1948,50,-2234,68,-546,-37,133,-265
0,2023-03-01T18:59:35.064582,2164613,1123,1949,50,-2215,60,-547,-37,133,-265
0,2023-03-01T18:59:35.070399,2164619,1123,1949,50,-2215,60,-547,-37,133,-265
0,2023-03-01T18:59:35.076309,2164624,1123,1949,50,-2215,60,-547,-37,133,-265
0,2023-03-01T18:59:35.082118,2164629,1123,1949,50,-2215,60,-547,-37,133,-265
0,2023-03-01T18:59:35.088368,2164636,1127,1946,62,-2211,63,-547,-37,133,-265
0,2023-03-01T18:59:35.094127,2164642,1127,1946,62,-2211,63,-547,-37,133,-265
0,2023-03-01T18:59:35.098945,2164647,1127,1946,62,-2211,63,-547,-37,133,-265
0,2023-03-01T18:59:35.103739,2164652,1127,1946,62,-2211,63,-547,-37,133,-265
0,2023-03-01T18:59:35.108363,2164657,1138,1942,56,-2217,70,-545,-37,133,-265
0,2023-03-01T18:59:35.114520,2164662,1138,1942,56,-2217,70,-545,-37,133,-265
0,2023-03-01T18:59:35.119378,2164668,1138,1942,56,-2217,70,-545,-37,133,-265
0,2023-03-01T18:59:35.124133,2164672,1138,1942,56,-2217,70,-545,-37,133,-265
0,2023-03-01T18:59:35.128706,2164677,1136,1927,66,-2202,56,-543,-37,133,-265
0,2023-03-01T18:59:35.134483,2164682,1136,1927,66,-2202,56,-543,-37,133,-265
0,2023-03-01T18:59:35.139595,2164687,1136,1927,66,-2202,56,-543,-37,133,-265
0,2023-03-01T18:59:35.145508,2164694,1140,1920,72,-2209,61,-555,-44,126,-262
0,2023-03-01T18:59:35.151028,2164699,1140,1920,72,-2209,61,-555,-44,126,-262
0,2023-03-01T18:59:35.156448,2164705,1140,1920,72,-2209,61,-555,-44,126,-262
0,2023-03-01T18:59:35.161293,2164710,1140,1920,72,-2209,61,-555,-44,126,-262
0,2023-03-01T18:59:35.166228,2164714,1133,1918,84,-2208,66,-552,-44,126,-262
0,2023-03-01T18:59:35.172273,2164720,1133,1918,84,-2208,66,-552,-44,126,-262
0,2023-03-01T18:59:35.177009,2164725,1133,1918,84,-2208,66,-552,-44,126,-262
0,2023-03-01T18:59:35.181885,2164730,1133,1918,84,-2208,66,-552,-44,126,-262
0,2023-03-01T18:59:35.187877,2164736,1132,1930,99,-2195,63,-549,-44,126,-262
0,2023-03-01T18:59:35.195211,2164743,1132,1930,99,-2195,63,-549,-44,126,-262
0,2023-03-01T18:59:35.200351,2164749,1132,1930,99,-2195,63,-549,-44,126,-262
0,2023-03-01T18:59:35.205759,2164754,1127,1934,92,-2205,65,-554,-44,126,-262
0,2023-03-01T18:59:35.211488,2164759,1127,1934,92,-2205,65,-554,-44,126,-262
0,2023-03-01T18:59:35.217214,2164765,1127,1934,92,-2205,65,-554,-44,126,-262
0,2023-03-01T18:59:35.223446,2164771,1127,1934,92,-2205,65,-554,-44,126,-262
0,2023-03-01T18:59:35.228533,2164776,1112,1938,119,-2174,58,-530,-44,126,-262
0,2023-03-01T18:59:35.234507,2164783,1112,1938,119,-2174,58,-530,-44,126,-262
0,2023-03-01T18:59:35.239264,2164788,1112,1938,119,-2174,58,-530,-44,126,-262
0,2023-03-01T18:59:35.244006,2164792,1112,1938,119,-2174,58,-530,-44,126,-262
0,2023-03-01T18:59:35.248828,2164797,1116,1945,104,-2192,40,-548,-44,126,-262
0,2023-03-01T18:59:35.255215,2164803,1116,1945,104,-2192,40,-548,-44,126,-262
0,2023-03-01T18:59:35.259767,2164808,1116,1945,104,-2192,40,-548,-44,126,-262
0,2023-03-01T18:59:35.264195,2164812,1116,1945,104,-2192,40,-548,-44,126,-262
0,2023-03-01T18:59:35.269119,2164817,1112,1937,130,-2150,18,-535,-44,126,-262
0,2023-03-01T18:59:35.274890,2164824,1112,1937,130,-2150,18,-535,-44,126,-262
0,2023-03-01T18:59:35.279753,2164828,1112,1937,130,-2150,18,-535,-44,126,-262
0,2023-03-01T18:59:35.285994,2164834,1116,1930,123,-2179,48,-538,-36,138,-252
0,2023-03-01T18:59:35.291599,2164840,1116,1930,123,-2179,48,-538,-36,138,-252
0,2023-03-01T18:59:35.297005,2164845,1116,1930,123,-2179,48,-538,-36,138,-252
0,2023-03-01T18:59:35.302738,2164850,1116,1930,123,-2179,48,-538,-36,138,-252
0,2023-03-01T18:59:35.308283,2164856,1119,1928,138,-2172,22,-538,-36,138,-252
0,2023-03-01T18:59:35.314619,2164862,1119,1928,138,-2172,22,-538,-36,138,-252
0,2023-03-01T18:59:35.319739,2164868,1119,1928,138,-2172,22,-538,-36,138,-252
0,2023-03-01T18:59:35.325378,2164874,1119,1923,132,-2193,29,-544,-36,138,-252
0,2023-03-01T18:59:35.331093,2164879,1119,1923,132,-2193,29,-544,-36,138,-252
0,2023-03-01T18:59:35.336417,2164885,1119,1923,132,-2193,29,-544,-36,138,-252
0,2023-03-01T18:59:35.341859,2164890,1119,1923,132,-2193,29,-544,-36,138,-252
0,2023-03-01T18:59:35.346675,2164895,1125,1916,158,-2156,32,-531,-36,138,-252
0,2023-03-01T18:59:35.352357,2164900,1125,1916,158,-2156,32,-531,-36,138,-252
0,2023-03-01T18:59:35.357272,2164905,1125,1916,158,-2156,32,-531,-36,138,-252
0,2023-03-01T18:59:35.362656,2164911,1125,1916,158,-2156,32,-531,-36,138,-252
0,2023-03-01T18:59:35.367964,2164916,1123,1919,140,-2139,-6,-539,-36,138,-252
0,2023-03-01T18:59:35.373844,2164922,1123,1919,140,-2139,-6,-539,-36,138,-252
0,2023-03-01T18:59:35.378916,2164927,1123,1919,140,-2139,-6,-539,-36,138,-252
0,2023-03-01T18:59:35.384291,2164932,1123,1919,140,-2139,-6,-539,-36,138,-252
0,2023-03-01T18:59:35.389804,2164937,1117,1908,169,-2105,10,-529,-36,138,-252
0,2023-03-01T18:59:35.395840,2164944,1117,1908,169,-2105,10,-529,-36,138,-252
0,2023-03-01T18:59:35.401487,2164950,1117,1908,169,-2105,10,-529,-36,138,-252
0,2023-03-01T18:59:35.406444,2164955,1110,1921,158,-2101,-27,-537,-42,140,-258
0,2023-03-01T18:59:35.412375,2164961,1110,1921,158,-2101,-27,-537,-42,140,-258
0,2023-03-01T18:59:35.417600,2164966,1110,1921,158,-2101,-27,-537,-42,140,-258
0,2023-03-01T18:59:35.423352,2164971,1110,1921,158,-2101,-27,-537,-42,140,-258
0,2023-03-01T18:59:35.428393,2164976,1107,1925,183,-2126,12,-535,-42,140,-258
0,2023-03-01T18:59:35.434054,2164982,1107,1925,183,-2126,12,-535,-42,140,-258
0,2023-03-01T18:59:35.438729,2164986,1107,1925,183,-2126,12,-535,-42,140,-258
0,2023-03-01T18:59:35.444601,2164993,1107,1925,183,-2126,12,-535,-42,140,-258
0,2023-03-01T18:59:35.449591,2164998,1107,1925,183,-2126,12,-535,-42,140,-258
0,2023-03-01T18:59:35.455420,2165004,1107,1925,183,-2126,12,-535,-42,140,-258
0,2023-03-01T18:59:35.460169,2165008,1107,1925,183,-2126,12,-535,-42,140,-258
0,2023-03-01T18:59:35.464817,2165013,1098,1935,206,-2167,34,-548,-42,140,-258
0,2023-03-01T18:59:35.470556,2165018,1098,1935,206,-2167,34,-548,-42,140,-258
0,2023-03-01T18:59:35.476794,2165024,1098,1935,206,-2167,34,-548,-42,140,-258
0,2023-03-01T18:59:35.482678,2165030,1098,1935,206,-2167,34,-548,-42,140,-258
0,2023-03-01T18:59:35.487570,2165036,1080,1910,189,-2124,-30,-526,-42,140,-258
0,2023-03-01T18:59:35.493601,2165042,1080,1910,189,-2124,-30,-526,-42,140,-258
0,2023-03-01T18:59:35.498461,2165047,1080,1910,189,-2124,-30,-526,-42,140,-258
0,2023-03-01T18:59:35.503638,2165052,1080,1910,189,-2124,-30,-526,-42,140,-258
0,2023-03-01T18:59:35.509088,2165057,1095,1927,220,-2137,53,-548,-42,140,-258
0,2023-03-01T18:59:35.515194,2165063,1095,1927,220,-2137,53,-548,-42,140,-258
0,2023-03-01T18:59:35.520699,2165068,1095,1927,220,-2137,53,-548,-42,140,-258
0,2023-03-01T18:59:35.527285,2165075,1095,1907,188,-2108,-9,-531,-42,140,-258
0,2023-03-01T18:59:35.534147,2165082,1095,1907,188,-2108,-9,-531,-42,140,-258
0,2023-03-01T18:59:35.539147,2165087,1095,1907,188,-2108,-9,-531,-42,140,-258
0,2023-03-01T18:59:35.543988,2165092,1095,1907,188,-2108,-9,-531,-42,140,-258
0,2023-03-01T18:59:35.549202,2165097,1104,1908,231,-2130,23,-549,-42,138,-256
0,2023-03-01T18:59:35.555262,2165103,1104,1908,231,-2130,23,-549,-42,138,-256
0,2023-03-01T18:59:35.560707,2165108,1104,1908,231,-2130,23,-549,-42,138,-256
0,2023-03-01T18:59:35.565748,2165113,1093,1892,203,-2091,-33,-534,-42,138,-256
0,2023-03-01T18:59:35.571875,2165120,1093,1892,203,-2091,-33,-534,-42,138,-256
0,2023-03-01T18:59:35.577137,2165126,1093,1892,203,-2091,-33,-534,-42,138,-256
0,2023-03-01T18:59:35.582845,2165131,1093,1892,203,-2091,-33,-534,-42,138,-256
0,2023-03-01T18:59:35.588176,2165136,1096,1901,233,-2099,25,-539,-42,138,-256
0,2023-03-01T18:59:35.594321,2165142,1096,1901,233,-2099,25,-539,-42,138,-256
0,2023-03-01T18:59:35.598981,2165147,1096,1901,233,-2099,25,-539,-42,138,-256
0,2023-03-01T18:59:35.604166,2165152,1096,1901,233,-2099,25,-539,-42,138,-256
0,2023-03-01T18:59:35.609015,2165157,1096,1903,239,-2126,5,-544,-42,138,-256
0,2023-03-01T18:59:35.615128,2165163,1096,1903,239,-2126,5,-544,-42,138,-256
0,2023-03-01T18:59:35.620151,2165169,1096,1903,239,-2126,5,-544,-42,138,-256
0,2023-03-01T18:59:35.625029,2165173,1084,1905,235,-2119,-4,-537,-42,138,-256
0,2023-03-01T18:59:35.631022,2165179,1084,1905,235,-2119,-4,-537,-42,138,-256
0,2023-03-01T18:59:35.636546,2165185,1084,1905,235,-2119,-4,-537,-42,138,-256
0,2023-03-01T18:59:35.642304,2165190,1084,1905,235,-2119,-4,-537,-42,138,-256
0,2023-03-01T18:59:35.647207,2165195,1072,1908,252,-2120,10,-538,-42,138,-256
0,2023-03-01T18:59:35.654131,2165201,1072,1908,252,-2120,10,-538,-42,138,-256
0,2023-03-01T18:59:35.659194,2165208,1072,1908,252,-2120,10,-538,-42,138,-256
0,2023-03-01T18:59:35.664746,2165213,1069,1912,258,-2151,20,-550,-42,138,-256
0,2023-03-01T18:59:35.671269,2165219,1069,1912,258,-2151,20,-550,-41,149,-257
0,2023-03-01T18:59:35.678286,2165226,1069,1912,258,-2151,20,-550,-41,149,-257
0,2023-03-01T18:59:35.683854,2165232,1069,1912,258,-2151,20,-550,-41,149,-257
0,2023-03-01T18:59:35.688601,2165236,1070,1902,270,-2134,1,-545,-41,149,-257
0,2023-03-01T18:59:35.694200,2165242,1070,1902,270,-2134,1,-545,-41,149,-257
0,2023-03-01T18:59:35.699309,2165248,1070,1902,270,-2134,1,-545,-41,149,-257
0,2023-03-01T18:59:35.705288,2165254,1066,1899,268,-2160,37,-554,-41,149,-257
0,2023-03-01T18:59:35.711029,2165259,1066,1899,268,-2160,37,-554,-41,149,-257
0,2023-03-01T18:59:35.716443,2165265,1066,1899,268,-2160,37,-554,-41,149,-257
0,2023-03-01T18:59:35.722143,2165270,1066,1899,268,-2160,37,-554,-41,149,-257
0,2023-03-01T18:59:35.727443,2165275,1079,1895,259,-2149,20,-554,-41,149,-257
0,2023-03-01T18:59:35.734097,2165282,1079,1895,259,-2149,20,-554,-41,149,-257
0,2023-03-01T18:59:35.739509,2165287,1079,1895,259,-2149,20,-554,-41,149,-257
0,2023-03-01T18:59:35.745491,2165294,1080,1901,295,-2200,82,-567,-41,149,-257
0,2023-03-01T18:59:35.751054,2165300,1080,1901,295,-2200,82,-567,-41,149,-257
0,2023-03-01T18:59:35.756372,2165305,1080,1901,295,-2200,82,-567,-41,149,-257
0,2023-03-01T18:59:35.762213,2165310,1080,1901,295,-2200,82,-567,-41,149,-257
0,2023-03-01T18:59:35.767177,2165315,1081,1886,259,-2197,36,-564,-41,149,-257
0,2023-03-01T18:59:35.773301,2165321,1081,1886,259,-2197,36,-564,-41,149,-257
0,2023-03-01T18:59:35.777980,2165326,1081,1886,259,-2197,36,-564,-41,149,-257
0,2023-03-01T18:59:35.783182,2165331,1081,1886,259,-2197,36,-564,-41,149,-257
0,2023-03-01T18:59:35.787845,2165337,1081,1886,259,-2197,36,-564,-41,149,-257
0,2023-03-01T18:59:35.793393,2165342,1081,1886,259,-2197,36,-564,-41,149,-257
0,2023-03-01T18:59:35.798251,2165346,1081,1886,259,-2197,36,-564,-41,149,-257
0,2023-03-01T18:59:35.804170,2165352,1081,1886,259,-2197,36,-564,-41,149,-257
0,2023-03-01T18:59:35.809104,2165357,1071,1876,294,-2217,67,-560,-39,139,-237
0,2023-03-01T18:59:35.815198,2165363,1071,1876,294,-2217,67,-560,-39,139,-237
0,2023-03-01T18:59:35.820182,2165368,1071,1876,294,-2217,67,-560,-39,139,-237
0,2023-03-01T18:59:35.825333,2165373,1076,1892,315,-2233,84,-575,-39,139,-237
0,2023-03-01T18:59:35.830796,2165379,1076,1892,315,-2233,84,-575,-39,139,-237
0,2023-03-01T18:59:35.836185,2165385,1076,1892,315,-2233,84,-575,-39,139,-237
0,2023-03-01T18:59:35.841123,2165389,1076,1892,315,-2233,84,-575,-39,139,-237
0,2023-03-01T18:59:35.846000,2165394,1061,1891,318,-2226,72,-561,-39,139,-237
0,2023-03-01T18:59:35.851608,2165399,1061,1891,318,-2226,72,-561,-39,139,-237
0,2023-03-01T18:59:35.857807,2165406,1061,1891,318,-2226,72,-561,-39,139,-237
0,2023-03-01T18:59:35.862396,2165410,1061,1891,318,-2226,72,-561,-39,139,-237
0,2023-03-01T18:59:35.867295,2165415,1054,1889,322,-2237,71,-576,-39,139,-237
0,2023-03-01T18:59:35.873330,2165422,1054,1889,322,-2237,71,-576,-39,139,-237
0,2023-03-01T18:59:35.878314,2165427,1054,1889,322,-2237,71,-576,-39,139,-237
0,2023-03-01T18:59:35.883998,2165432,1054,1889,322,-2237,71,-576,-39,139,-237
0,2023-03-01T18:59:35.888652,2165437,1049,1899,341,-2223,69,-560,-39,139,-237
0,2023-03-01T18:59:35.894917,2165443,1049,1899,341,-2223,69,-560,-39,139,-237
0,2023-03-01T18:59:35.899878,2165448,1049,1899,341,-2223,69,-560,-39,139,-237
0,2023-03-01T18:59:35.905750,2165453,1046,1888,330,-2192,44,-555,-39,139,-237
0,2023-03-01T18:59:35.911642,2165459,1046,1888,330,-2192,44,-555,-39,139,-237
0,2023-03-01T18:59:35.917742,2165466,1046,1888,330,-2192,44,-555,-39,139,-237
0,2023-03-01T18:59:35.922543,2165471,1046,1888,330,-2192,44,-555,-39,139,-237
0,2023-03-01T18:59:35.927928,2165476,1048,1894,360,-2214,76,-558,-38,138,-234
0,2023-03-01T18:59:35.934178,2165482,1048,1894,360,-2214,76,-558,-38,138,-234
0,2023-03-01T18:59:35.939138,2165487,1048,1894,360,-2214,76,-558,-38,138,-234
0,2023-03-01T18:59:35.944214,2165492,1048,1894,360,-2214,76,-558,-38,138,-234
0,2023-03-01T18:59:35.948842,2165497,1050,1875,343,-2222,66,-557,-38,138,-234
0,2023-03-01T18:59:35.955327,2165504,1050,1875,343,-2222,66,-557,-38,138,-234
0,2023-03-01T18:59:35.960061,2165509,1050,1875,343,-2222,66,-557,-38,138,-234
0,2023-03-01T18:59:35.967097,2165515,1055,1868,358,-2217,88,-569,-38,138,-234
0,2023-03-01T18:59:35.973697,2165522,1055,1868,358,-2217,88,-569,-38,138,-234
0,2023-03-01T18:59:35.978862,2165527,1055,1868,358,-2217,88,-569,-38,138,-234
0,2023-03-01T18:59:35.984613,2165533,1055,1868,358,-2217,88,-569,-38,138,-234
0,2023-03-01T18:59:35.989787,2165537,1056,1860,353,-2195,56,-561,-38,138,-234
0,2023-03-01T18:59:35.996206,2165544,1056,1860,353,-2195,56,-561,-38,138,-234
0,2023-03-01T18:59:36.001885,2165551,1056,1860,353,-2195,56,-561,-38,138,-234
0,2023-03-01T18:59:36.006910,2165555,1055,1868,372,-2209,76,-580,-38,138,-234
0,2023-03-01T18:59:36.013191,2165561,1055,1868,372,-2209,76,-580,-38,138,-234
0,2023-03-01T18:59:36.018326,2165566,1055,1868,372,-2209,76,-580,-38,138,-234
0,2023-03-01T18:59:36.024261,2165572,1055,1868,372,-2209,76,-580,-38,138,-234
0,2023-03-01T18:59:36.029498,2165577,1050,1873,362,-2205,49,-570,-38,138,-234
0,2023-03-01T18:59:36.035827,2165584,1050,1873,362,-2205,49,-570,-38,138,-234
0,2023-03-01T18:59:36.041417,2165590,1050,1873,362,-2205,49,-570,-38,138,-234
0,2023-03-01T18:59:36.046399,2165595,1039,1874,388,-2203,68,-566,-38,144,-240
0,2023-03-01T18:59:36.052685,2165601,1039,1874,388,-2203,68,-566,-38,144,-240
0,2023-03-01T18:59:36.057748,2165606,1039,1874,388,-2203,68,-566,-38,144,-240
0,2023-03-01T18:59:36.063352,2165612,1039,1874,388,-2203,68,-566,-38,144,-240
0,2023-03-01T18:59:36.068743,2165616,1024,1879,390,-2201,30,-572,-38,144,-240
0,2023-03-01T18:59:36.074668,2165622,1024,1879,390,-2201,30,-572,-38,144,-240
0,2023-03-01T18:59:36.080190,2165628,1024,1879,390,-2201,30,-572,-38,144,-240
0,2023-03-01T18:59:36.085068,2165634,1024,1879,390,-2201,30,-572,-38,144,-240
0,2023-03-01T18:59:36.089860,2165638,1026,1881,423,-2132,32,-550,-38,144,-240
0,2023-03-01T18:59:36.095418,2165644,1026,1881,423,-2132,32,-550,-38,144,-240
0,2023-03-01T18:59:36.100964,2165649,1026,1881,423,-2132,32,-550,-38,144,-240
0,2023-03-01T18:59:36.106682,2165655,1021,1865,389,-2106,-56,-563,-38,144,-240
0,2023-03-01T18:59:36.112584,2165661,1021,1865,389,-2106,-56,-563,-38,144,-240
0,2023-03-01T18:59:36.117019,2165665,1021,1865,389,-2106,-56,-563,-38,144,-240
0,2023-03-01T18:59:36.122409,2165670,1021,1865,389,-2106,-56,-563,-38,144,-240
0,2023-03-01T18:59:36.127591,2165676,1033,1883,414,-2133,47,-561,-38,144,-240
0,2023-03-01T18:59:36.134522,2165683,1033,1883,414,-2133,47,-561,-38,144,-240
0,2023-03-01T18:59:36.139377,2165688,1033,1883,414,-2133,47,-561,-38,144,-240
0,2023-03-01T18:59:36.145168,2165693,1033,1883,414,-2133,47,-561,-38,144,-240
0,2023-03-01T18:59:36.150320,2165698,1022,1845,409,-2072,2,-542,-38,144,-240
0,2023-03-01T18:59:36.157142,2165705,1022,1845,409,-2072,2,-542,-38,144,-240
0,2023-03-01T18:59:36.162353,2165710,1022,1845,409,-2072,2,-542,-38,144,-240
0,2023-03-01T18:59:36.167539,2165715,1041,1865,427,-2194,46,-571,-38,144,-240
0,2023-03-01T18:59:36.172861,2165722,1041,1865,427,-2194,46,-571,-38,144,-240
0,2023-03-01T18:59:36.178280,2165726,1041,1865,427,-2194,46,-571,-38,144,-240
0,2023-03-01T18:59:36.184852,2165733,1041,1865,427,-2194,46,-571,-38,144,-240
0,2023-03-01T18:59:36.189981,2165738,1027,1837,407,-2120,-29,-552,-30,150,-230
0,2023-03-01T18:59:36.196835,2165745,1027,1837,407,-2120,-29,-552,-30,150,-230
0,2023-03-01T18:59:36.202242,2165750,1027,1837,407,-2120,-29,-552,-30,150,-230
0,2023-03-01T18:59:36.207232,2165755,1041,1865,449,-2156,64,-564,-30,150,-230
0,2023-03-01T18:59:36.213431,2165762,1041,1865,449,-2156,64,-564,-30,150,-230
0,2023-03-01T18:59:36.218382,2165767,1041,1865,449,-2156,64,-564,-30,150,-230
0,2023-03-01T18:59:36.223617,2165772,1041,1865,449,-2156,64,-564,-30,150,-230
0,2023-03-01T18:59:36.228619,2165777,1041,1865,449,-2156,64,-564,-30,150,-230
0,2023-03-01T18:59:36.234516,2165783,1041,1865,449,-2156,64,-564,-30,150,-230
0,2023-03-01T18:59:36.239739,2165787,1041,1865,449,-2156,64,-564,-30,150,-230
0,2023-03-01T18:59:36.245794,2165793,1041,1865,449,-2156,64,-564,-30,150,-230
0,2023-03-01T18:59:36.250512,2165798,1029,1865,466,-2167,63,-572,-30,150,-230
0,2023-03-01T18:59:36.256352,2165805,1029,1865,466,-2167,63,-572,-30,150,-230
0,2023-03-01T18:59:36.261964,2165810,1029,1865,466,-2167,63,-572,-30,150,-230
0,2023-03-01T18:59:36.267478,2165816,1012,1843,434,-2121,-17,-545,-30,150,-230
0,2023-03-01T18:59:36.273873,2165822,1012,1843,434,-2121,-17,-545,-30,150,-230
0,2023-03-01T18:59:36.278517,2165827,1012,1843,434,-2121,-17,-545,-30,150,-230
0,2023-03-01T18:59:36.283553,2165831,1012,1843,434,-2121,-17,-545,-30,150,-230
0,2023-03-01T18:59:36.288681,2165836,1007,1864,479,-2143,43,-573,-30,150,-230
0,2023-03-01T18:59:36.295866,2165843,1007,1864,479,-2143,43,-573,-30,150,-230
0,2023-03-01T18:59:36.301291,2165849,1007,1864,479,-2143,43,-573,-30,150,-230
0,2023-03-01T18:59:36.306017,2165855,993,1852,454,-2119,-12,-556,-41,145,-229
0,2023-03-01T18:59:36.312067,2165860,993,1852,454,-2119,-12,-556,-41,145,-229
0,2023-03-01T18:59:36.316850,2165865,993,1852,454,-2119,-12,-556,-41,145,-229
0,2023-03-01T18:59:36.321708,2165870,993,1852,454,-2119,-12,-556,-41,145,-229
0,2023-03-01T18:59:36.327411,2165875,1000,1856,489,-2124,44,-559,-41,145,-229
0,2023-03-01T18:59:36.333638,2165881,1000,1856,489,-2124,44,-559,-41,145,-229
0,2023-03-01T18:59:36.338678,2165886,1000,1856,489,-2124,44,-559,-41,145,-229
0,2023-03-01T18:59:36.344081,2165893,1000,1856,489,-2124,44,-559,-41,145,-229
0,2023-03-01T18:59:36.349200,2165897,996,1846,483,-2096,1,-548,-41,145,-229
0,2023-03-01T18:59:36.355609,2165904,996,1846,483,-2096,1,-548,-41,145,-229
0,2023-03-01T18:59:36.360649,2165909,996,1846,483,-2096,1,-548,-41,145,-229
0,2023-03-01T18:59:36.365949,2165914,1011,1845,485,-2092,-5,-562,-41,145,-229
0,2023-03-01T18:59:36.371404,2165919,1011,1845,485,-2092,-5,-562,-41,145,-229
0,2023-03-01T18:59:36.376138,2165924,1011,1845,485,-2092,-5,-562,-41,145,-229
0,2023-03-01T18:59:36.381266,2165929,1011,1845,485,-2092,-5,-562,-41,145,-229
0,2023-03-01T18:59:36.386234,2165935,1007,1829,489,-2040,-31,-548,-41,145,-229
0,2023-03-01T18:59:36.392211,2165941,1007,1829,489,-2040,-31,-548,-41,145,-229
0,2023-03-01T18:59:36.397305,2165945,1007,1829,489,-2040,-31,-548,-41,145,-229
0,2023-03-01T18:59:36.403101,2165951,1007,1829,489,-2040,-31,-548,-41,145,-229
0,2023-03-01T18:59:36.407812,2165956,1004,1824,481,-2045,-29,-546,-41,145,-229
0,2023-03-01T18:59:36.414470,2165962,1004,1824,481,-2045,-29,-546,-41,145,-229
0,2023-03-01T18:59:36.419248,2165967,1004,1824,481,-2045,-29,-546,-41,145,-229
0,2023-03-01T18:59:36.424227,2165972,1004,1824,481,-2045,-29,-546,-41,145,-229
0,2023-03-01T18:59:36.429473,2165978,1003,1825,509,-2044,-28,-549,-41,145,-229
0,2023-03-01T18:59:36.434331,2165983,1003,1825,509,-2044,-28,-549,-41,145,-229
0,2023-03-01T18:59:36.439517,2165988,1003,1825,509,-2044,-28,-549,-41,145,-229
0,2023-03-01T18:59:36.445053,2165993,1003,1825,509,-2044,-28,-549,-41,145,-229
0,2023-03-01T18:59:36.450124,2165998,999,1820,507,-2057,-51,-552,-39,141,-233
0,2023-03-01T18:59:36.456081,2166004,999,1820,507,-2057,-51,-552,-39,141,-233
0,2023-03-01T18:59:36.460928,2166009,999,1820,507,-2057,-51,-552,-39,141,-233
0,2023-03-01T18:59:36.465966,2166014,991,1833,522,-2050,-30,-553,-39,141,-233
0,2023-03-01T18:59:36.471575,2166020,991,1833,522,-2050,-30,-553,-39,141,-233
0,2023-03-01T18:59:36.477203,2166026,991,1833,522,-2050,-30,-553,-39,141,-233
0,2023-03-01T18:59:36.483347,2166031,991,1833,522,-2050,-30,-553,-39,141,-233
0,2023-03-01T18:59:36.488642,2166037,982,1824,518,-2086,-13,-556,-39,141,-233
0,2023-03-01T18:59:36.494972,2166043,982,1824,518,-2086,-13,-556,-39,141,-233
0,2023-03-01T18:59:36.500264,2166048,982,1824,518,-2086,-13,-556,-39,141,-233
0,2023-03-01T18:59:36.505915,2166054,982,1824,518,-2086,-13,-556,-39,141,-233
0,2023-03-01T18:59:36.510845,2166060,982,1824,518,-2086,-13,-556,-39,141,-233
0,2023-03-01T18:59:36.516362,2166065,982,1824,518,-2086,-13,-556,-39,141,-233
0,2023-03-01T18:59:36.521320,2166070,982,1824,518,-2086,-13,-556,-39,141,-233
0,2023-03-01T18:59:36.526295,2166075,967,1819,533,-2163,32,-564,-39,141,-233
0,2023-03-01T18:59:36.532358,2166081,967,1819,533,-2163,32,-564,-39,141,-233
0,2023-03-01T18:59:36.537467,2166085,967,1819,533,-2163,32,-564,-39,141,-233
0,2023-03-01T18:59:36.543108,2166091,967,1819,533,-2163,32,-564,-39,141,-233
0,2023-03-01T18:59:36.547938,2166096,978,1833,551,-2189,61,-572,-39,141,-233
0,2023-03-01T18:59:36.554006,2166102,978,1833,551,-2189,61,-572,-39,141,-233
0,2023-03-01T18:59:36.559316,2166108,978,1833,551,-2189,61,-572,-39,141,-233
0,2023-03-01T18:59:36.564049,2166112,978,1833,551,-2189,61,-572,-39,141,-233
0,2023-03-01T18:59:36.569395,2166117,975,1824,546,-2153,50,-562,-42,152,-228
0,2023-03-01T18:59:36.575331,2166123,975,1824,546,-2153,50,-562,-42,152,-228
0,2023-03-01T18:59:36.580871,2166128,975,1824,546,-2153,50,-562,-42,152,-228
0,2023-03-01T18:59:36.585827,2166134,975,1824,546,-2153,50,-562,-42,152,-228
0,2023-03-01T18:59:36.590467,2166138,983,1820,555,-2191,65,-577,-42,152,-228
0,2023-03-01T18:59:36.595473,2166144,983,1820,555,-2191,65,-577,-42,152,-228
0,2023-03-01T18:59:36.601129,2166149,983,1820,555,-2191,65,-577,-42,152,-228
0,2023-03-01T18:59:36.606820,2166155,981,1810,551,-2191,57,-576,-42,152,-228
0,2023-03-01T18:59:36.613531,2166161,981,1810,551,-2191,57,-576,-42,152,-228
0,2023-03-01T18:59:36.619309,2166167,981,1810,551,-2191,57,-576,-42,152,-228
0,2023-03-01T18:59:36.625136,2166173,981,1810,551,-2191,57,-576,-42,152,-228
0,2023-03-01T18:59:36.630366,2166178,973,1798,561,-2253,94,-587,-42,152,-228
0,2023-03-01T18:59:36.636449,2166184,973,1798,561,-2253,94,-587,-42,152,-228
0,2023-03-01T18:59:36.641353,2166190,973,1798,561,-2253,94,-587,-42,152,-228
0,2023-03-01T18:59:36.646075,2166195,973,1798,561,-2253,94,-587,-42,152,-228
0,2023-03-01T18:59:36.650869,2166199,977,1792,574,-2232,83,-580,-42,152,-228
0,2023-03-01T18:59:36.656371,2166204,977,1792,574,-2232,83,-580,-42,152,-228
0,2023-03-01T18:59:36.661418,2166210,977,1792,574,-2232,83,-580,-42,152,-228
0,2023-03-01T18:59:36.666182,2166214,970,1796,573,-2210,79,-580,-42,152,-228
0,2023-03-01T18:59:36.671419,2166219,970,1796,573,-2210,79,-580,-42,152,-228
0,2023-03-01T18:59:36.677199,2166225,970,1796,573,-2210,79,-580,-42,152,-228
0,2023-03-01T18:59:36.682098,2166231,970,1796,573,-2210,79,-580,-42,152,-228
0,2023-03-01T18:59:36.687200,2166235,969,1798,586,-2188,66,-558,-42,152,-228
0,2023-03-01T18:59:36.693588,2166241,969,1798,586,-2188,66,-558,-42,152,-228
0,2023-03-01T18:59:36.698491,2166247,969,1798,586,-2188,66,-558,-42,152,-228
0,2023-03-01T18:59:36.703357,2166252,969,1798,586,-2188,66,-558,-42,152,-228
0,2023-03-01T18:59:36.708799,2166256,955,1792,593,-2176,56,-572,-34,156,-230
0,2023-03-01T18:59:36.716019,2166264,955,1792,593,-2176,56,-572,-34,156,-230
0,2023-03-01T18:59:36.720692,2166269,955,1792,593,-2176,56,-572,-34,156,-230
0,2023-03-01T18:59:36.725748,2166274,955,1792,593,-2176,56,-572,-34,156,-230
0,2023-03-01T18:59:36.730515,2166279,952,1801,599,-2208,76,-578,-34,156,-230
0,2023-03-01T18:59:36.736555,2166285,952,1801,599,-2208,76,-578,-34,156,-230
0,2023-03-01T18:59:36.742393,2166290,952,1801,599,-2208,76,-578,-34,156,-230
0,2023-03-01T18:59:36.747849,2166296,939,1807,610,-2211,67,-573,-34,156,-230
0,2023-03-01T18:59:36.754387,2166302,939,1807,610,-2211,67,-573,-34,156,-230
0,2023-03-01T18:59:36.759612,2166307,939,1807,610,-2211,67,-573,-34,156,-230
0,2023-03-01T18:59:36.764248,2166312,939,1807,610,-2211,67,-573,-34,156,-230
0,2023-03-01T18:59:36.769277,2166318,946,1803,622,-2193,68,-582,-34,156,-230
0,2023-03-01T18:59:36.775660,2166324,946,1803,622,-2193,68,-582,-34,156,-230
0,2023-03-01T18:59:36.781488,2166329,946,1803,622,-2193,68,-582,-34,156,-230
0,2023-03-01T18:59:36.786531,2166335,945,1798,621,-2223,89,-586,-34,156,-230
0,2023-03-01T18:59:36.793064,2166341,945,1798,621,-2223,89,-586,-34,156,-230
0,2023-03-01T18:59:36.798262,2166346,945,1798,621,-2223,89,-586,-34,156,-230
0,2023-03-01T18:59:36.803471,2166351,945,1798,621,-2223,89,-586,-34,156,-230
0,2023-03-01T18:59:36.808480,2166356,947,1781,618,-2242,99,-581,-34,156,-230
0,2023-03-01T18:59:36.814659,2166363,947,1781,618,-2242,99,-581,-34,156,-230
0,2023-03-01T18:59:36.819521,2166368,947,1781,618,-2242,99,-581,-34,156,-230
0,2023-03-01T18:59:36.825528,2166373,947,1781,618,-2242,99,-581,-34,156,-230
0,2023-03-01T18:59:36.830396,2166379,953,1767,633,-2229,83,-584,-36,144,-228
0,2023-03-01T18:59:36.835776,2166384,953,1767,633,-2229,83,-584,-36,144,-228
0,2023-03-01T18:59:36.840703,2166389,953,1767,633,-2229,83,-584,-36,144,-228
0,2023-03-01T18:59:36.845332,2166393,953,1767,633,-2229,83,-584,-36,144,-228
0,2023-03-01T18:59:36.850465,2166398,947,1770,637,-2181,46,-590,-36,144,-228
0,2023-03-01T18:59:36.856803,2166405,947,1770,637,-2181,46,-590,-36,144,-228
0,2023-03-01T18:59:36.862906,2166411,947,1770,637,-2181,46,-590,-36,144,-228
0,2023-03-01T18:59:36.867522,2166416,941,1763,636,-2167,46,-580,-36,144,-228
0,2023-03-01T18:59:36.873370,2166421,941,1763,636,-2167,46,-580,-36,144,-228
0,2023-03-01T18:59:36.878438,2166426,941,1763,636,-2167,46,-580,-36,144,-228
0,2023-03-01T18:59:36.883402,2166431,941,1763,636,-2167,46,-580,-36,144,-228
0,2023-03-01T18:59:36.888286,2166436,939,1782,656,-2192,63,-588,-36,144,-228
0,2023-03-01T18:59:36.893784,2166443,939,1782,656,-2192,63,-588,-36,144,-228
0,2023-03-01T18:59:36.898898,2166447,939,1782,656,-2192,63,-588,-36,144,-228
0,2023-03-01T18:59:36.904639,2166453,939,1782,656,-2192,63,-588,-36,144,-228
0,2023-03-01T18:59:36.909787,2166458,928,1770,655,-2159,36,-577,-36,144,-228
0,2023-03-01T18:59:36.916563,2166465,928,1770,655,-2159,36,-577,-36,144,-228
0,2023-03-01T18:59:36.921302,2166469,928,1770,655,-2159,36,-577,-36,144,-228
0,2023-03-01T18:59:36.926096,2166474,928,1770,655,-2159,36,-577,-36,144,-228
0,2023-03-01T18:59:36.930850,2166479,927,1785,674,-2173,56,-595,-36,144,-228
0,2023-03-01T18:59:36.936331,2166484,927,1785,674,-2173,56,-595,-36,144,-228
0,2023-03-01T18:59:36.941073,2166490,927,1785,674,-2173,56,-595,-36,144,-228
0,2023-03-01T18:59:36.946903,2166495,912,1775,672,-2143,12,-574,-36,144,-228
0,2023-03-01T18:59:36.953261,2166502,912,1775,672,-2143,12,-574,-39,153,-215
0,2023-03-01T18:59:36.958137,2166506,912,1775,672,-2143,12,-574,-39,153,-215
0,2023-03-01T18:59:36.963765,2166512,912,1775,672,-2143,12,-574,-39,153,-215
0,2023-03-01T18:59:36.969277,2166517,912,1770,684,-2160,46,-575,-39,153,-215
0,2023-03-01T18:59:36.975950,2166524,912,1770,684,-2160,46,-575,-39,153,-215
0,2023-03-01T18:59:36.980549,2166529,912,1770,684,-2160,46,-575,-39,153,-215
0,2023-03-01T18:59:36.985605,2166534,912,1770,684,-2160,46,-575,-39,153,-215
0,2023-03-01T18:59:36.991304,2166540,915,1768,689,-2143,25,-577,-39,153,-215
0,2023-03-01T18:59:36.997571,2166546,915,1768,689,-2143,25,-577,-39,153,-215
0,2023-03-01T18:59:37.003103,2166551,915,1768,689,-2143,25,-577,-39,153,-215
0,2023-03-01T18:59:37.008128,2166556,916,1760,681,-2156,40,-584,-39,153,-215
0,2023-03-01T18:59:37.014108,2166562,916,1760,681,-2156,40,-584,-39,153,-215
0,2023-03-01T18:59:37.019651,2166567,916,1760,681,-2156,40,-584,-39,153,-215
0,2023-03-01T18:59:37.025411,2166574,916,1760,681,-2156,40,-584,-39,153,-215
0,2023-03-01T18:59:37.030633,2166579,918,1754,679,-2137,23,-581,-39,153,-215
0,2023-03-01T18:59:37.036521,2166585,918,1754,679,-2137,23,-581,-39,153,-215
0,2023-03-01T18:59:37.041834,2166590,918,1754,679,-2137,23,-581,-39,153,-215
0,2023-03-01T18:59:37.047435,2166596,928,1757,699,-2129,25,-577,-39,153,-215
0,2023-03-01T18:59:37.054745,2166602,928,1757,699,-2129,25,-577,-39,153,-215
0,2023-03-01T18:59:37.060691,2166608,928,1757,699,-2129,25,-577,-39,153,-215
0,2023-03-01T18:59:37.066407,2166615,928,1757,699,-2129,25,-577,-39,153,-215
0,2023-03-01T18:59:37.071829,2166620,913,1734,694,-2122,9,-567,-39,153,-215
0,2023-03-01T18:59:37.077564,2166626,913,1734,694,-2122,9,-567,-39,153,-215
0,2023-03-01T18:59:37.083586,2166632,913,1734,694,-2122,9,-567,-39,153,-215
0,2023-03-01T18:59:37.088567,2166637,920,1749,720,-2097,18,-576,-39,143,-217
0,2023-03-01T18:59:37.094627,2166642,920,1749,720,-2097,18,-576,-39,143,-217
0,2023-03-01T18:59:37.100117,2166647,920,1749,720,-2097,18,-576,-39,143,-217
0,2023-03-01T18:59:37.105846,2166653,920,1749,720,-2097,18,-576,-39,143,-217
0,2023-03-01T18:59:37.110850,2166660,913,1737,708,-2091,3,-566,-39,143,-217
0,2023-03-01T18:59:37.116420,2166665,913,1737,708,-2091,3,-566,-39,143,-217
0,2023-03-01T18:59:37.121112,2166669,913,1737,708,-2091,3,-566,-39,143,-217
0,2023-03-01T18:59:37.126537,2166675,913,1737,708,-2091,3,-566,-39,143,-217
0,2023-03-01T18:59:37.131836,2166680,902,1742,719,-2089,5,-564,-39,143,-217
0,2023-03-01T18:59:37.137910,2166686,902,1742,719,-2089,5,-564,-39,143,-217
0,2023-03-01T18:59:37.143916,2166692,902,1742,719,-2089,5,-564,-39,143,-217
0,2023-03-01T18:59:37.148850,2166697,892,1737,728,-2089,-4,-563,-39,143,-217
0,2023-03-01T18:59:37.156527,2166705,892,1737,728,-2089,-4,-563,-39,143,-217
0,2023-03-01T18:59:37.161674,2166710,892,1737,728,-2089,-4,-563,-39,143,-217
0,2023-03-01T18:59:37.166741,2166715,892,1737,728,-2089,-4,-563,-39,143,-217
0,2023-03-01T18:59:37.172335,2166721,886,1748,735,-2110,14,-568,-39,143,-217
0,2023-03-01T18:59:37.177479,2166726,886,1748,735,-2110,14,-568,-39,143,-217
0,2023-03-01T18:59:37.182926,2166731,886,1748,735,-2110,14,-568,-39,143,-217
0,2023-03-01T18:59:37.188064,2166736,880,1739,736,-2098,12,-565,-39,143,-217
0,2023-03-01T18:59:37.194080,2166743,880,1739,736,-2098,12,-565,-39,143,-217
0,2023-03-01T18:59:37.198989,2166748,880,1739,736,-2098,12,-565,-39,143,-217
0,2023-03-01T18:59:37.203655,2166752,880,1739,736,-2098,12,-565,-39,143,-217
0,2023-03-01T18:59:37.208331,2166757,889,1738,751,-2113,12,-566,-34,150,-210
0,2023-03-01T18:59:37.214464,2166763,889,1738,751,-2113,12,-566,-34,150,-210
0,2023-03-01T18:59:37.219479,2166768,889,1738,751,-2113,12,-566,-34,150,-210
0,2023-03-01T18:59:37.224779,2166772,889,1738,751,-2113,12,-566,-34,150,-210
0,2023-03-01T18:59:37.229535,2166778,889,1728,742,-2083,0,-566,-34,150,-210
0,2023-03-01T18:59:37.235260,2166784,889,1728,742,-2083,0,-566,-34,150,-210
0,2023-03-01T18:59:37.240082,2166789,889,1728,742,-2083,0,-566,-34,150,-210
0,2023-03-01T18:59:37.244858,2166793,889,1728,742,-2083,0,-566,-34,150,-210
0,2023-03-01T18:59:37.250077,2166798,895,1725,750,-2093,2,-566,-34,150,-210
0,2023-03-01T18:59:37.255844,2166804,895,1725,750,-2093,2,-566,-34,150,-210
0,2023-03-01T18:59:37.260414,2166809,895,1725,750,-2093,2,-566,-34,150,-210
0,2023-03-01T18:59:37.265295,2166813,895,1725,750,-2093,2,-566,-34,150,-210
0,2023-03-01T18:59:37.270537,2166818,892,1720,754,-2078,-3,-576,-34,150,-210
0,2023-03-01T18:59:37.277358,2166825,892,1720,754,-2078,-3,-576,-34,150,-210
0,2023-03-01T18:59:37.282346,2166831,892,1720,754,-2078,-3,-576,-34,150,-210
0,2023-03-01T18:59:37.288040,2166836,891,1711,762,-2072,-10,-574,-34,150,-210
0,2023-03-01T18:59:37.293674,2166842,891,1711,762,-2072,-10,-574,-34,150,-210
0,2023-03-01T18:59:37.299248,2166847,891,1711,762,-2072,-10,-574,-34,150,-210
0,2023-03-01T18:59:37.304174,2166852,891,1711,762,-2072,-10,-574,-34,150,-210
0,2023-03-01T18:59:37.309164,2166857,885,1707,770,-2084,3,-575,-34,150,-210
0,2023-03-01T18:59:37.315033,2166863,885,1707,770,-2084,3,-575,-34,150,-210
0,2023-03-01T18:59:37.320957,2166868,885,1707,770,-2084,3,-575,-34,150,-210
0,2023-03-01T18:59:37.326021,2166874,885,1707,770,-2084,3,-575,-34,150,-210
0,2023-03-01T18:59:37.330677,2166879,878,1712,768,-2108,11,-580,-34,150,-210
0,2023-03-01T18:59:37.336777,2166885,878,1712,768,-2108,11,-580,-34,150,-210
0,2023-03-01T18:59:37.341605,2166890,878,1712,768,-2108,11,-580,-34,150,-210
0,2023-03-01T18:59:37.346561,2166895,878,1712,768,-2108,11,-580,-34,150,-210
0,2023-03-01T18:59:37.352536,2166900,871,1720,786,-2133,27,-583,-28,150,-210
0,2023-03-01T18:59:37.358110,2166906,871,1720,786,-2133,27,-583,-28,150,-210
0,2023-03-01T18:59:37.363063,2166912,871,1720,786,-2133,27,-583,-28,150,-210
0,2023-03-01T18:59:37.367652,2166916,855,1705,794,-2120,22,-576,-28,150,-210
0,2023-03-01T18:59:37.373460,2166922,855,1705,794,-2120,22,-576,-28,150,-210
0,2023-03-01T18:59:37.378876,2166927,855,1705,794,-2120,22,-576,-28,150,-210
0,2023-03-01T18:59:37.385306,2166933,855,1705,794,-2120,22,-576,-28,150,-210
0,2023-03-01T18:59:37.390346,2166939,857,1721,802,-2137,32,-584,-28,150,-210
0,2023-03-01T18:59:37.396615,2166945,857,1721,802,-2137,32,-584,-28,150,-210
0,2023-03-01T18:59:37.401341,2166949,857,1721,802,-2137,32,-584,-28,150,-210
0,2023-03-01T18:59:37.406805,2166955,857,1721,802,-2137,32,-584,-28,150,-210
0,2023-03-01T18:59:37.412261,2166961,853,1702,802,-2133,31,-586,-28,150,-210
0,2023-03-01T18:59:37.417674,2166966,853,1702,802,-2133,31,-586,-28,150,-210
0,2023-03-01T18:59:37.422233,2166971,853,1702,802,-2133,31,-586,-28,150,-210
0,2023-03-01T18:59:37.427342,2166975,853,1702,802,-2133,31,-586,-28,150,-210
0,2023-03-01T18:59:37.433410,2166981,860,1716,811,-2161,40,-604,-28,150,-210
0,2023-03-01T18:59:37.438868,2166987,860,1716,811,-2161,40,-604,-28,150,-210
0,2023-03-01T18:59:37.443753,2166991,860,1716,811,-2161,40,-604,-28,150,-210
0,2023-03-01T18:59:37.448760,2166996,856,1692,811,-2164,58,-589,-28,150,-210
0,2023-03-01T18:59:37.454990,2167003,856,1692,811,-2164,58,-589,-28,150,-210
0,2023-03-01T18:59:37.459971,2167008,856,1692,811,-2164,58,-589,-28,150,-210
0,2023-03-01T18:59:37.464951,2167013,856,1692,811,-2164,58,-589,-28,150,-210
0,2023-03-01T18:59:37.470061,2167018,864,1695,824,-2206,72,-609,-35,159,-217
0,2023-03-01T18:59:37.476156,2167024,864,1695,824,-2206,72,-609,-35,159,-217
0,2023-03-01T18:59:37.481919,2167030,864,1695,824,-2206,72,-609,-35,159,-217
0,2023-03-01T18:59:37.487069,2167035,864,1695,824,-2206,72,-609,-35,159,-217
0,2023-03-01T18:59:37.492599,2167041,856,1682,811,-2186,52,-591,-35,159,-217
0,2023-03-01T18:59:37.499686,2167048,856,1682,811,-2186,52,-591,-35,159,-217
0,2023-03-01T18:59:37.504933,2167053,856,1682,811,-2186,52,-591,-35,159,-217
0,2023-03-01T18:59:37.510350,2167058,854,1676,824,-2242,86,-609,-35,159,-217
0,2023-03-01T18:59:37.516722,2167065,854,1676,824,-2242,86,-609,-35,159,-217
0,2023-03-01T18:59:37.522102,2167070,854,1676,824,-2242,86,-609,-35,159,-217
0,2023-03-01T18:59:37.527861,2167076,848,1668,835,-2228,70,-614,-35,159,-217
0,2023-03-01T18:59:37.534093,2167081,848,1668,835,-2228,70,-614,-35,159,-217
0,2023-03-01T18:59:37.538765,2167087,848,1668,835,-2228,70,-614,-35,159,-217
0,2023-03-01T18:59:37.545074,2167093,848,1668,835,-2228,70,-614,-35,159,-217
0,2023-03-01T18:59:37.550381,2167098,847,1677,844,-2213,85,-605,-35,159,-217
0,2023-03-01T18:59:37.556866,2167105,847,1677,844,-2213,85,-605,-35,159,-217
0,2023-03-01T18:59:37.561770,2167110,847,1677,844,-2213,85,-605,-35,159,-217
0,2023-03-01T18:59:37.566216,2167114,847,1677,844,-2213,85,-605,-35,159,-217
0,2023-03-01T18:59:37.571023,2167119,839,1676,839,-2247,91,-605,-35,159,-217
0,2023-03-01T18:59:37.577849,2167126,839,1676,839,-2247,91,-605,-35,159,-217
0,2023-03-01T18:59:37.583467,2167132,839,1676,839,-2247,91,-605,-35,159,-217
0,2023-03-01T18:59:37.589374,2167137,827,1672,853,-2218,73,-608,-25,161,-197
0,2023-03-01T18:59:37.595928,2167144,827,1672,853,-2218,73,-608,-25,161,-197
0,2023-03-01T18:59:37.601428,2167149,827,1672,853,-2218,73,-608,-25,161,-197
0,2023-03-01T18:59:37.608523,2167156,820,1677,864,-2222,79,-607,-25,161,-197
0,2023-03-01T18:59:37.615053,2167163,820,1677,864,-2222,79,-607,-25,161,-197
0,2023-03-01T18:59:37.619926,2167169,820,1677,864,-2222,79,-607,-25,161,-197
0,2023-03-01T18:59:37.625507,2167174,820,1677,864,-2222,79,-607,-25,161,-197
0,2023-03-01T18:59:37.630660,2167179,821,1669,869,-2205,65,-604,-25,161,-197
0,2023-03-01T18:59:37.637017,2167185,821,1669,869,-2205,65,-604,-25,161,-197
0,2023-03-01T18:59:37.641918,2167190,821,1669,869,-2205,65,-604,-25,161,-197
0,2023-03-01T18:59:37.646560,2167195,821,1669,869,-2205,65,-604,-25,161,-197
0,2023-03-01T18:59:37.652305,2167200,827,1674,864,-2194,54,-600,-25,161,-197
0,2023-03-01T18:59:37.658756,2167206,827,1674,864,-2194,54,-600,-25,161,-197
0,2023-03-01T18:59:37.663828,2167212,827,1674,864,-2194,54,-600,-25,161,-197
0,2023-03-01T18:59:37.668661,2167217,826,1651,871,-2168,55,-591,-25,161,-197
0,2023-03-01T18:59:37.674207,2167223,826,1651,871,-2168,55,-591,-25,161,-197
0,2023-03-01T18:59:37.679054,2167227,826,1651,871,-2168,55,-591,-25,161,-197
0,2023-03-01T18:59:37.684073,2167232,826,1651,871,-2168,55,-591,-25,161,-197
0,2023-03-01T18:59:37.689159,2167237,831,1647,883,-2183,67,-607,-25,161,-197
0,2023-03-01T18:59:37.695625,2167244,831,1647,883,-2183,67,-607,-25,161,-197
0,2023-03-01T18:59:37.702207,2167250,831,1647,883,-2183,67,-607,-25,161,-197
0,2023-03-01T18:59:37.708331,2167257,828,1642,889,-2182,79,-599,-25,161,-197
0,2023-03-01T18:59:37.715800,2167263,828,1642,889,-2182,79,-599,-25,161,-197
0,2023-03-01T18:59:37.720561,2167269,828,1642,889,-2182,79,-599,-25,161,-197
0,2023-03-01T18:59:37.725570,2167274,828,1642,889,-2182,79,-599,-25,161,-197
0,2023-03-01T18:59:37.730362,2167279,819,1640,893,-2176,62,-598,-28,160,-204
0,2023-03-01T18:59:37.735859,2167284,819,1640,893,-2176,62,-598,-28,160,-204
0,2023-03-01T18:59:37.740685,2167288,819,1640,893,-2176,62,-598,-28,160,-204
0,2023-03-01T18:59:37.746584,2167294,819,1640,893,-2176,62,-598,-28,160,-204
0,2023-03-01T18:59:37.752158,2167301,808,1643,902,-2123,38,-579,-28,160,-204
0,2023-03-01T18:59:37.757268,2167306,808,1643,902,-2123,38,-579,-28,160,-204
0,2023-03-01T18:59:37.761873,2167310,808,1643,902,-2123,38,-579,-28,160,-204
0,2023-03-01T18:59:37.766759,2167315,808,1643,902,-2123,38,-579,-28,160,-204
0,2023-03-01T18:59:37.772745,2167321,808,1651,900,-2129,54,-579,-28,160,-204
0,2023-03-01T18:59:37.778555,2167327,808,1651,900,-2129,54,-579,-28,160,-204
0,2023-03-01T18:59:37.783584,2167332,808,1651,900,-2129,54,-579,-28,160,-204
0,2023-03-01T18:59:37.789037,2167337,791,1643,917,-2128,43,-568,-28,160,-204
0,2023-03-01T18:59:37.796129,2167344,791,1643,917,-2128,43,-568,-28,160,-204
0,2023-03-01T18:59:37.801179,2167350,791,1643,917,-2128,43,-568,-28,160,-204
0,2023-03-01T18:59:37.806654,2167355,791,1643,917,-2128,43,-568,-28,160,-204
0,2023-03-01T18:59:37.812124,2167360,790,1645,921,-2163,60,-589,-28,160,-204
0,2023-03-01T18:59:37.817864,2167366,790,1645,921,-2163,60,-589,-28,160,-204
0,2023-03-01T18:59:37.824123,2167372,790,1645,921,-2163,60,-589,-28,160,-204
0,2023-03-01T18:59:37.829113,2167377,792,1638,923,-2137,45,-582,-28,160,-204
0,2023-03-01T18:59:37.835067,2167384,792,1638,923,-2137,45,-582,-28,160,-204
0,2023-03-01T18:59:37.839833,2167388,792,1638,923,-2137,45,-582,-28,160,-204
0,2023-03-01T18:59:37.844353,2167393,792,1638,923,-2137,45,-582,-28,160,-204
0,2023-03-01T18:59:37.849278,2167398,790,1635,928,-2155,59,-590,-30,158,-194
0,2023-03-01T18:59:37.855204,2167404,790,1635,928,-2155,59,-590,-30,158,-194
0,2023-03-01T18:59:37.859930,2167408,790,1635,928,-2155,59,-590,-30,158,-194
0,2023-03-01T18:59:37.864934,2167413,790,1635,928,-2155,59,-590,-30,158,-194
0,2023-03-01T18:59:37.869695,2167417,797,1622,929,-2115,35,-573,-30,158,-194
0,2023-03-01T18:59:37.875870,2167425,797,1622,929,-2115,35,-573,-30,158,-194
0,2023-03-01T18:59:37.880683,2167429,797,1622,929,-2115,35,-573,-30,158,-194
0,2023-03-01T18:59:37.885678,2167434,797,1622,929,-2115,35,-573,-30,158,-194
0,2023-03-01T18:59:37.891447,2167439,798,1623,939,-2116,55,-579,-30,158,-194
0,2023-03-01T18:59:37.896626,2167445,798,1623,939,-2116,55,-579,-30,158,-194
0,2023-03-01T18:59:37.901311,2167450,798,1623,939,-2116,55,-579,-30,158,-194
0,2023-03-01T18:59:37.906203,2167454,798,1623,939,-2116,55,-579,-30,158,-194
0,2023-03-01T18:59:37.911476,2167459,787,1595,935,-2104,37,-572,-30,158,-194
0,2023-03-01T18:59:37.917743,2167465,787,1595,935,-2104,37,-572,-30,158,-194
0,2023-03-01T18:59:37.923606,2167472,787,1595,935,-2104,37,-572,-30,158,-194
0,2023-03-01T18:59:37.929064,2167477,790,1608,944,-2107,30,-582,-30,158,-194
0,2023-03-01T18:59:37.937361,2167485,790,1608,944,-2107,30,-582,-30,158,-194
0,2023-03-01T18:59:37.942071,2167490,790,1608,944,-2107,30,-582,-30,158,-194
0,2023-03-01T18:59:37.947027,2167495,790,1608,944,-2107,30,-582,-30,158,-194
0,2023-03-01T18:59:37.952599,2167501,785,1597,944,-2095,20,-566,-30,158,-194
0,2023-03-01T18:59:37.958286,2167506,785,1597,944,-2095,20,-566,-30,158,-194
0,2023-03-01T18:59:37.964067,2167512,785,1597,944,-2095,20,-566,-30,158,-194
0,2023-03-01T18:59:37.969313,2167518,774,1604,950,-2118,35,-573,-30,158,-194
0,2023-03-01T18:59:37.975320,2167524,774,1604,950,-2118,35,-573,-30,158,-194
0,2023-03-01T18:59:37.980286,2167529,774,1604,950,-2118,35,-573,-30,158,-194
0,2023-03-01T18:59:37.985858,2167534,774,1604,950,-2118,35,-573,-30,158,-194
0,2023-03-01T18:59:37.991260,2167539,765,1601,964,-2101,25,-577,-26,154,-188
0,2023-03-01T18:59:37.997066,2167545,765,1601,964,-2101,25,-577,-26,154,-188
0,2023-03-01T18:59:38.001773,2167550,765,1601,964,-2101,25,-577,-26,154,-188
0,2023-03-01T18:59:38.006285,2167555,765,1601,964,-2101,25,-577,-26,154,-188
0,2023-03-01T18:59:38.011145,2167560,757,1611,977,-2114,42,-575,-26,154,-188
0,2023-03-01T18:59:38.017153,2167565,757,1611,977,-2114,42,-575,-26,154,-188
0,2023-03-01T18:59:38.022413,2167571,757,1611,977,-2114,42,-575,-26,154,-188
0,2023-03-01T18:59:38.028527,2167577,756,1607,974,-2086,22,-571,-26,154,-188
0,2023-03-01T18:59:38.034437,2167582,756,1607,974,-2086,22,-571,-26,154,-188
0,2023-03-01T18:59:38.039456,2167587,756,1607,974,-2086,22,-571,-26,154,-188
0,2023-03-01T18:59:38.046434,2167595,756,1607,974,-2086,22,-571,-26,154,-188
0,2023-03-01T18:59:38.051436,2167600,757,1607,984,-2086,28,-566,-26,154,-188
0,2023-03-01T18:59:38.056199,2167605,757,1607,984,-2086,28,-566,-26,154,-188
0,2023-03-01T18:59:38.061186,2167610,757,1607,984,-2086,28,-566,-26,154,-188
0,2023-03-01T18:59:38.066271,2167614,757,1607,984,-2086,28,-566,-26,154,-188
0,2023-03-01T18:59:38.071299,2167619,761,1588,974,-2065,6,-558,-26,154,-188
0,2023-03-01T18:59:38.077147,2167625,761,1588,974,-2065,6,-558,-26,154,-188
0,2023-03-01T18:59:38.082172,2167630,761,1588,974,-2065,6,-558,-26,154,-188
0,2023-03-01T18:59:38.086982,2167635,761,1588,974,-2065,6,-558,-26,154,-188
0,2023-03-01T18:59:38.092348,2167641,765,1583,996,-2055,22,-565,-26,154,-188
0,2023-03-01T18:59:38.098305,2167647,765,1583,996,-2055,22,-565,-26,154,-188
0,2023-03-01T18:59:38.104167,2167652,765,1583,996,-2055,22,-565,-26,154,-188
0,2023-03-01T18:59:38.109181,2167657,760,1572,987,-2091,17,-576,-26,160,-194
0,2023-03-01T18:59:38.114361,2167662,760,1572,987,-2091,17,-576,-26,160,-194
0,2023-03-01T18:59:38.119567,2167667,760,1572,987,-2091,17,-576,-26,160,-194
0,2023-03-01T18:59:38.125924,2167674,760,1572,987,-2091,17,-576,-26,160,-194
0,2023-03-01T18:59:38.131207,2167680,759,1572,1000,-2073,11,-578,-26,160,-194
0,2023-03-01T18:59:38.137845,2167686,759,1572,1000,-2073,11,-578,-26,160,-194
0,2023-03-01T18:59:38.142962,2167691,759,1572,1000,-2073,11,-578,-26,160,-194
0,2023-03-01T18:59:38.148292,2167696,759,1572,1000,-2073,11,-578,-26,160,-194
0,2023-03-01T18:59:38.154477,2167702,752,1565,1001,-2082,12,-578,-26,160,-194
0,2023-03-01T18:59:38.160469,2167709,752,1565,1001,-2082,12,-578,-26,160,-194
0,2023-03-01T18:59:38.166074,2167714,752,1565,1001,-2082,12,-578,-26,160,-194
0,2023-03-01T18:59:38.171185,2167719,745,1560,1005,-2093,32,-585,-26,160,-194
0,2023-03-01T18:59:38.177358,2167726,745,1560,1005,-2093,32,-585,-26,160,-194
0,2023-03-01T18:59:38.183016,2167731,745,1560,1005,-2093,32,-585,-26,160,-194
0,2023-03-01T18:59:38.188172,2167736,745,1560,1005,-2093,32,-585,-26,160,-194
0,2023-03-01T18:59:38.194249,2167742,741,1573,1011,-2123,67,-583,-26,160,-194
0,2023-03-01T18:59:38.199491,2167748,741,1573,1011,-2123,67,-583,-26,160,-194
0,2023-03-01T18:59:38.204545,2167753,741,1573,1011,-2123,67,-583,-26,160,-194
0,2023-03-01T18:59:38.209263,2167757,731,1566,1022,-2104,89,-544,-26,160,-194
0,2023-03-01T18:59:38.215543,2167763,731,1566,1022,-2104,89,-544,-26,160,-194
0,2023-03-01T18:59:38.220389,2167769,731,1566,1022,-2104,89,-544,-26,160,-194
0,2023-03-01T18:59:38.225337,2167774,731,1566,1022,-2104,89,-544,-26,160,-194
0,2023-03-01T18:59:38.230177,2167779,723,1571,1030,-2098,104,-525,-26,160,-194
0,2023-03-01T18:59:38.235820,2167784,723,1571,1030,-2098,104,-525,-26,160,-194
0,2023-03-01T18:59:38.240544,2167789,723,1571,1030,-2098,104,-525,-26,160,-194
0,2023-03-01T18:59:38.245844,2167794,723,1571,1030,-2098,104,-525,-26,160,-194
0,2023-03-01T18:59:38.250339,2167799,718,1560,1035,-2101,111,-514,-20,158,-184
0,2023-03-01T18:59:38.256010,2167804,718,1560,1035,-2101,111,-514,-20,158,-184
0,2023-03-01T18:59:38.261922,2167810,718,1560,1035,-2101,111,-514,-20,158,-184
0,2023-03-01T18:59:38.267757,2167816,718,1560,1035,-2101,111,-514,-20,158,-184
0,2023-03-01T18:59:38.273423,2167821,726,1565,1036,-2119,139,-520,-20,158,-184
0,2023-03-01T18:59:38.279332,2167828,726,1565,1036,-2119,139,-520,-20,158,-184
0,2023-03-01T18:59:38.284436,2167832,726,1565,1036,-2119,139,-520,-20,158,-184
0,2023-03-01T18:59:38.288932,2167837,723,1553,1033,-2077,110,-514,-20,158,-184
0,2023-03-01T18:59:38.293969,2167842,723,1553,1033,-2077,110,-514,-20,158,-184
0,2023-03-01T18:59:38.298725,2167847,723,1553,1033,-2077,110,-514,-20,158,-184
0,2023-03-01T18:59:38.304252,2167853,723,1553,1033,-2077,110,-514,-20,158,-184
0,2023-03-01T18:59:38.308985,2167858,724,1543,1037,-1984,53,-492,-20,158,-184
0,2023-03-01T18:59:38.314777,2167863,724,1543,1037,-1984,53,-492,-20,158,-184
0,2023-03-01T18:59:38.319921,2167868,724,1543,1037,-1984,53,-492,-20,158,-184
0,2023-03-01T18:59:38.325187,2167873,724,1543,1037,-1984,53,-492,-20,158,-184
0,2023-03-01T18:59:38.330037,2167878,718,1550,1043,-1921,10,-483,-20,158,-184
0,2023-03-01T18:59:38.335284,2167883,718,1550,1043,-1921,10,-483,-20,158,-184
0,2023-03-01T18:59:38.340812,2167889,718,1550,1043,-1921,10,-483,-20,158,-184
0,2023-03-01T18:59:38.345840,2167894,718,1550,1043,-1921,10,-483,-20,158,-184
0,2023-03-01T18:59:38.350414,2167899,722,1545,1047,-1835,-50,-464,-20,158,-184
0,2023-03-01T18:59:38.357013,2167905,722,1545,1047,-1835,-50,-464,-20,158,-184
0,2023-03-01T18:59:38.361917,2167910,722,1545,1047,-1835,-50,-464,-20,158,-184
0,2023-03-01T18:59:38.366423,2167915,722,1545,1047,-1835,-50,-464,-20,158,-184
0,2023-03-01T18:59:38.372300,2167920,712,1541,1060,-1725,-123,-440,-19,161,-185
0,2023-03-01T18:59:38.378665,2167926,712,1541,1060,-1725,-123,-440,-19,161,-185
0,2023-03-01T18:59:38.384229,2167932,712,1541,1060,-1725,-123,-440,-19,161,-185
0,2023-03-01T18:59:38.389088,2167938,713,1539,1054,-1626,-181,-427,-19,161,-185
0,2023-03-01T18:59:38.394579,2167943,713,1539,1054,-1626,-181,-427,-19,161,-185
0,2023-03-01T18:59:38.399706,2167948,713,1539,1054,-1626,-181,-427,-19,161,-185
0,2023-03-01T18:59:38.405395,2167953,713,1539,1054,-1626,-181,-427,-19,161,-185
0,2023-03-01T18:59:38.410456,2167959,711,1534,1059,-1530,-248,-409,-19,161,-185
0,2023-03-01T18:59:38.416847,2167965,711,1534,1059,-1530,-248,-409,-19,161,-185
0,2023-03-01T18:59:38.421523,2167970,711,1534,1059,-1530,-248,-409,-19,161,-185
0,2023-03-01T18:59:38.426853,2167974,711,1534,1059,-1530,-248,-409,-19,161,-185
0,2023-03-01T18:59:38.431747,2167980,714,1532,1055,-1443,-306,-385,-19,161,-185
0,2023-03-01T18:59:38.438172,2167987,714,1532,1055,-1443,-306,-385,-19,161,-185
0,2023-03-01T18:59:38.442702,2167991,714,1532,1055,-1443,-306,-385,-19,161,-185
0,2023-03-01T18:59:38.447658,2167996,714,1532,1055,-1443,-306,-385,-19,161,-185
0,2023-03-01T18:59:38.453056,2168001,715,1534,1058,-1363,-355,-376,-19,161,-185
0,2023-03-01T18:59:38.459027,2168007,715,1534,1058,-1363,-355,-376,-19,161,-185
0,2023-03-01T18:59:38.464301,2168012,715,1534,1058,-1363,-355,-376,-19,161,-185
0,2023-03-01T18:59:38.469058,2168017,712,1532,1061,-1289,-402,-364,-19,161,-185
0,2023-03-01T18:59:38.474780,2168024,712,1532,1061,-1289,-402,-364,-19,161,-185
0,2023-03-01T18:59:38.479359,2168028,712,1532,1061,-1289,-402,-364,-19,161,-185
0,2023-03-01T18:59:38.486158,2168034,712,1532,1061,-1289,-402,-364,-19,161,-185
0,2023-03-01T18:59:38.491063,2168039,711,1530,1063,-1203,-463,-348,-26,174,-184
0,2023-03-01T18:59:38.497053,2168045,711,1530,1063,-1203,-463,-348,-26,174,-184
0,2023-03-01T18:59:38.501496,2168050,711,1530,1063,-1203,-463,-348,-26,174,-184
0,2023-03-01T18:59:38.506808,2168055,711,1530,1063,-1203,-463,-348,-26,174,-184
0,2023-03-01T18:59:38.511853,2168060,707,1529,1067,-1125,-520,-334,-26,174,-184
0,2023-03-01T18:59:38.518070,2168067,707,1529,1067,-1125,-520,-334,-26,174,-184
0,2023-03-01T18:59:38.524437,2168072,707,1529,1067,-1125,-520,-334,-26,174,-184
0,2023-03-01T18:59:38.529319,2168078,706,1526,1066,-1070,-553,-321,-26,174,-184
0,2023-03-01T18:59:38.535620,2168084,706,1526,1066,-1070,-553,-321,-26,174,-184
0,2023-03-01T18:59:38.540409,2168089,706,1526,1066,-1070,-553,-321,-26,174,-184
0,2023-03-01T18:59:38.545670,2168093,706,1526,1066,-1070,-553,-321,-26,174,-184
0,2023-03-01T18:59:38.550862,2168099,709,1529,1065,-1045,-566,-317,-26,174,-184
0,2023-03-01T18:59:38.557099,2168105,709,1529,1065,-1045,-566,-317,-26,174,-184
0,2023-03-01T18:59:38.562636,2168111,709,1529,1065,-1045,-566,-317,-26,174,-184
0,2023-03-01T18:59:38.567381,2168116,709,1529,1065,-1045,-566,-317,-26,174,-184
0,2023-03-01T18:59:38.573140,2168122,708,1525,1061,-1046,-575,-326,-26,174,-184
0,2023-03-01T18:59:38.579383,2168127,708,1525,1061,-1046,-575,-326,-26,174,-184
0,2023-03-01T18:59:38.585321,2168133,708,1525,1061,-1046,-575,-326,-26,174,-184
0,2023-03-01T18:59:38.590693,2168138,707,1528,1062,-1036,-570,-322,-26,174,-184
0,2023-03-01T18:59:38.597895,2168145,707,1528,1062,-1036,-570,-322,-26,174,-184
0,2023-03-01T18:59:38.603250,2168152,707,1528,1062,-1036,-570,-322,-26,174,-184
0,2023-03-01T18:59:38.608228,2168157,707,1528,1062,-1036,-570,-322,-26,174,-184
0,2023-03-01T18:59:38.613428,2168162,708,1532,1063,-1032,-568,-326,-26,174,-184
0,2023-03-01T18:59:38.619261,2168167,708,1532,1063,-1032,-568,-326,-26,174,-184
0,2023-03-01T18:59:38.624982,2168172,708,1532,1063,-1032,-568,-326,-26,174,-184
0,2023-03-01T18:59:38.630611,2168179,708,1529,1061,-1029,-563,-323,-15,173,-187
0,2023-03-01T18:59:38.636578,2168185,708,1529,1061,-1029,-563,-323,-15,173,-187
0,2023-03-01T18:59:38.641625,2168189,708,1529,1061,-1029,-563,-323,-15,173,-187
0,2023-03-01T18:59:38.647694,2168196,708,1529,1061,-1029,-563,-323,-15,173,-187
0,2023-03-01T18:59:38.653297,2168202,711,1525,1057,-1030,-575,-318,-15,173,-187
0,2023-03-01T18:59:38.659943,2168208,711,1525,1057,-1030,-575,-318,-15,173,-187
0,2023-03-01T18:59:38.666320,2168214,711,1525,1057,-1030,-575,-318,-15,173,-187
0,2023-03-01T18:59:38.671319,2168219,708,1527,1058,-1028,-571,-323,-15,173,-187
0,2023-03-01T18:59:38.677515,2168225,708,1527,1058,-1028,-571,-323,-15,173,-187
0,2023-03-01T18:59:38.682411,2168230,708,1527,1058,-1028,-571,-323,-15,173,-187
0,2023-03-01T18:59:38.687698,2168236,708,1527,1058,-1028,-571,-323,-15,173,-187
0,2023-03-01T18:59:38.693826,2168242,706,1530,1065,-1029,-570,-324,-15,173,-187
0,2023-03-01T18:59:38.699967,2168248,706,1530,1065,-1029,-570,-324,-15,173,-187
0,2023-03-01T18:59:38.706005,2168254,706,1530,1065,-1029,-570,-324,-15,173,-187
0,2023-03-01T18:59:38.710974,2168259,708,1526,1057,-1030,-570,-318,-15,173,-187
0,2023-03-01T18:59:38.717016,2168265,708,1526,1057,-1030,-570,-318,-15,173,-187
0,2023-03-01T18:59:38.722164,2168270,708,1526,1057,-1030,-570,-318,-15,173,-187
0,2023-03-01T18:59:38.727827,2168275,708,1526,1057,-1030,-570,-318,-15,173,-187
0,2023-03-01T18:59:38.734032,2168282,707,1528,1063,-1041,-573,-323,-15,173,-187
0,2023-03-01T18:59:38.739917,2168288,707,1528,1063,-1041,-573,-323,-15,173,-187
0,2023-03-01T18:59:38.744839,2168293,707,1528,1063,-1041,-573,-323,-15,173,-187
0,2023-03-01T18:59:38.749688,2168298,709,1527,1068,-1032,-574,-327,-27,173,-191
0,2023-03-01T18:59:38.755588,2168304,709,1527,1068,-1032,-574,-327,-27,173,-191
0,2023-03-01T18:59:38.760459,2168308,709,1527,1068,-1032,-574,-327,-27,173,-191
0,2023-03-01T18:59:38.765085,2168313,709,1527,1068,-1032,-574,-327,-27,173,-191
0,2023-03-01T18:59:38.770063,2168318,708,1530,1064,-1035,-569,-319,-27,173,-191
0,2023-03-01T18:59:38.775962,2168325,708,1530,1064,-1035,-569,-319,-27,173,-191
0,2023-03-01T18:59:38.781150,2168329,708,1530,1064,-1035,-569,-319,-27,173,-191
0,2023-03-01T18:59:38.786278,2168335,708,1530,1064,-1035,-569,-319,-27,173,-191
0,2023-03-01T18:59:38.791379,2168340,703,1530,1064,-1032,-563,-319,-27,173,-191
0,2023-03-01T18:59:38.797686,2168346,703,1530,1064,-1032,-563,-319,-27,173,-191
0,2023-03-01T18:59:38.802554,2168351,703,1530,1064,-1032,-563,-319,-27,173,-191
0,2023-03-01T18:59:38.807435,2168355,703,1530,1064,-1032,-563,-319,-27,173,-191
0,2023-03-01T18:59:38.813426,2168361,707,1529,1061,-1031,-565,-320,-27,173,-191
0,2023-03-01T18:59:38.820182,2168369,707,1529,1061,-1031,-565,-320,-27,173,-191
0,2023-03-01T18:59:38.825872,2168374,707,1529,1061,-1031,-565,-320,-27,173,-191
0,2023-03-01T18:59:38.830918,2168379,705,1528,1060,-1032,-574,-319,-27,173,-191
0,2023-03-01T18:59:38.837696,2168386,705,1528,1060,-1032,-574,-319,-27,173,-191
0,2023-03-01T18:59:38.842638,2168391,705,1528,1060,-1032,-574,-319,-27,173,-191
0,2023-03-01T18:59:38.848473,2168396,705,1528,1060,-1032,-574,-319,-27,173,-191
0,2023-03-01T18:59:38.853785,2168402,707,1528,1061,-1038,-581,-313,-27,173,-191
0,2023-03-01T18:59:38.859487,2168408,707,1528,1061,-1038,-581,-313,-27,173,-191
0,2023-03-01T18:59:38.864860,2168413,707,1528,1061,-1038,-581,-313,-27,173,-191
0,2023-03-01T18:59:38.869882,2168418,709,1527,1064,-1029,-571,-316,-27,173,-191
0,2023-03-01T18:59:38.875874,2168424,709,1527,1064,-1029,-571,-316,-27,173,-191
0,2023-03-01T18:59:38.880836,2168429,709,1527,1064,-1029,-571,-316,-27,173,-191
0,2023-03-01T18:59:38.886493,2168435,709,1527,1064,-1029,-571,-316,-27,173,-191
0,2023-03-01T18:59:38.891631,2168439,706,1527,1064,-1025,-567,-321,-20,164,-188
0,2023-03-01T18:59:38.897328,2168445,706,1527,1064,-1025,-567,-321,-20,164,-188
0,2023-03-01T18:59:38.902296,2168451,706,1527,1064,-1025,-567,-321,-20,164,-188
0,2023-03-01T18:59:38.907813,2168456,706,1527,1064,-1025,-567,-321,-20,164,-188
0,2023-03-01T18:59:38.913418,2168462,705,1528,1061,-1033,-579,-319,-20,164,-188
0,2023-03-01T18:59:38.918944,2168467,705,1528,1061,-1033,-579,-319,-20,164,-188
0,2023-03-01T18:59:38.925503,2168473,705,1528,1061,-1033,-579,-319,-20,164,-188
0,2023-03-01T18:59:38.930578,2168479,707,1527,1068,-1042,-570,-320,-20,164,-188
0,2023-03-01T18:59:38.936637,2168485,707,1527,1068,-1042,-570,-320,-20,164,-188
0,2023-03-01T18:59:38.941195,2168489,707,1527,1068,-1042,-570,-320,-20,164,-188
0,2023-03-01T18:59:38.946132,2168495,707,1527,1068,-1042,-570,-320,-20,164,-188
0,2023-03-01T18:59:38.950869,2168500,708,1530,1062,-1035,-567,-320,-20,164,-188
0,2023-03-01T18:59:38.957034,2168505,708,1530,1062,-1035,-567,-320,-20,164,-188
0,2023-03-01T18:59:38.962439,2168510,708,1530,1062,-1035,-567,-320,-20,164,-188
0,2023-03-01T18:59:38.968102,2168516,708,1530,1062,-1035,-567,-320,-20,164,-188
0,2023-03-01T18:59:38.973572,2168522,706,1529,1060,-1028,-574,-313,-20,164,-188
0,2023-03-01T18:59:38.979114,2168527,706,1529,1060,-1028,-574,-313,-20,164,-188
0,2023-03-01T18:59:38.984516,2168532,706,1529,1060,-1028,-574,-313,-20,164,-188
0,2023-03-01T18:59:38.989287,2168538,706,1527,1054,-1020,-572,-325,-20,164,-188
0,2023-03-01T18:59:38.995404,2168544,706,1527,1054,-1020,-572,-325,-20,164,-188
0,2023-03-01T18:59:39.000694,2168549,706,1527,1054,-1020,-572,-325,-20,164,-188
0,2023-03-01T18:59:39.006160,2168554,706,1527,1054,-1020,-572,-325,-20,164,-188
0,2023-03-01T18:59:39.010932,2168559,706,1527,1060,-1032,-570,-323,-23,171,-185
0,2023-03-01T18:59:39.017184,2168565,706,1527,1060,-1032,-570,-323,-23,171,-185
0,2023-03-01T18:59:39.022368,2168570,706,1527,1060,-1032,-570,-323,-23,171,-185
0,2023-03-01T18:59:39.027392,2168576,706,1527,1060,-1032,-570,-323,-23,171,-185
0,2023-03-01T18:59:39.035522,2168584,706,1528,1058,-1038,-569,-325,-23,171,-185
0,2023-03-01T18:59:39.041449,2168590,706,1528,1058,-1038,-569,-325,-23,171,-185
0,2023-03-01T18:59:39.046308,2168595,706,1528,1058,-1038,-569,-325,-23,171,-185
0,2023-03-01T18:59:39.051423,2168600,707,1529,1064,-1030,-561,-316,-23,171,-185
0,2023-03-01T18:59:39.057297,2168605,707,1529,1064,-1030,-561,-316,-23,171,-185
0,2023-03-01T18:59:39.062193,2168610,707,1529,1064,-1030,-561,-316,-23,171,-185
0,2023-03-01T18:59:39.067279,2168615,707,1529,1064,-1030,-561,-316,-23,171,-185
0,2023-03-01T18:59:39.073214,2168622,708,1524,1065,-1026,-571,-321,-23,171,-185
0,2023-03-01T18:59:39.079101,2168627,708,1524,1065,-1026,-571,-321,-23,171,-185
0,2023-03-01T18:59:39.083990,2168632,708,1524,1065,-1026,-571,-321,-23,171,-185
0,2023-03-01T18:59:39.089289,2168638,708,1524,1065,-1026,-571,-321,-23,171,-185
0,2023-03-01T18:59:39.095207,2168643,707,1526,1063,-1032,-579,-326,-23,171,-185
0,2023-03-01T18:59:39.100931,2168649,707,1526,1063,-1032,-579,-326,-23,171,-185
0,2023-03-01T18:59:39.106646,2168655,707,1526,1063,-1032,-579,-326,-23,171,-185
0,2023-03-01T18:59:39.111486,2168659,705,1528,1063,-1030,-578,-323,-23,171,-185
0,2023-03-01T18:59:39.117658,2168666,705,1528,1063,-1030,-578,-323,-23,171,-185
0,2023-03-01T18:59:39.122899,2168671,705,1528,1063,-1030,-578,-323,-23,171,-185
0,2023-03-01T18:59:39.128284,2168676,705,1528,1063,-1030,-578,-323,-23,171,-185
0,2023-03-01T18:59:39.134054,2168682,705,1531,1058,-1030,-575,-322,-23,171,-185
0,2023-03-01T18:59:39.139701,2168688,705,1531,1058,-1030,-575,-322,-23,171,-185
0,2023-03-01T18:59:39.145785,2168694,705,1531,1058,-1030,-575,-322,-23,171,-185
0,2023-03-01T18:59:39.150985,2168699,702,1528,1064,-1040,-573,-324,-28,164,-190
0,2023-03-01T18:59:39.157356,2168706,702,1528,1064,-1040,-573,-324,-28,164,-190
0,2023-03-01T18:59:39.162376,2168711,702,1528,1064,-1040,-573,-324,-28,164,-190
0,2023-03-01T18:59:39.167655,2168716,702,1528,1064,-1040,-573,-324,-28,164,-190
0,2023-03-01T18:59:39.173096,2168721,708,1528,1068,-1031,-570,-323,-28,164,-190
0,2023-03-01T18:59:39.178537,2168727,708,1528,1068,-1031,-570,-323,-28,164,-190
0,2023-03-01T18:59:39.184118,2168732,708,1528,1068,-1031,-570,-323,-28,164,-190
0,2023-03-01T18:59:39.189171,2168737,708,1528,1068,-1031,-570,-323,-28,164,-190
0,2023-03-01T18:59:39.194573,2168743,706,1527,1059,-1031,-571,-317,-28,164,-190
0,2023-03-01T18:59:39.200431,2168749,706,1527,1059,-1031,-571,-317,-28,164,-190
0,2023-03-01T18:59:39.206423,2168755,706,1527,1059,-1031,-571,-317,-28,164,-190
0,2023-03-01T18:59:39.211714,2168760,707,1526,1061,-1030,-568,-324,-28,164,-190
0,2023-03-01T18:59:39.217573,2168766,707,1526,1061,-1030,-568,-324,-28,164,-190
0,2023-03-01T18:59:39.222557,2168771,707,1526,1061,-1030,-568,-324,-28,164,-190
0,2023-03-01T18:59:39.227477,2168776,707,1526,1061,-1030,-568,-324,-28,164,-190
0,2023-03-01T18:59:39.233568,2168781,708,1528,1061,-1030,-571,-331,-28,164,-190
0,2023-03-01T18:59:39.239449,2168787,708,1528,1061,-1030,-571,-331,-28,164,-190
0,2023-03-01T18:59:39.244771,2168793,708,1528,1061,-1030,-571,-331,-28,164,-190
0,2023-03-01T18:59:39.250536,2168799,707,1526,1063,-1030,-569,-316,-28,164,-190
0,2023-03-01T18:59:39.256775,2168805,707,1526,1063,-1030,-569,-316,-28,164,-190
0,2023-03-01T18:59:39.261474,2168810,707,1526,1063,-1030,-569,-316,-28,164,-190
0,2023-03-01T18:59:39.266348,2168815,707,1526,1063,-1030,-569,-316,-28,164,-190
0,2023-03-01T18:59:39.271347,2168820,707,1527,1066,-1032,-568,-326,-26,168,-190
0,2023-03-01T18:59:39.277168,2168825,707,1527,1066,-1032,-568,-326,-26,168,-190
0,2023-03-01T18:59:39.282027,2168830,707,1527,1066,-1032,-568,-326,-26,168,-190
0,2023-03-01T18:59:39.287859,2168836,707,1527,1066,-1032,-568,-326,-26,168,-190
0,2023-03-01T18:59:39.293233,2168842,706,1526,1064,-1029,-565,-323,-26,168,-190
0,2023-03-01T18:59:39.298924,2168847,706,1526,1064,-1029,-565,-323,-26,168,-190
0,2023-03-01T18:59:39.303637,2168852,706,1526,1064,-1029,-565,-323,-26,168,-190
0,2023-03-01T18:59:39.308942,2168857,706,1526,1064,-1029,-565,-323,-26,168,-190
0,2023-03-01T18:59:39.314971,2168863,706,1526,1063,-1029,-577,-320,-26,168,-190
0,2023-03-01T18:59:39.320239,2168868,706,1526,1063,-1029,-577,-320,-26,168,-190
0,2023-03-01T18:59:39.325451,2168873,706,1526,1063,-1029,-577,-320,-26,168,-190
0,2023-03-01T18:59:39.330418,2168879,706,1527,1063,-1033,-578,-325,-26,168,-190
0,2023-03-01T18:59:39.336645,2168885,706,1527,1063,-1033,-578,-325,-26,168,-190
0,2023-03-01T18:59:39.341544,2168890,706,1527,1063,-1033,-578,-325,-26,168,-190
0,2023-03-01T18:59:39.346904,2168895,706,1527,1063,-1033,-578,-325,-26,168,-190
0,2023-03-01T18:59:39.352162,2168900,706,1529,1061,-1024,-570,-326,-26,168,-190
0,2023-03-01T18:59:39.359329,2168907,706,1529,1061,-1024,-570,-326,-26,168,-190
0,2023-03-01T18:59:39.364028,2168912,706,1529,1061,-1024,-570,-326,-26,168,-190
0,2023-03-01T18:59:39.368694,2168918,706,1529,1061,-1024,-570,-326,-26,168,-190
0,2023-03-01T18:59:39.374065,2168923,704,1526,1060,-1035,-577,-320,-26,168,-190
0,2023-03-01T18:59:39.379481,2168928,704,1526,1060,-1035,-577,-320,-26,168,-190
0,2023-03-01T18:59:39.384587,2168933,704,1526,1060,-1035,-577,-320,-26,168,-190
0,2023-03-01T18:59:39.390298,2168939,707,1531,1061,-1032,-579,-317,-22,162,-186
0,2023-03-01T18:59:39.396239,2168945,707,1531,1061,-1032,-579,-317,-22,162,-186
0,2023-03-01T18:59:39.400974,2168949,707,1531,1061,-1032,-579,-317,-22,162,-186
0,2023-03-01T18:59:39.405638,2168954,707,1531,1061,-1032,-579,-317,-22,162,-186
0,2023-03-01T18:59:39.410362,2168958,705,1525,1059,-1031,-573,-326,-22,162,-186
0,2023-03-01T18:59:39.416704,2168965,705,1525,1059,-1031,-573,-326,-22,162,-186
0,2023-03-01T18:59:39.421743,2168970,705,1525,1059,-1031,-573,-326,-22,162,-186
0,2023-03-01T18:59:39.427604,2168976,705,1525,1059,-1031,-573,-326,-22,162,-186
0,2023-03-01T18:59:39.433312,2168981,706,1525,1061,-1028,-566,-318,-22,162,-186
0,2023-03-01T18:59:39.438925,2168987,706,1525,1061,-1028,-566,-318,-22,162,-186
0,2023-03-01T18:59:39.444495,2168993,706,1525,1061,-1028,-566,-318,-22,162,-186
0,2023-03-01T18:59:39.449812,2168997,706,1525,1061,-1028,-566,-318,-22,162,-186
0,2023-03-01T18:59:39.455608,2169004,703,1529,1060,-1033,-569,-318,-22,162,-186
0,2023-03-01T18:59:39.461080,2169010,703,1529,1060,-1033,-569,-318,-22,162,-186
0,2023-03-01T18:59:39.466084,2169014,703,1529,1060,-1033,-569,-318,-22,162,-186
0,2023-03-01T18:59:39.471152,2169019,706,1530,1062,-1031,-564,-326,-22,162,-186
0,2023-03-01T18:59:39.477556,2169026,706,1530,1062,-1031,-564,-326,-22,162,-186
0,2023-03-01T18:59:39.482657,2169031,706,1530,1062,-1031,-564,-326,-22,162,-186
0,2023-03-01T18:59:39.487136,2169035,706,1530,1062,-1031,-564,-326,-22,162,-186
0,2023-03-01T18:59:39.491911,2169040,702,1526,1061,-1030,-568,-329,-22,162,-186
0,2023-03-01T18:59:39.497372,2169046,702,1526,1061,-1030,-568,-329,-22,162,-186
0,2023-03-01T18:59:39.502438,2169051,702,1526,1061,-1030,-568,-329,-22,162,-186
0,2023-03-01T18:59:39.507550,2169056,702,1526,1061,-1030,-568,-329,-22,162,-186
0,2023-03-01T18:59:39.512926,2169061,706,1528,1064,-1025,-572,-320,-22,162,-186
0,2023-03-01T18:59:39.518031,2169066,706,1528,1064,-1025,-572,-320,-22,162,-186
0,2023-03-01T18:59:39.522832,2169071,706,1528,1064,-1025,-572,-320,-22,162,-186
0,2023-03-01T18:59:39.528067,2169076,706,1528,1064,-1025,-572,-320,-22,162,-186
0,2023-03-01T18:59:39.533649,2169082,706,1525,1059,-1026,-567,-325,-20,162,-186
0,2023-03-01T18:59:39.539268,2169088,706,1525,1059,-1026,-567,-325,-20,162,-186
0,2023-03-01T18:59:39.544045,2169093,706,1525,1059,-1026,-567,-325,-20,162,-186
0,2023-03-01T18:59:39.549297,2169098,706,1525,1059,-1026,-567,-325,-20,162,-186
0,2023-03-01T18:59:39.555483,2169103,707,1524,1067,-1035,-575,-325,-20,162,-186
0,2023-03-01T18:59:39.560778,2169109,707,1524,1067,-1035,-575,-325,-20,162,-186
0,2023-03-01T18:59:39.565449,2169114,707,1524,1067,-1035,-575,-325,-20,162,-186
0,2023-03-01T18:59:39.570207,2169118,709,1524,1059,-1039,-567,-323,-20,162,-186
0,2023-03-01T18:59:39.576519,2169124,709,1524,1059,-1039,-567,-323,-20,162,-186
0,2023-03-01T18:59:39.581657,2169129,709,1524,1059,-1039,-567,-323,-20,162,-186
0,2023-03-01T18:59:39.588023,2169137,709,1524,1059,-1039,-567,-323,-20,162,-186
0,2023-03-01T18:59:39.593568,2169142,709,1525,1060,-1026,-572,-313,-20,162,-186
0,2023-03-01T18:59:39.599265,2169147,709,1525,1060,-1026,-572,-313,-20,162,-186
0,2023-03-01T18:59:39.604084,2169152,709,1525,1060,-1026,-572,-313,-20,162,-186
0,2023-03-01T18:59:39.609612,2169158,709,1525,1060,-1026,-572,-313,-20,162,-186
0,2023-03-01T18:59:39.615338,2169163,707,1528,1066,-1031,-579,-317,-20,162,-186
0,2023-03-01T18:59:39.620633,2169169,707,1528,1066,-1031,-579,-317,-20,162,-186
0,2023-03-01T18:59:39.626108,2169175,707,1528,1066,-1031,-579,-317,-20,162,-186
0,2023-03-01T18:59:39.631051,2169180,707,1530,1061,-1033,-573,-318,-20,162,-186
0,2023-03-01T18:59:39.637632,2169186,707,1530,1061,-1033,-573,-318,-20,162,-186
0,2023-03-01T18:59:39.642411,2169191,707,1530,1061,-1033,-573,-318,-20,162,-186
0,2023-03-01T18:59:39.647628,2169196,707,1530,1061,-1033,-573,-318,-20,162,-186
0,2023-03-01T18:59:39.653310,2169201,703,1530,1060,-1037,-569,-321,-17,159,-181
0,2023-03-01T18:59:39.658739,2169207,703,1530,1060,-1037,-569,-321,-17,159,-181
0,2023-03-01T18:59:39.663728,2169212,703,1530,1060,-1037,-569,-321,-17,159,-181
0,2023-03-01T18:59:39.669275,2169218,703,1530,1060,-1037,-569,-321,-17,159,-181
0,2023-03-01T18:59:39.674846,2169224,707,1527,1062,-1027,-575,-317,-17,159,-181
0,2023-03-01T18:59:39.680626,2169229,707,1527,1062,-1027,-575,-317,-17,159,-181
0,2023-03-01T18:59:39.688386,2169237,707,1527,1062,-1027,-575,-317,-17,159,-181
0,2023-03-01T18:59:39.694410,2169242,704,1529,1063,-1026,-573,-319,-17,159,-181
0,2023-03-01T18:59:39.699775,2169248,704,1529,1063,-1026,-573,-319,-17,159,-181
0,2023-03-01T18:59:39.705386,2169253,704,1529,1063,-1026,-573,-319,-17,159,-181
0,2023-03-01T18:59:39.710277,2169259,706,1526,1058,-1032,-573,-318,-17,159,-181
0,2023-03-01T18:59:39.716132,2169265,706,1526,1058,-1032,-573,-318,-17,159,-181
0,2023-03-01T18:59:39.720899,2169270,706,1526,1058,-1032,-573,-318,-17,159,-181
0,2023-03-01T18:59:39.726036,2169274,706,1526,1058,-1032,-573,-318,-17,159,-181
0,2023-03-01T18:59:39.730507,2169279,708,1529,1061,-1030,-573,-317,-17,159,-181
0,2023-03-01T18:59:39.736216,2169285,708,1529,1061,-1030,-573,-317,-17,159,-181
0,2023-03-01T18:59:39.741016,2169289,708,1529,1061,-1030,-573,-317,-17,159,-181
0,2023-03-01T18:59:39.746025,2169294,708,1529,1061,-1030,-573,-317,-17,159,-181
0,2023-03-01T18:59:39.751195,2169299,709,1528,1058,-1030,-575,-319,-17,159,-181
0,2023-03-01T18:59:39.757141,2169306,709,1528,1058,-1030,-575,-319,-17,159,-181
0,2023-03-01T18:59:39.762105,2169311,709,1528,1058,-1030,-575,-319,-17,159,-181
0,2023-03-01T18:59:39.767905,2169316,709,1528,1058,-1030,-575,-319,-17,159,-181
0,2023-03-01T18:59:39.774119,2169322,702,1530,1059,-1026,-571,-323,-17,159,-181
0,2023-03-01T18:59:39.779981,2169328,702,1530,1059,-1026,-571,-323,-17,159,-181
0,2023-03-01T18:59:39.785513,2169334,702,1530,1059,-1026,-571,-323,-17,159,-181
0,2023-03-01T18:59:39.791428,2169339,705,1531,1062,-1027,-573,-325,-21,165,-181
0,2023-03-01T18:59:39.798510,2169347,705,1531,1062,-1027,-573,-325,-21,165,-181
0,2023-03-01T18:59:39.803314,2169352,705,1531,1062,-1027,-573,-325,-21,165,-181
0,2023-03-01T18:59:39.808021,2169357,705,1531,1062,-1027,-573,-325,-21,165,-181
0,2023-03-01T18:59:39.813652,2169362,708,1529,1061,-1034,-572,-329,-21,165,-181
0,2023-03-01T18:59:39.818957,2169367,708,1529,1061,-1034,-572,-329,-21,165,-181
0,2023-03-01T18:59:39.824124,2169372,708,1529,1061,-1034,-572,-329,-21,165,-181
0,2023-03-01T18:59:39.830224,2169378,708,1529,1061,-1034,-572,-329,-21,165,-181
0,2023-03-01T18:59:39.835983,2169384,705,1533,1066,-1038,-572,-322,-21,165,-181
0,2023-03-01T18:59:39.841287,2169390,705,1533,1066,-1038,-572,-322,-21,165,-181
0,2023-03-01T18:59:39.846861,2169395,705,1533,1066,-1038,-572,-322,-21,165,-181
0,2023-03-01T18:59:39.852229,2169400,704,1528,1057,-1038,-569,-317,-21,165,-181
0,2023-03-01T18:59:39.858926,2169407,704,1528,1057,-1038,-569,-317,-21,165,-181
0,2023-03-01T18:59:39.863947,2169412,704,1528,1057,-1038,-569,-317,-21,165,-181
0,2023-03-01T18:59:39.869491,2169418,704,1528,1057,-1038,-569,-317,-21,165,-181
0,2023-03-01T18:59:39.874610,2169422,707,1532,1057,-1028,-575,-318,-21,165,-181
0,2023-03-01T18:59:39.880102,2169428,707,1532,1057,-1028,-575,-318,-21,165,-181
0,2023-03-01T18:59:39.886300,2169435,707,1532,1057,-1028,-575,-318,-21,165,-181
0,2023-03-01T18:59:39.891379,2169440,705,1528,1059,-1033,-570,-323,-21,165,-181
0,2023-03-01T18:59:39.897553,2169446,705,1528,1059,-1033,-570,-323,-21,165,-181
0,2023-03-01T18:59:39.902362,2169451,705,1528,1059,-1033,-570,-323,-21,165,-181
0,2023-03-01T18:59:39.908179,2169456,705,1528,1059,-1033,-570,-323,-21,165,-181
0,2023-03-01T18:59:39.913861,2169462,706,1528,1065,-1038,-575,-331,-17,163,-189
0,2023-03-01T18:59:39.919343,2169467,706,1528,1065,-1038,-575,-331,-17,163,-189
0,2023-03-01T18:59:39.924137,2169473,706,1528,1065,-1038,-575,-331,-17,163,-189
0,2023-03-01T18:59:39.928780,2169478,706,1528,1065,-1038,-575,-331,-17,163,-189
0,2023-03-01T18:59:39.934285,2169483,705,1528,1064,-1024,-570,-326,-17,163,-189
0,2023-03-01T18:59:39.940176,2169489,705,1528,1064,-1024,-570,-326,-17,163,-189
0,2023-03-01T18:59:39.946379,2169494,705,1528,1064,-1024,-570,-326,-17,163,-189
0,2023-03-01T18:59:39.951133,2169499,706,1527,1059,-1032,-576,-326,-17,163,-189
0,2023-03-01T18:59:39.957349,2169505,706,1527,1059,-1032,-576,-326,-17,163,-189
0,2023-03-01T18:59:39.962314,2169510,706,1527,1059,-1032,-576,-326,-17,163,-189
0,2023-03-01T18:59:39.967483,2169516,706,1527,1059,-1032,-576,-326,-17,163,-189
0,2023-03-01T18:59:39.972570,2169521,705,1526,1061,-1030,-574,-322,-17,163,-189
0,2023-03-01T18:59:39.978660,2169527,705,1526,1061,-1030,-574,-322,-17,163,-189
0,2023-03-01T18:59:39.983852,2169532,705,1526,1061,-1030,-574,-322,-17,163,-189
0,2023-03-01T18:59:39.988458,2169537,705,1526,1061,-1030,-574,-322,-17,163,-189
0,2023-03-01T18:59:39.993846,2169542,707,1527,1062,-1035,-572,-324,-17,163,-189
0,2023-03-01T18:59:39.999933,2169548,707,1527,1062,-1035,-572,-324,-17,163,-189
0,2023-03-01T18:59:40.006370,2169554,707,1527,1062,-1035,-572,-324,-17,163,-189
0,2023-03-01T18:59:40.011359,2169560,704,1526,1059,-1038,-565,-328,-17,163,-189
0,2023-03-01T18:59:40.017559,2169566,704,1526,1059,-1038,-565,-328,-17,163,-189
0,2023-03-01T18:59:40.022337,2169571,704,1526,1059,-1038,-565,-328,-17,163,-189
0,2023-03-01T18:59:40.027571,2169576,704,1526,1059,-1038,-565,-328,-17,163,-189
0,2023-03-01T18:59:40.032843,2169581,704,1527,1062,-1030,-570,-326,-17,163,-189
0,2023-03-01T18:59:40.038047,2169586,704,1527,1062,-1030,-570,-326,-17,163,-189
0,2023-03-01T18:59:40.042944,2169591,704,1527,1062,-1030,-570,-326,-17,163,-189
0,2023-03-01T18:59:40.047571,2169596,704,1527,1062,-1030,-570,-326,-17,163,-189
0,2023-03-01T18:59:40.053306,2169602,704,1527,1062,-1030,-570,-326,-15,165,-185
0,2023-03-01T18:59:40.058521,2169607,704,1527,1062,-1030,-570,-326,-15,165,-185
0,2023-03-01T18:59:40.063339,2169612,704,1527,1062,-1030,-570,-326,-15,165,-185
0,2023-03-01T18:59:40.068707,2169617,704,1527,1062,-1030,-570,-326,-15,165,-185
0,2023-03-01T18:59:40.074307,2169622,706,1529,1057,-1026,-573,-319,-15,165,-185
0,2023-03-01T18:59:40.080012,2169628,706,1529,1057,-1026,-573,-319,-15,165,-185
0,2023-03-01T18:59:40.085476,2169633,706,1529,1057,-1026,-573,-319,-15,165,-185
0,2023-03-01T18:59:40.090762,2169638,706,1529,1057,-1026,-573,-319,-15,165,-185
0,2023-03-01T18:59:40.095930,2169645,705,1532,1067,-1036,-571,-320,-15,165,-185
0,2023-03-01T18:59:40.101654,2169650,705,1532,1067,-1036,-571,-320,-15,165,-185
0,2023-03-01T18:59:40.107382,2169656,705,1532,1067,-1036,-571,-320,-15,165,-185
0,2023-03-01T18:59:40.112195,2169661,705,1527,1059,-1036,-573,-322,-15,165,-185
0,2023-03-01T18:59:40.118250,2169666,705,1527,1059,-1036,-573,-322,-15,165,-185
0,2023-03-01T18:59:40.122990,2169671,705,1527,1059,-1036,-573,-322,-15,165,-185
0,2023-03-01T18:59:40.128754,2169677,705,1527,1059,-1036,-573,-322,-15,165,-185
0,2023-03-01T18:59:40.134506,2169682,704,1527,1065,-1030,-568,-315,-15,165,-185
0,2023-03-01T18:59:40.140024,2169689,704,1527,1065,-1030,-568,-315,-15,165,-185
0,2023-03-01T18:59:40.144922,2169693,704,1527,1065,-1030,-568,-315,-15,165,-185
0,2023-03-01T18:59:40.149757,2169698,704,1527,1065,-1030,-568,-315,-15,165,-185
0,2023-03-01T18:59:40.155469,2169704,704,1525,1063,-1021,-572,-321,-15,165,-185
0,2023-03-01T18:59:40.161181,2169709,704,1525,1063,-1021,-572,-321,-15,165,-185
0,2023-03-01T18:59:40.167453,2169715,704,1525,1063,-1021,-572,-321,-15,165,-185
0,2023-03-01T18:59:40.172637,2169721,705,1528,1068,-1030,-575,-322,-21,167,-187
0,2023-03-01T18:59:40.179164,2169728,705,1528,1068,-1030,-575,-322,-21,167,-187
0,2023-03-01T18:59:40.184186,2169733,705,1528,1068,-1030,-575,-322,-21,167,-187
0,2023-03-01T18:59:40.189310,2169738,705,1528,1068,-1030,-575,-322,-21,167,-187
0,2023-03-01T18:59:40.195077,2169743,704,1529,1059,-1033,-572,-323,-21,167,-187
0,2023-03-01T18:59:40.200598,2169749,704,1529,1059,-1033,-572,-323,-21,167,-187
0,2023-03-01T18:59:40.205709,2169754,704,1529,1059,-1033,-572,-323,-21,167,-187
0,2023-03-01T18:59:40.210325,2169758,704,1529,1059,-1033,-572,-323,-21,167,-187
0,2023-03-01T18:59:40.216288,2169764,706,1526,1063,-1036,-576,-316,-21,167,-187
0,2023-03-01T18:59:40.223085,2169771,706,1526,1063,-1036,-576,-316,-21,167,-187
0,2023-03-01T18:59:40.229630,2169778,706,1526,1063,-1036,-576,-316,-21,167,-187
0,2023-03-01T18:59:40.235264,2169784,706,1528,1061,-1033,-575,-322,-21,167,-187
0,2023-03-01T18:59:40.240779,2169789,706,1528,1061,-1033,-575,-322,-21,167,-187
0,2023-03-01T18:59:40.245348,2169794,706,1528,1061,-1033,-575,-322,-21,167,-187
0,2023-03-01T18:59:40.250590,2169799,706,1528,1061,-1033,-575,-322,-21,167,-187
0,2023-03-01T18:59:40.256246,2169804,706,1528,1060,-1032,-576,-324,-21,167,-187
0,2023-03-01T18:59:40.262173,2169810,706,1528,1060,-1032,-576,-324,-21,167,-187
0,2023-03-01T18:59:40.267132,2169816,706,1528,1060,-1032,-576,-324,-21,167,-187
0,2023-03-01T18:59:40.272077,2169821,708,1525,1060,-1034,-569,-322,-21,167,-187
0,2023-03-01T18:59:40.278376,2169827,708,1525,1060,-1034,-569,-322,-21,167,-187
0,2023-03-01T18:59:40.283378,2169832,708,1525,1060,-1034,-569,-322,-21,167,-187
0,2023-03-01T18:59:40.288746,2169837,708,1525,1060,-1034,-569,-322,-21,167,-187
0,2023-03-01T18:59:40.294437,2169842,708,1529,1060,-1028,-572,-324,-17,163,-183
0,2023-03-01T18:59:40.300192,2169848,708,1529,1060,-1028,-572,-324,-17,163,-183
0,2023-03-01T18:59:40.305256,2169853,708,1529,1060,-1028,-572,-324,-17,163,-183
0,2023-03-01T18:59:40.310171,2169859,708,1529,1060,-1028,-572,-324,-17,163,-183
0,2023-03-01T18:59:40.315295,2169864,706,1530,1066,-1033,-571,-319,-17,163,-183
0,2023-03-01T18:59:40.320974,2169869,706,1530,1066,-1033,-571,-319,-17,163,-183
0,2023-03-01T18:59:40.326785,2169875,706,1530,1066,-1033,-571,-319,-17,163,-183
0,2023-03-01T18:59:40.331766,2169880,707,1527,1064,-1022,-568,-323,-17,163,-183
0,2023-03-01T18:59:40.339599,2169888,707,1527,1064,-1022,-568,-323,-17,163,-183
0,2023-03-01T18:59:40.344373,2169892,707,1527,1064,-1022,-568,-323,-17,163,-183
0,2023-03-01T18:59:40.348996,2169897,707,1527,1064,-1022,-568,-323,-17,163,-183
0,2023-03-01T18:59:40.354657,2169903,706,1531,1063,-1032,-573,-315,-17,163,-183
0,2023-03-01T18:59:40.360247,2169909,706,1531,1063,-1032,-573,-315,-17,163,-183
0,2023-03-01T18:59:40.365083,2169914,706,1531,1063,-1032,-573,-315,-17,163,-183
0,2023-03-01T18:59:40.370077,2169919,706,1531,1063,-1032,-573,-315,-17,163,-183
0,2023-03-01T18:59:40.375589,2169924,704,1527,1065,-1032,-575,-316,-17,163,-183
0,2023-03-01T18:59:40.381398,2169929,704,1527,1065,-1032,-575,-316,-17,163,-183
0,2023-03-01T18:59:40.386555,2169934,704,1527,1065,-1032,-575,-316,-17,163,-183
0,2023-03-01T18:59:40.391532,2169939,708,1527,1063,-1033,-568,-322,-17,163,-183
0,2023-03-01T18:59:40.397477,2169946,708,1527,1063,-1033,-568,-322,-17,163,-183
0,2023-03-01T18:59:40.402360,2169951,708,1527,1063,-1033,-568,-322,-17,163,-183
0,2023-03-01T18:59:40.407486,2169956,708,1527,1063,-1033,-568,-322,-17,163,-183
0,2023-03-01T18:59:40.413449,2169962,706,1530,1063,-1036,-569,-323,-17,163,-183
0,2023-03-01T18:59:40.419151,2169967,706,1530,1063,-1036,-569,-323,-17,163,-183
0,2023-03-01T18:59:40.424100,2169972,706,1530,1063,-1036,-569,-323,-17,163,-183
0,2023-03-01T18:59:40.428870,2169977,706,1530,1063,-1036,-569,-323,-17,163,-183
0,2023-03-01T18:59:40.434445,2169982,706,1527,1071,-1030,-571,-321,-21,169,-187
0,2023-03-01T18:59:40.439765,2169989,706,1527,1071,-1030,-571,-321,-21,169,-187
0,2023-03-01T18:59:40.445595,2169994,706,1527,1071,-1030,-571,-321,-21,169,-187
0,2023-03-01T18:59:40.450378,2169999,706,1527,1071,-1030,-571,-321,-21,169,-187
0,2023-03-01T18:59:40.455781,2170004,706,1529,1060,-1036,-578,-329,-21,169,-187
0,2023-03-01T18:59:40.461055,2170009,706,1529,1060,-1036,-578,-329,-21,169,-187
0,2023-03-01T18:59:40.466469,2170015,706,1529,1060,-1036,-578,-329,-21,169,-187
0,2023-03-01T18:59:40.471977,2170019,704,1531,1061,-1029,-573,-320,-21,169,-187
0,2023-03-01T18:59:40.478131,2170027,704,1531,1061,-1029,-573,-320,-21,169,-187
0,2023-03-01T18:59:40.483095,2170032,704,1531,1061,-1029,-573,-320,-21,169,-187
0,2023-03-01T18:59:40.488083,2170037,704,1531,1061,-1029,-573,-320,-21,169,-187
0,2023-03-01T18:59:40.493622,2170042,704,1530,1059,-1032,-572,-321,-21,169,-187
0,2023-03-01T18:59:40.498407,2170047,704,1530,1059,-1032,-572,-321,-21,169,-187
0,2023-03-01T18:59:40.503304,2170052,704,1530,1059,-1032,-572,-321,-21,169,-187
0,2023-03-01T18:59:40.508384,2170057,704,1530,1059,-1032,-572,-321,-21,169,-187
0,2023-03-01T18:59:40.513961,2170062,705,1527,1064,-1030,-562,-315,-21,169,-187
0,2023-03-01T18:59:40.519358,2170067,705,1527,1064,-1030,-562,-315,-21,169,-187
0,2023-03-01T18:59:40.524381,2170073,705,1527,1064,-1030,-562,-315,-21,169,-187
0,2023-03-01T18:59:40.529934,2170079,705,1527,1064,-1030,-562,-315,-21,169,-187
0,2023-03-01T18:59:40.535719,2170084,705,1528,1060,-1036,-571,-328,-21,169,-187
0,2023-03-01T18:59:40.541256,2170090,705,1528,1060,-1036,-571,-328,-21,169,-187
0,2023-03-01T18:59:40.546366,2170095,705,1528,1060,-1036,-571,-328,-21,169,-187
0,2023-03-01T18:59:40.551368,2170099,705,1529,1066,-1039,-579,-328,-21,169,-187
0,2023-03-01T18:59:40.557922,2170106,705,1529,1066,-1039,-579,-328,-18,168,-188
0,2023-03-01T18:59:40.563136,2170112,705,1529,1066,-1039,-579,-328,-18,168,-188
0,2023-03-01T18:59:40.568791,2170118,705,1529,1066,-1039,-579,-328,-18,168,-188
0,2023-03-01T18:59:40.574483,2170123,703,1525,1063,-1029,-566,-319,-18,168,-188
0,2023-03-01T18:59:40.580080,2170129,703,1525,1063,-1029,-566,-319,-18,168,-188
0,2023-03-01T18:59:40.584819,2170133,703,1525,1063,-1029,-566,-319,-18,168,-188
0,2023-03-01T18:59:40.589902,2170138,703,1525,1063,-1029,-566,-319,-18,168,-188
0,2023-03-01T18:59:40.595245,2170144,704,1527,1064,-1028,-575,-316,-18,168,-188
0,2023-03-01T18:59:40.600441,2170149,704,1527,1064,-1028,-575,-316,-18,168,-188
0,2023-03-01T18:59:40.605799,2170153,704,1527,1064,-1028,-575,-316,-18,168,-188
0,2023-03-01T18:59:40.610846,2170160,704,1527,1064,-1028,-575,-316,-18,168,-188
0,2023-03-01T18:59:40.616525,2170165,704,1527,1064,-1028,-575,-316,-18,168,-188
0,2023-03-01T18:59:40.621541,2170170,704,1527,1064,-1028,-575,-316,-18,168,-188
0,2023-03-01T18:59:40.626620,2170175,704,1527,1064,-1028,-575,-316,-18,168,-188
0,2023-03-01T18:59:40.631717,2170180,707,1528,1066,-1029,-573,-322,-18,168,-188
0,2023-03-01T18:59:40.638356,2170186,707,1528,1066,-1029,-573,-322,-18,168,-188
0,2023-03-01T18:59:40.643454,2170191,707,1528,1066,-1029,-573,-322,-18,168,-188
0,2023-03-01T18:59:40.649708,2170198,707,1528,1066,-1029,-573,-322,-18,168,-188
0,2023-03-01T18:59:40.655372,2170204,706,1528,1062,-1029,-570,-319,-18,168,-188
0,2023-03-01T18:59:40.661859,2170210,706,1528,1062,-1029,-570,-319,-18,168,-188
0,2023-03-01T18:59:40.667906,2170216,706,1528,1062,-1029,-570,-319,-18,168,-188
0,2023-03-01T18:59:40.673984,2170222,707,1526,1065,-1037,-566,-326,-18,168,-188
0,2023-03-01T18:59:40.679970,2170228,707,1526,1065,-1037,-566,-326,-18,168,-188
0,2023-03-01T18:59:40.684973,2170233,707,1526,1065,-1037,-566,-326,-18,168,-188
0,2023-03-01T18:59:40.689773,2170238,707,1526,1065,-1037,-566,-326,-18,168,-188
0,2023-03-01T18:59:40.695631,2170244,706,1529,1067,-1032,-572,-320,-19,161,-189
0,2023-03-01T18:59:40.701356,2170250,706,1529,1067,-1032,-572,-320,-19,161,-189
0,2023-03-01T18:59:40.706375,2170255,706,1529,1067,-1032,-572,-320,-19,161,-189
0,2023-03-01T18:59:40.711310,2170260,706,1529,1067,-1032,-572,-320,-19,161,-189
0,2023-03-01T18:59:40.717397,2170265,704,1526,1065,-1027,-570,-322,-19,161,-189
0,2023-03-01T18:59:40.723125,2170271,704,1526,1065,-1027,-570,-322,-19,161,-189
0,2023-03-01T18:59:40.727809,2170276,704,1526,1065,-1027,-570,-322,-19,161,-189
0,2023-03-01T18:59:40.733361,2170281,708,1526,1065,-1021,-570,-326,-19,161,-189
0,2023-03-01T18:59:40.739806,2170288,708,1526,1065,-1021,-570,-326,-19,161,-189
0,2023-03-01T18:59:40.745023,2170293,708,1526,1065,-1021,-570,-326,-19,161,-189
0,2023-03-01T18:59:40.751174,2170300,708,1526,1065,-1021,-570,-326,-19,161,-189
0,2023-03-01T18:59:40.757109,2170305,705,1530,1066,-1034,-578,-311,-19,161,-189
0,2023-03-01T18:59:40.762903,2170311,705,1530,1066,-1034,-578,-311,-19,161,-189
0,2023-03-01T18:59:40.768397,2170316,705,1530,1066,-1034,-578,-311,-19,161,-189
0,2023-03-01T18:59:40.773897,2170322,704,1529,1057,-1028,-570,-317,-19,161,-189
0,2023-03-01T18:59:40.779853,2170328,704,1529,1057,-1028,-570,-317,-19,161,-189
0,2023-03-01T18:59:40.784898,2170334,704,1529,1057,-1028,-570,-317,-19,161,-189
0,2023-03-01T18:59:40.790365,2170339,704,1529,1057,-1028,-570,-317,-19,161,-189
0,2023-03-01T18:59:40.795916,2170344,706,1528,1058,-1027,-569,-319,-19,161,-189
0,2023-03-01T18:59:40.801875,2170350,706,1528,1058,-1027,-569,-319,-19,161,-189
0,2023-03-01T18:59:40.807550,2170356,706,1528,1058,-1027,-569,-319,-19,161,-189
0,2023-03-01T18:59:40.812202,2170360,708,1529,1063,-1030,-577,-326,-16,166,-190
0,2023-03-01T18:59:40.818366,2170366,708,1529,1063,-1030,-577,-326,-16,166,-190
0,2023-03-01T18:59:40.823247,2170372,708,1529,1063,-1030,-577,-326,-16,166,-190
0,2023-03-01T18:59:40.829205,2170377,708,1529,1063,-1030,-577,-326,-16,166,-190
0,2023-03-01T18:59:40.834930,2170384,707,1526,1060,-1036,-572,-329,-16,166,-190
0,2023-03-01T18:59:40.840366,2170389,707,1526,1060,-1036,-572,-329,-16,166,-190
0,2023-03-01T18:59:40.845260,2170394,707,1526,1060,-1036,-572,-329,-16,166,-190
0,2023-03-01T18:59:40.850710,2170399,707,1526,1060,-1036,-572,-329,-16,166,-190
0,2023-03-01T18:59:40.856333,2170404,705,1527,1061,-1040,-567,-321,-16,166,-190
0,2023-03-01T18:59:40.862597,2170412,705,1527,1061,-1040,-567,-321,-16,166,-190
0,2023-03-01T18:59:40.867535,2170416,705,1527,1061,-1040,-567,-321,-16,166,-190
0,2023-03-01T18:59:40.872765,2170421,707,1530,1060,-1032,-574,-326,-16,166,-190
0,2023-03-01T18:59:40.878225,2170427,707,1530,1060,-1032,-574,-326,-16,166,-190
0,2023-03-01T18:59:40.884114,2170432,707,1530,1060,-1032,-574,-326,-16,166,-190
0,2023-03-01T18:59:40.890480,2170438,707,1530,1060,-1032,-574,-326,-16,166,-190
0,2023-03-01T18:59:40.896314,2170444,706,1528,1060,-1033,-570,-319,-16,166,-190
0,2023-03-01T18:59:40.902228,2170450,706,1528,1060,-1033,-570,-319,-16,166,-190
0,2023-03-01T18:59:40.908157,2170457,706,1528,1060,-1033,-570,-319,-16,166,-190
0,2023-03-01T18:59:40.913657,2170462,708,1527,1057,-1033,-569,-322,-16,166,-190
0,2023-03-01T18:59:40.918692,2170467,708,1527,1057,-1033,-569,-322,-16,166,-190
0,2023-03-01T18:59:40.923801,2170472,708,1527,1057,-1033,-569,-322,-16,166,-190
0,2023-03-01T18:59:40.928485,2170477,708,1527,1057,-1033,-569,-322,-16,166,-190
0,2023-03-01T18:59:40.934355,2170482,704,1530,1058,-1032,-568,-321,-16,166,-190
0,2023-03-01T18:59:40.940361,2170488,704,1530,1058,-1032,-568,-321,-16,166,-190
0,2023-03-01T18:59:40.944891,2170493,704,1530,1058,-1032,-568,-321,-16,166,-190
0,2023-03-01T18:59:40.949424,2170498,704,1530,1058,-1032,-568,-321,-16,166,-190
0,2023-03-01T18:59:40.955486,2170504,708,1529,1059,-1039,-569,-326,-17,163,-187
0,2023-03-01T18:59:40.961371,2170510,708,1529,1059,-1039,-569,-326,-17,163,-187
0,2023-03-01T18:59:40.966092,2170515,708,1529,1059,-1039,-569,-326,-17,163,-187
0,2023-03-01T18:59:40.971204,2170520,708,1529,1059,-1039,-569,-326,-17,163,-187
0,2023-03-01T18:59:40.976558,2170525,705,1530,1062,-1034,-569,-323,-17,163,-187
0,2023-03-01T18:59:40.981992,2170530,705,1530,1062,-1034,-569,-323,-17,163,-187
0,2023-03-01T18:59:40.987771,2170536,705,1530,1062,-1034,-569,-323,-17,163,-187
0,2023-03-01T18:59:40.993680,2170542,707,1528,1061,-1030,-577,-326,-17,163,-187
0,2023-03-01T18:59:41.000255,2170549,707,1528,1061,-1030,-577,-326,-17,163,-187
0,2023-03-01T18:59:41.005231,2170554,707,1528,1061,-1030,-577,-326,-17,163,-187
0,2023-03-01T18:59:41.011330,2170559,707,1528,1061,-1030,-577,-326,-17,163,-187
0,2023-03-01T18:59:41.017116,2170565,707,1527,1068,-1030,-570,-325,-17,163,-187
0,2023-03-01T18:59:41.022574,2170571,707,1527,1068,-1030,-570,-325,-17,163,-187
0,2023-03-01T18:59:41.028261,2170576,707,1527,1068,-1030,-570,-325,-17,163,-187
0,2023-03-01T18:59:41.033639,2170583,705,1527,1063,-1034,-578,-327,-17,163,-187
0,2023-03-01T18:59:41.039067,2170588,705,1527,1063,-1034,-578,-327,-17,163,-187
0,2023-03-01T18:59:41.043696,2170592,705,1527,1063,-1034,-578,-327,-17,163,-187
0,2023-03-01T18:59:41.049063,2170597,705,1527,1063,-1034,-578,-327,-17,163,-187
0,2023-03-01T18:59:41.054342,2170603,707,1530,1058,-1029,-580,-322,-17,163,-187
0,2023-03-01T18:59:41.059607,2170608,707,1530,1058,-1029,-580,-322,-17,163,-187
0,2023-03-01T18:59:41.064317,2170613,707,1530,1058,-1029,-580,-322,-17,163,-187
0,2023-03-01T18:59:41.069618,2170618,707,1530,1058,-1029,-580,-322,-17,163,-187
0,2023-03-01T18:59:41.075098,2170624,703,1528,1065,-1034,-579,-320,-19,171,-181
0,2023-03-01T18:59:41.081019,2170630,703,1528,1065,-1034,-579,-320,-19,171,-181
0,2023-03-01T18:59:41.086606,2170635,703,1528,1065,-1034,-579,-320,-19,171,-181
0,2023-03-01T18:59:41.091286,2170640,703,1528,1065,-1034,-579,-320,-19,171,-181
0,2023-03-01T18:59:41.096933,2170645,706,1528,1060,-1034,-579,-326,-19,171,-181
0,2023-03-01T18:59:41.103498,2170651,706,1528,1060,-1034,-579,-326,-19,171,-181
0,2023-03-01T18:59:41.109469,2170657,706,1528,1060,-1034,-579,-326,-19,171,-181
0,2023-03-01T18:59:41.115577,2170664,710,1527,1057,-1027,-578,-323,-19,171,-181
0,2023-03-01T18:59:41.121320,2170670,710,1527,1057,-1027,-578,-323,-19,171,-181
0,2023-03-01T18:59:41.126119,2170675,710,1527,1057,-1027,-578,-323,-19,171,-181
0,2023-03-01T18:59:41.131398,2170680,710,1527,1057,-1027,-578,-323,-19,171,-181
0,2023-03-01T18:59:41.137184,2170686,706,1527,1066,-1028,-570,-323,-19,171,-181
0,2023-03-01T18:59:41.142814,2170691,706,1527,1066,-1028,-570,-323,-19,171,-181
0,2023-03-01T18:59:41.147366,2170696,706,1527,1066,-1028,-570,-323,-19,171,-181
0,2023-03-01T18:59:41.152023,2170700,706,1527,1061,-1033,-569,-327,-19,171,-181
0,2023-03-01T18:59:41.158457,2170706,706,1527,1061,-1033,-569,-327,-19,171,-181
0,2023-03-01T18:59:41.163483,2170712,706,1527,1061,-1033,-569,-327,-19,171,-181
0,2023-03-01T18:59:41.169401,2170718,706,1527,1061,-1033,-569,-327,-19,171,-181
0,2023-03-01T18:59:41.174400,2170723,705,1528,1064,-1039,-570,-322,-19,171,-181
0,2023-03-01T18:59:41.179944,2170728,705,1528,1064,-1039,-570,-322,-19,171,-181
0,2023-03-01T18:59:41.185117,2170733,705,1528,1064,-1039,-570,-322,-19,171,-181
0,2023-03-01T18:59:41.190774,2170739,705,1528,1064,-1039,-570,-322,-19,171,-181
0,2023-03-01T18:59:41.196440,2170745,709,1530,1064,-1038,-578,-321,-21,167,-191
0,2023-03-01T18:59:41.202154,2170750,709,1530,1064,-1038,-578,-321,-21,167,-191
0,2023-03-01T18:59:41.206987,2170756,709,1530,1064,-1038,-578,-321,-21,167,-191
0,2023-03-01T18:59:41.211985,2170761,709,1530,1064,-1038,-578,-321,-21,167,-191
0,2023-03-01T18:59:41.218003,2170766,706,1529,1063,-1037,-576,-324,-21,167,-191
0,2023-03-01T18:59:41.224266,2170772,706,1529,1063,-1037,-576,-324,-21,167,-191
0,2023-03-01T18:59:41.230729,2170779,706,1529,1063,-1037,-576,-324,-21,167,-191
0,2023-03-01T18:59:41.236672,2170785,706,1527,1059,-1039,-577,-320,-21,167,-191
0,2023-03-01T18:59:41.241479,2170789,706,1527,1059,-1039,-577,-320,-21,167,-191
0,2023-03-01T18:59:41.246307,2170795,706,1527,1059,-1039,-577,-320,-21,167,-191
0,2023-03-01T18:59:41.251351,2170800,706,1527,1059,-1039,-577,-320,-21,167,-191
0,2023-03-01T18:59:41.256697,2170805,704,1526,1063,-1037,-575,-324,-21,167,-191
0,2023-03-01T18:59:41.262496,2170811,704,1526,1063,-1037,-575,-324,-21,167,-191
0,2023-03-01T18:59:41.267492,2170816,704,1526,1063,-1037,-575,-324,-21,167,-191
0,2023-03-01T18:59:41.272523,2170821,708,1527,1060,-1036,-569,-326,-21,167,-191
0,2023-03-01T18:59:41.278826,2170827,708,1527,1060,-1036,-569,-326,-21,167,-191
0,2023-03-01T18:59:41.283884,2170832,708,1527,1060,-1036,-569,-326,-21,167,-191
0,2023-03-01T18:59:41.289219,2170838,708,1527,1060,-1036,-569,-326,-21,167,-191
0,2023-03-01T18:59:41.295178,2170844,704,1531,1060,-1029,-577,-325,-21,167,-191
0,2023-03-01T18:59:41.300745,2170849,704,1531,1060,-1029,-577,-325,-21,167,-191
0,2023-03-01T18:59:41.306353,2170855,704,1531,1060,-1029,-577,-325,-21,167,-191
0,2023-03-01T18:59:41.311767,2170860,704,1531,1060,-1029,-577,-325,-21,167,-191
0,2023-03-01T18:59:41.317416,2170866,706,1529,1059,-1035,-579,-316,-21,167,-191
0,2023-03-01T18:59:41.323276,2170871,706,1529,1059,-1035,-579,-316,-21,167,-191
0,2023-03-01T18:59:41.329917,2170877,706,1529,1059,-1035,-579,-316,-21,167,-191
0,2023-03-01T18:59:41.336348,2170885,704,1526,1061,-1036,-572,-328,-21,173,-191
0,2023-03-01T18:59:41.342733,2170891,704,1526,1061,-1036,-572,-328,-21,173,-191
0,2023-03-01T18:59:41.347644,2170896,704,1526,1061,-1036,-572,-328,-21,173,-191
0,2023-03-01T18:59:41.352762,2170901,705,1529,1059,-1031,-572,-329,-21,173,-191
0,2023-03-01T18:59:41.358646,2170907,705,1529,1059,-1031,-572,-329,-21,173,-191
0,2023-03-01T18:59:41.363402,2170912,705,1529,1059,-1031,-572,-329,-21,173,-191
0,2023-03-01T18:59:41.368909,2170917,705,1529,1059,-1031,-572,-329,-21,173,-191
0,2023-03-01T18:59:41.374430,2170923,709,1528,1055,-1027,-570,-316,-21,173,-191
0,2023-03-01T18:59:41.381358,2170930,709,1528,1055,-1027,-570,-316,-21,173,-191
0,2023-03-01T18:59:41.387204,2170936,709,1528,1055,-1027,-570,-316,-21,173,-191
0,2023-03-01T18:59:41.391953,2170941,709,1528,1055,-1027,-570,-316,-21,173,-191
0,2023-03-01T18:59:41.397315,2170946,705,1528,1058,-1027,-563,-326,-21,173,-191
0,2023-03-01T18:59:41.402789,2170951,705,1528,1058,-1027,-563,-326,-21,173,-191
0,2023-03-01T18:59:41.408746,2170956,705,1528,1058,-1027,-563,-326,-21,173,-191
0,2023-03-01T18:59:41.414451,2170962,706,1527,1058,-1034,-575,-320,-21,173,-191
0,2023-03-01T18:59:41.420256,2170969,706,1527,1058,-1034,-575,-320,-21,173,-191
0,2023-03-01T18:59:41.425675,2170974,706,1527,1058,-1034,-575,-320,-21,173,-191
0,2023-03-01T18:59:41.431743,2170980,706,1527,1058,-1034,-575,-320,-21,173,-191
0,2023-03-01T18:59:41.437198,2170986,706,1526,1061,-1031,-579,-315,-21,173,-191
0,2023-03-01T18:59:41.444524,2170993,706,1526,1061,-1031,-579,-315,-21,173,-191
0,2023-03-01T18:59:41.450357,2170998,706,1526,1061,-1031,-579,-315,-21,173,-191
0,2023-03-01T18:59:41.456046,2171004,706,1529,1068,-1028,-578,-321,-15,171,-185
0,2023-03-01T18:59:41.461979,2171011,706,1529,1068,-1028,-578,-321,-15,171,-185
0,2023-03-01T18:59:41.467516,2171016,706,1529,1068,-1028,-578,-321,-15,171,-185
0,2023-03-01T18:59:41.472512,2171021,704,1530,1064,-1033,-569,-329,-15,171,-185
0,2023-03-01T18:59:41.479420,2171027,704,1530,1064,-1033,-569,-329,-15,171,-185
0,2023-03-01T18:59:41.484323,2171033,704,1530,1064,-1033,-569,-329,-15,171,-185
0,2023-03-01T18:59:41.489077,2171037,704,1530,1064,-1033,-569,-329,-15,171,-185
0,2023-03-01T18:59:41.494492,2171043,707,1529,1056,-1033,-577,-323,-15,171,-185
0,2023-03-01T18:59:41.499914,2171048,707,1529,1056,-1033,-577,-323,-15,171,-185
0,2023-03-01T18:59:41.504933,2171053,707,1529,1056,-1033,-577,-323,-15,171,-185
0,2023-03-01T18:59:41.509593,2171058,707,1529,1056,-1033,-577,-323,-15,171,-185
0,2023-03-01T18:59:41.515368,2171064,705,1527,1059,-1022,-577,-331,-15,171,-185
0,2023-03-01T18:59:41.522351,2171071,705,1527,1059,-1022,-577,-331,-15,171,-185
0,2023-03-01T18:59:41.527125,2171075,705,1527,1059,-1022,-577,-331,-15,171,-185
0,2023-03-01T18:59:41.532105,2171080,705,1527,1059,-1022,-577,-331,-15,171,-185
0,2023-03-01T18:59:41.537840,2171086,710,1532,1059,-1032,-574,-323,-15,171,-185
0,2023-03-01T18:59:41.544057,2171092,710,1532,1059,-1032,-574,-323,-15,171,-185
0,2023-03-01T18:59:41.549778,2171098,710,1532,1059,-1032,-574,-323,-15,171,-185
